time,seconds_elapsed,z,y,x
1682999242025056500,0.039056396484375,-0.1939999908208847,0.28939998149871826,0.5600999593734741
1682999242045056500,0.059056396484375,-0.1939999908208847,0.28939998149871826,0.5600999593734741
1682999242065058000,0.07905810546875,-0.1939999908208847,0.28939998149871826,0.5600999593734741
1682999242085058000,0.09905810546875,0.03999999910593033,-0.012600000016391277,0.1428000032901764
1682999242105058000,0.11905810546875,0.011699999682605267,-0.022199999541044235,0.2013999968767166
1682999242125056500,0.139056396484375,-0.09929999709129333,-0.003399999812245369,0.30730000138282776
1682999242145058000,0.15905810546875,-0.07779999822378159,0.013599999248981476,0.17639999091625214
1682999242165059600,0.1790595703125,-0.043299999088048935,0.04939999803900719,0.09259999543428421
1682999242185058000,0.19905810546875,0.00039999998989515007,0.09299999475479126,0.05900000035762787
1682999242205058000,0.21905810546875,-0.020099999383091927,0.17559999227523804,0.12239999324083328
1682999242225058000,0.23905810546875,-0.030499998480081558,0.18289999663829803,0.22599999606609344
1682999242245058000,0.25905810546875,-0.1670999974012375,0.31520000100135803,0.32979997992515564
1682999242265056500,0.279056396484375,-0.1078999936580658,0.39159998297691345,0.2386999875307083
1682999242285058000,0.29905810546875,0.053700000047683716,0.6717000007629395,0.06069999933242798
1682999242305058000,0.31905810546875,0.13379999995231628,-0.14299999177455902,0.12619999051094055
1682999242325056500,0.339056396484375,-0.025100000202655792,-0.4544000029563904,0.2215999960899353
1682999242345058000,0.35905810546875,-0.12019999325275421,-0.12399999797344208,-0.002199999988079071
1682999242365058000,0.37905810546875,0.01979999989271164,-0.02759999968111515,-0.1184999942779541
1682999242385056500,0.399056396484375,0.14479999244213104,-0.18529999256134033,0.1501999944448471
1682999242405056500,0.419056396484375,0.19859999418258667,-0.09119999408721924,0.013499999418854713
1682999242425058000,0.43905810546875,-0.03009999915957451,0.12600000202655792,-0.035999998450279236
1682999242445058000,0.45905810546875,-0.08079999685287476,-0.011299999430775642,-0.17419999837875366
1682999242465056500,0.479056396484375,-0.12950000166893005,0.0015999999595806003,-0.2636999785900116
1682999242485058000,0.49905810546875,-0.00139999995008111,0.04829999804496765,-0.41189998388290405
1682999242505058000,0.51905810546875,0.003999999724328518,0.0957999974489212,-0.25699999928474426
1682999242525056500,0.539056396484375,0.028599999845027924,0.14980000257492065,-0.042399998754262924
1682999242545056500,0.559056396484375,0.022599998861551285,0.1842999905347824,-0.14800000190734863
1682999242565058000,0.57905810546875,-0.19929999113082886,0.06459999829530716,-0.1062999963760376
1682999242585058000,0.59905810546875,-0.20329999923706055,0.1875,-0.13449999690055847
1682999242605058000,0.61905810546875,-0.17000000178813934,0.32690000534057617,-0.1233999952673912
1682999242625056500,0.639056396484375,-0.188400000333786,0.20160000026226044,0.2190999984741211
1682999242645058000,0.65905810546875,0.13079999387264252,0.02759999968111515,0.1022999957203865
1682999242665058000,0.67905810546875,0.5220000147819519,0.24379999935626984,0.19039998948574066
1682999242685058000,0.69905810546875,0.7089999914169312,0.04559999704360962,0.445499986410141
1682999242705058000,0.71905810546875,0.31279999017715454,-0.17989999055862427,0.6297999620437622
1682999242725056500,0.739056396484375,-0.048899997025728226,-0.39809998869895935,0.536899983882904
1682999242745056500,0.759056396484375,0.04580000042915344,0.10539999604225159,0.4364999830722809
1682999242765056500,0.779056396484375,0.43209999799728394,0.43309998512268066,0.5234000086784363
1682999242785058000,0.79905810546875,0.7303999662399292,0.3418000042438507,0.7847999930381775
1682999242805058000,0.81905810546875,0.8924999833106995,0.3757999837398529,0.7325999736785889
1682999242825056500,0.839056396484375,0.8931999802589417,0.4034000039100647,0.42879998683929443
1682999242845058000,0.85905810546875,0.6599000096321106,0.3935000002384186,-0.14229999482631683
1682999242865058000,0.87905810546875,0.05509999766945839,0.4490000009536743,-0.5450999736785889
1682999242885056500,0.899056396484375,-0.3255999982357025,0.41130000352859497,-0.79339998960495
1682999242905056500,0.919056396484375,-0.5697000026702881,0.3165999948978424,-0.9557999968528748
1682999242925058000,0.93905810546875,-0.5138999819755554,0.2671000063419342,-0.9918999671936035
1682999242945058000,0.95905810546875,-0.13459999859333038,0.3312000036239624,-0.6965999603271484
1682999242965058000,0.97905810546875,0.028199998661875725,0.25049999356269836,-0.366599977016449
1682999242985058000,0.99905810546875,0.13089999556541443,0.2939999997615814,-0.5001000165939331
1682999243005058000,1.01905810546875,0.021699998527765274,0.3203999996185303,-0.5047999620437622
1682999243025056500,1.039056396484375,0.25040000677108765,0.375900000333786,-0.42239999771118164
1682999243045058000,1.05905810546875,0.3604999780654907,0.6055999994277954,-0.349700003862381
1682999243065058000,1.07905810546875,0.09600000083446503,0.6721999645233154,-0.4068000018596649
1682999243085058000,1.09905810546875,-0.29499998688697815,0.6725999712944031,-1.0405999422073364
1682999243105058000,1.11905810546875,-0.46859997510910034,0.6258999705314636,-1.4180999994277954
1682999243125056500,1.139056396484375,-0.43789997696876526,0.3806999921798706,-1.5303999185562134
1682999243145058000,1.15905810546875,-0.32099997997283936,0.23659999668598175,-1.5439000129699707
1682999243165058000,1.17905810546875,-0.2524999976158142,0.01850000023841858,-1.7072999477386475
1682999243185058000,1.19905810546875,0.021399999037384987,0.01759999990463257,-1.8507999181747437
1682999243205058000,1.21905810546875,0.3522000014781952,0.17839999496936798,-1.755199909210205
1682999243225058000,1.23905810546875,0.45749998092651367,0.11729999631643295,-1.3452999591827393
1682999243245058000,1.25905810546875,0.2800000011920929,0.2255999892950058,-1.007099986076355
1682999243265056500,1.279056396484375,0.22819998860359192,0.35569998621940613,-0.8774999976158142
1682999243285058000,1.29905810546875,0.29899999499320984,0.29499998688697815,-0.6510999798774719
1682999243305058000,1.31905810546875,0.43389999866485596,0.186599999666214,-0.6855999827384949
1682999243325056500,1.339056396484375,0.3206000030040741,0.21709999442100525,-0.5845999717712402
1682999243345058000,1.35905810546875,0.2669999897480011,0.1606999933719635,-0.03720000013709068
1682999243365058000,1.37905810546875,0.49939998984336853,-0.0038999998942017555,1.3116999864578247
1682999243385058000,1.39905810546875,0.9515999555587769,-0.20160000026226044,3.6965999603271484
1682999243405058000,1.41905810546875,1.4375,-0.5390999913215637,5.325799942016602
1682999243425058000,1.43905810546875,1.4556999206542969,-0.670199990272522,4.6255998611450195
1682999243445058000,1.45905810546875,1.299799919128418,-0.3392999768257141,2.716899871826172
1682999243465056500,1.479056396484375,1.4103000164031982,-0.6110000014305115,2.741799831390381
1682999243485059600,1.4990595703125,1.5288000106811523,-1.1913999319076538,3.847100019454956
1682999243505058000,1.51905810546875,1.395900011062622,-1.0677999258041382,3.7455999851226807
1682999243525056500,1.539056396484375,0.40299999713897705,-0.7982999682426453,2.495699882507324
1682999243545058000,1.55905810546875,-0.7902999520301819,-0.8348999619483948,0.7293999791145325
1682999243565058000,1.57905810546875,-1.548200011253357,-0.46469998359680176,-0.9343000054359436
1682999243585058000,1.59905810546875,-1.6553999185562134,-0.8198999762535095,-1.6859999895095825
1682999243605058000,1.61905810546875,-1.309499979019165,-1.2457000017166138,-0.9134999513626099
1682999243625056500,1.639056396484375,-0.7256999611854553,-0.9835000038146973,-0.4632999897003174
1682999243645058000,1.65905810546875,-0.13419999182224274,-0.5534999966621399,-0.10260000079870224
1682999243665058000,1.67905810546875,-0.179299995303154,-0.14790000021457672,0.15240000188350677
1682999243685058000,1.69905810546875,-0.5625999569892883,-0.08579999953508377,0.34279999136924744
1682999243705058000,1.71905810546875,-0.8014000058174133,-0.4693000018596649,0.5436999797821045
1682999243725058000,1.73905810546875,-1.1582999229431152,-0.49949997663497925,-0.10619999468326569
1682999243745058000,1.75905810546875,-1.0616999864578247,-0.3797000050544739,-1.282099962234497
1682999243765058000,1.77905810546875,-1.0848000049591064,-0.05289999768137932,-2.153899908065796
1682999243785058000,1.79905810546875,-1.121399998664856,0.03500000014901161,-2.4845998287200928
1682999243805058000,1.81905810546875,-0.9382999539375305,0.17440000176429749,-2.494499921798706
1682999243825056500,1.839056396484375,-0.8185999989509583,0.41830000281333923,-1.973099946975708
1682999243845058000,1.85905810546875,-0.8506999611854553,0.727899968624115,-1.6114999055862427
1682999243865058000,1.87905810546875,-0.6834999918937683,1.0591999292373657,-1.9191999435424805
1682999243885058000,1.89905810546875,-1.2178000211715698,1.2776999473571777,-1.8745999336242676
1682999243905058000,1.91905810546875,-1.4233999252319336,1.1906999349594116,-1.8001999855041504
1682999243925058000,1.93905810546875,-1.6642999649047852,1.0953999757766724,-1.7459999322891235
1682999243945058000,1.95905810546875,-1.455199956893921,0.875499963760376,-1.6940999031066895
1682999243965058000,1.97905810546875,-1.2889000177383423,0.73089998960495,-2.0729000568389893
1682999243985058000,1.99905810546875,-0.811199963092804,0.4260999858379364,-2.571499824523926
1682999244005058000,2.01905810546875,-0.5607999563217163,0.38989999890327454,-2.4909000396728516
1682999244025056500,2.039056396484375,-0.06879999488592148,0.21889999508857727,-1.4013999700546265
1682999244045058000,2.05905810546875,0.7252999544143677,-0.45409998297691345,1.0960999727249146
1682999244065058000,2.07905810546875,1.5719999074935913,-0.9842000007629395,3.9233999252319336
1682999244085058000,2.09905810546875,2.4886999130249023,-1.0722999572753906,5.14109992980957
1682999244105058000,2.11905810546875,2.40310001373291,-1.0514999628067017,5.217899799346924
1682999244125056500,2.139056396484375,1.785099983215332,-1.0916999578475952,4.018599987030029
1682999244145058000,2.15905810546875,1.504499912261963,-1.7091000080108643,3.6912999153137207
1682999244165056500,2.179056396484375,1.621999979019165,-2.2660999298095703,4.64139986038208
1682999244185058000,2.19905810546875,1.6922999620437622,-2.338099956512451,4.89709997177124
1682999244205058000,2.21905810546875,1.3686000108718872,-2.1273000240325928,3.245299816131592
1682999244225058000,2.23905810546875,0.8473999500274658,-1.9569000005722046,0.9152999520301819
1682999244245058000,2.25905810546875,0.7343999743461609,-1.7120000123977661,-0.37199997901916504
1682999244265056500,2.279056396484375,0.6218999624252319,-0.9989999532699585,-0.6139000058174133
1682999244285058000,2.29905810546875,0.35760000348091125,-0.337799996137619,-0.34059998393058777
1682999244305058000,2.31905810546875,-0.14229999482631683,0.3854999840259552,-0.3919999897480011
1682999244325056500,2.339056396484375,-0.5719999670982361,0.7285999655723572,-0.3725000023841858
1682999244345058000,2.35905810546875,-0.7293999791145325,0.7875999808311462,-0.5291999578475952
1682999244365058000,2.37905810546875,-0.6520000100135803,0.5317999720573425,-0.5783999562263489
1682999244385058000,2.39905810546875,-0.41339999437332153,0.5001999735832214,-0.7249999642372131
1682999244405058000,2.41905810546875,-0.3667999804019928,0.0648999959230423,-0.46050000190734863
1682999244425058000,2.43905810546875,-0.1762000024318695,0.017500000074505806,-0.5406999588012695
1682999244445058000,2.45905810546875,-0.1614999920129776,0.010599999688565731,-1.1299999952316284
1682999244465058000,2.47905810546875,-0.13570000231266022,-0.13459999859333038,-1.553299903869629
1682999244485056500,2.499056396484375,0.020099999383091927,-0.12969999015331268,-1.7906999588012695
1682999244505058000,2.51905810546875,0.21490000188350677,0.026200000196695328,-1.8428999185562134
1682999244525056500,2.539056396484375,0.47209998965263367,0.25220000743865967,-1.6714999675750732
1682999244545058000,2.55905810546875,0.5726999640464783,0.5227000117301941,-1.6388999223709106
1682999244565058000,2.57905810546875,0.574400007724762,0.7450999617576599,-1.6823999881744385
1682999244585058000,2.59905810546875,0.30399999022483826,0.7137999534606934,-1.9383999109268188
1682999244605058000,2.61905810546875,0.32339999079704285,0.7410999536514282,-2.268899917602539
1682999244625056500,2.639056396484375,0.45419999957084656,0.6572999954223633,-2.1257998943328857
1682999244645058000,2.65905810546875,0.40459999442100525,0.6401999592781067,-2.0774998664855957
1682999244665058000,2.67905810546875,0.2854999899864197,0.8679999709129333,-2.1001999378204346
1682999244685058000,2.69905810546875,-0.031300000846385956,0.8948999643325806,-2.107599973678589
1682999244705058000,2.71905810546875,-0.09299999475479126,0.5562999844551086,-1.6216999292373657
1682999244725058000,2.73905810546875,0.23899999260902405,0.3612000048160553,-0.11620000004768372
1682999244745058000,2.75905810546875,0.5909000039100647,-0.3057999908924103,2.5283000469207764
1682999244765058000,2.77905810546875,1.1617000102996826,-0.9333999752998352,4.401099681854248
1682999244785058000,2.79905810546875,1.0709999799728394,-1.5240999460220337,4.963299751281738
1682999244805058000,2.81905810546875,0.322299987077713,-1.0058000087738037,3.3187999725341797
1682999244825056500,2.839056396484375,-0.171999990940094,-1.4668999910354614,1.9899998903274536
1682999244845058000,2.85905810546875,0.311599999666214,-1.8700999021530151,3.3825998306274414
1682999244865058000,2.87905810546875,0.8273999691009521,-1.3525999784469604,4.3765997886657715
1682999244885058000,2.89905810546875,0.6705999970436096,-1.2178000211715698,3.916599988937378
1682999244905058000,2.91905810546875,0.3089999854564667,-1.0058000087738037,2.342399835586548
1682999244925058000,2.93905810546875,0.020399998873472214,-1.0830999612808228,0.8585999608039856
1682999244945058000,2.95905810546875,-0.17239999771118164,-1.052899956703186,0.21539999544620514
1682999244965058000,2.97905810546875,-0.3066999912261963,-0.6833999752998352,0.25939998030662537
1682999244985058000,2.99905810546875,-0.6741999983787537,-0.3229999840259552,0.5748999714851379
1682999245005058000,3.01905810546875,-0.9383999705314636,0.12019999325275421,-0.014999999664723873
1682999245025056500,3.039056396484375,-1.0058000087738037,0.1890999972820282,-0.4323999881744385
1682999245045058000,3.05905810546875,-0.7422999739646912,0.20979999005794525,-0.717199981212616
1682999245065058000,3.07905810546875,-0.7023999691009521,0.25769999623298645,-0.9024999737739563
1682999245085058000,3.09905810546875,-0.7009999752044678,0.3261999785900116,-0.903499960899353
1682999245105058000,3.11905810546875,-0.7287999987602234,0.3630000054836273,-0.9067999720573425
1682999245125056500,3.139056396484375,-0.8194999694824219,0.3052999973297119,-1.2038999795913696
1682999245145058000,3.15905810546875,-0.9286999702453613,0.3075999915599823,-1.6272000074386597
1682999245165056500,3.179056396484375,-0.784500002861023,0.39879998564720154,-1.8854999542236328
1682999245185056500,3.199056396484375,-0.6078999638557434,0.46699997782707214,-1.7555999755859375
1682999245205058000,3.21905810546875,-0.5162999629974365,0.5837999582290649,-1.7635999917984009
1682999245225058000,3.23905810546875,-0.4447999894618988,0.6854999661445618,-1.562999963760376
1682999245245056500,3.259056396484375,-0.5257999897003174,0.8781999945640564,-1.7807999849319458
1682999245265058000,3.27905810546875,-0.6854999661445618,0.8097999691963196,-2.1912999153137207
1682999245285058000,3.29905810546875,-0.7676999568939209,0.7741000056266785,-2.033400058746338
1682999245305058000,3.31905810546875,-0.6071000099182129,0.8015999794006348,-1.3488999605178833
1682999245325056500,3.339056396484375,-0.3610999882221222,0.8215000033378601,-0.6164999604225159
1682999245345058000,3.35905810546875,-0.20499999821186066,0.9483000040054321,-0.06309999525547028
1682999245365058000,3.37905810546875,-0.2395000010728836,0.9018999934196472,-0.34360000491142273
1682999245385058000,3.39905810546875,-0.16409999132156372,0.471699982881546,-0.8816999793052673
1682999245405058000,3.41905810546875,0.009200000204145908,-0.08739999681711197,0.05429999902844429
1682999245425058000,3.43905810546875,0.579800009727478,-0.3553999960422516,1.9891999959945679
1682999245445058000,3.45905810546875,1.0901999473571777,-0.4047999978065491,3.6549999713897705
1682999245465058000,3.47905810546875,1.1292999982833862,-0.618399977684021,4.071099758148193
1682999245485058000,3.49905810546875,0.9908999800682068,-0.9359999895095825,3.5371999740600586
1682999245505058000,3.51905810546875,1.0634000301361084,-1.3579000234603882,2.9607999324798584
1682999245525056500,3.539056396484375,1.2315999269485474,-1.6054999828338623,3.1504998207092285
1682999245545058000,3.55905810546875,1.3034999370574951,-1.6466999053955078,3.697999954223633
1682999245565058000,3.57905810546875,1.0958999395370483,-1.3183000087738037,3.5764999389648438
1682999245585058000,3.59905810546875,0.7304999828338623,-0.9708999991416931,3.014400005340576
1682999245605058000,3.61905810546875,0.45509999990463257,-0.7002999782562256,1.9753999710083008
1682999245625056500,3.639056396484375,0.07849999517202377,-0.5611000061035156,1.0073000192642212
1682999245645058000,3.65905810546875,-0.1973000019788742,-0.3937999904155731,0.3033999800682068
1682999245665058000,3.67905810546875,-0.18129999935626984,-0.28299999237060547,-0.34289997816085815
1682999245685058000,3.69905810546875,-0.15219999849796295,-0.251800000667572,-0.8624999523162842
1682999245705058000,3.71905810546875,-0.24279999732971191,-0.16499999165534973,-1.2343000173568726
1682999245725058000,3.73905810546875,-0.45649999380111694,-0.054899998009204865,-1.5556999444961548
1682999245745058000,3.75905810546875,-0.6547999978065491,-0.07849999517202377,-1.809999942779541
1682999245765058000,3.77905810546875,-0.7558000087738037,-0.15559999644756317,-1.7445999383926392
1682999245785058000,3.79905810546875,-0.5575999617576599,-0.2687000036239624,-1.7490999698638916
1682999245805058000,3.81905810546875,0.02159999869763851,-0.35749998688697815,-1.458799958229065
1682999245825058000,3.83905810546875,0.620199978351593,-0.28459998965263367,-1.3643999099731445
1682999245845058000,3.85905810546875,0.7217999696731567,-0.3353999853134155,-1.4375
1682999245865058000,3.87905810546875,0.6687999963760376,-0.34459999203681946,-1.6584999561309814
1682999245885058000,3.89905810546875,0.6150000095367432,-0.3878999948501587,-1.653899908065796
1682999245905058000,3.91905810546875,0.7428999543190002,-0.2768000066280365,-1.4910999536514282
1682999245925058000,3.93905810546875,0.7798999547958374,-0.08879999816417694,-1.4271999597549438
1682999245945058000,3.95905810546875,0.6169999837875366,0.07989999651908875,-1.501599907875061
1682999245965058000,3.97905810546875,0.5146999955177307,0.2549000084400177,-1.7120000123977661
1682999245985056500,3.999056396484375,0.5509999990463257,0.35899999737739563,-1.569599986076355
1682999246005058000,4.01905810546875,0.6833999752998352,0.5151000022888184,-1.7486000061035156
1682999246025056500,4.039056396484375,0.3465999960899353,0.7572000026702881,-1.9950000047683716
1682999246045058000,4.05905810546875,0.02719999849796295,0.9036999940872192,-2.1427998542785645
1682999246065058000,4.07905810546875,-0.3619000017642975,1.0648999214172363,-1.9261999130249023
1682999246085058000,4.09905810546875,-0.5250999927520752,0.7973999977111816,-0.24879999458789825
1682999246105058000,4.11905810546875,-0.22019998729228973,0.3091999888420105,2.1986000537872314
1682999246125056500,4.139056396484375,0.059699997305870056,0.20179998874664307,3.720399856567383
1682999246145058000,4.15905810546875,0.357699990272522,-0.2979999780654907,4.072000026702881
1682999246165058000,4.17905810546875,0.886199951171875,-0.6394000053405762,4.633299827575684
1682999246185058000,4.19905810546875,0.9147999882698059,-0.6495999693870544,3.8232998847961426
1682999246205058000,4.21905810546875,0.6098999977111816,-1.3572999238967896,3.5394999980926514
1682999246225058000,4.23905810546875,0.3181999921798706,-1.4696999788284302,3.850299835205078
1682999246245056500,4.259056396484375,0.14159999787807465,-1.1310999393463135,3.1220998764038086
1682999246265056500,4.279056396484375,-0.23589999973773956,-0.748699963092804,2.063499927520752
1682999246285058000,4.29905810546875,-0.35189998149871826,-0.6484000086784363,1.878499984741211
1682999246305058000,4.31905810546875,-0.3253999948501587,-0.31189998984336853,1.427899956703186
1682999246325056500,4.339056396484375,-0.5126000046730042,-0.08630000054836273,0.8202999830245972
1682999246345058000,4.35905810546875,-0.7922999858856201,-0.08049999922513962,-0.1200999990105629
1682999246365058000,4.37905810546875,-0.8794999718666077,-0.14010000228881836,-1.389799952507019
1682999246385058000,4.39905810546875,-0.7021999955177307,-0.23959998786449432,-2.1634998321533203
1682999246405058000,4.41905810546875,-0.2979999780654907,-0.0925000011920929,-2.259899854660034
1682999246425058000,4.43905810546875,-0.1533999890089035,0.07449999451637268,-2.126800060272217
1682999246445058000,4.45905810546875,-0.24049998819828033,0.38349997997283936,-1.980199933052063
1682999246465058000,4.47905810546875,-0.6419000029563904,0.6295999884605408,-1.650399923324585
1682999246485058000,4.49905810546875,-0.9805999994277954,0.7754999995231628,-1.7781000137329102
1682999246505058000,4.51905810546875,-1.0770999193191528,0.8245999813079834,-2.27620005607605
1682999246525056500,4.539056396484375,-1.3036999702453613,0.8574999570846558,-2.8620998859405518
1682999246545058000,4.55905810546875,-1.212899923324585,0.8466999530792236,-3.162599802017212
1682999246565058000,4.57905810546875,-0.7998999953269958,0.998699963092804,-3.0207998752593994
1682999246585058000,4.59905810546875,-0.4781000018119812,1.098099946975708,-2.371799945831299
1682999246605058000,4.61905810546875,-0.491599977016449,1.1517000198364258,-1.6851999759674072
1682999246625056500,4.639056396484375,-0.33059999346733093,1.0931999683380127,-1.2443000078201294
1682999246645058000,4.65905810546875,-0.11769999563694,1.0343999862670898,-0.8793999552726746
1682999246665058000,4.67905810546875,-0.20919999480247498,0.7831000089645386,-0.7178999781608582
1682999246685058000,4.69905810546875,-0.10749999433755875,0.23829999566078186,-0.07090000063180923
1682999246705058000,4.71905810546875,0.7242000102996826,-0.22419999539852142,2.1440000534057617
1682999246725058000,4.73905810546875,1.5836999416351318,-0.12549999356269836,4.803599834442139
1682999246745056500,4.759056396484375,1.292799949645996,-0.11949999630451202,5.920599937438965
1682999246765058000,4.77905810546875,0.34109997749328613,-0.27399998903274536,4.356400012969971
1682999246785058000,4.79905810546875,0.20799998939037323,-1.2015999555587769,2.9951999187469482
1682999246805058000,4.81905810546875,1.7547999620437622,-2.6159000396728516,4.2500996589660645
1682999246825056500,4.839056396484375,2.7481000423431396,-1.7738999128341675,5.452499866485596
1682999246845058000,4.85905810546875,2.1101999282836914,-1.5551999807357788,5.1703996658325195
1682999246865058000,4.87905810546875,0.17649999260902405,-1.0132999420166016,2.0911998748779297
1682999246885058000,4.89905810546875,-1.2272999286651611,-0.7512999773025513,-0.560699999332428
1682999246905058000,4.91905810546875,-0.7483999729156494,-1.1590999364852905,-0.8109999895095825
1682999246925058000,4.93905810546875,-0.1492999941110611,-0.9789999723434448,-0.13169999420642853
1682999246945058000,4.95905810546875,0.04779999703168869,-0.48899999260902405,-0.11259999871253967
1682999246965058000,4.97905810546875,-0.17880000174045563,0.09749999642372131,-0.6718999743461609
1682999246985056500,4.999056396484375,-0.23119999468326569,0.056199997663497925,-1.3095999956130981
1682999247005058000,5.01905810546875,-0.19039998948574066,-0.19349999725818634,-1.542099952697754
1682999247025056500,5.039056396484375,-0.24959999322891235,-0.4530999958515167,-1.3817999362945557
1682999247045058000,5.05905810546875,-0.2572999894618988,-0.29789999127388,-1.2731000185012817
1682999247065058000,5.07905810546875,-0.00009999999747378752,-0.10269999504089355,-1.1543999910354614
1682999247085058000,5.09905810546875,0.2727999985218048,0.02319999970495701,-1.5996999740600586
1682999247105058000,5.11905810546875,0.4197999835014343,-0.07429999858140945,-1.9923999309539795
1682999247125056500,5.139056396484375,0.6624000072479248,-0.14379999041557312,-1.864799976348877
1682999247145058000,5.15905810546875,0.7418000102043152,-0.03439999744296074,-1.7869999408721924
1682999247165058000,5.17905810546875,0.8300999999046326,0.11029999703168869,-1.7085999250411987
1682999247185058000,5.19905810546875,0.9178999662399292,0.3520999848842621,-1.8062999248504639
1682999247205058000,5.21905810546875,0.6432999968528748,0.5712000131607056,-1.921199917793274
1682999247225058000,5.23905810546875,0.09519999474287033,0.7378000020980835,-2.2010998725891113
1682999247245059600,5.2590595703125,-0.22450000047683716,0.9467999935150146,-2.8701999187469482
1682999247265058000,5.27905810546875,-0.6015999913215637,0.8789999485015869,-3.027400016784668
1682999247285059600,5.2990595703125,-0.7863999605178833,0.4827999770641327,-2.0534000396728516
1682999247305058000,5.31905810546875,-0.4253000020980835,0.032999999821186066,0.06430000066757202
1682999247325056500,5.339056396484375,0.7419999837875366,-0.14890000224113464,2.7072999477386475
1682999247345061000,5.35906103515625,2.321499824523926,-0.35819998383522034,4.481100082397461
1682999247365058000,5.37905810546875,2.895900011062622,-0.6358999609947205,4.49970006942749
1682999247385058000,5.39905810546875,2.4047999382019043,-1.069000005722046,3.935999870300293
1682999247405058000,5.41905810546875,1.4427999258041382,-2.021699905395508,3.873999834060669
1682999247425058000,5.43905810546875,0.5430999994277954,-2.4839999675750732,4.095999717712402
1682999247445058000,5.45905810546875,-0.004799999762326479,-2.1217000484466553,3.4445998668670654
1682999247465058000,5.47905810546875,-0.699400007724762,-1.4395999908447266,1.996899962425232
1682999247485058000,5.49905810546875,-1.4038000106811523,-0.9334999918937683,0.7579999566078186
1682999247505058000,5.51905810546875,-1.3394999504089355,-0.8190999627113342,0.9310999512672424
1682999247525056500,5.539056396484375,-1.1237999200820923,-0.6487999558448792,1.375
1682999247545058000,5.55905810546875,-0.7035999894142151,-0.22379998862743378,1.3287999629974365
1682999247565058000,5.57905810546875,-0.5065000057220459,0.12999999523162842,0.7773000001907349
1682999247585058000,5.59905810546875,-0.8296999931335449,0.1784999966621399,-0.12929999828338623
1682999247605058000,5.61905810546875,-1.180299997329712,0.12119999527931213,-1.0341999530792236
1682999247625056500,5.639056396484375,-1.458899974822998,-0.04209999740123749,-1.2289999723434448
1682999247645058000,5.65905810546875,-1.3068000078201294,0.14970000088214874,-0.8156999945640564
1682999247665056500,5.679056396484375,-1.06659996509552,0.34599998593330383,-0.7574999928474426
1682999247685058000,5.69905810546875,-0.9003999829292297,0.49449998140335083,-1.018899917602539
1682999247705058000,5.71905810546875,-0.8955999612808228,0.37039998173713684,-1.4704999923706055
1682999247725058000,5.73905810546875,-0.8136999607086182,0.210999995470047,-1.5565999746322632
1682999247745056500,5.759056396484375,-0.5748999714851379,0.2911999821662903,-1.4880999326705933
1682999247765058000,5.77905810546875,-0.36890000104904175,0.5351999998092651,-1.518899917602539
1682999247785058000,5.79905810546875,-0.6717999577522278,0.7321999669075012,-1.7360999584197998
1682999247805058000,5.81905810546875,-0.9321999549865723,0.8960999846458435,-2.1749000549316406
1682999247825056500,5.839056396484375,-1.0763999223709106,0.9220999479293823,-2.3559000492095947
1682999247845058000,5.85905810546875,-1.2736999988555908,0.8950999975204468,-2.5678000450134277
1682999247865058000,5.87905810546875,-1.1746000051498413,0.896399974822998,-2.446899890899658
1682999247885056500,5.899056396484375,-0.8432999849319458,0.9401999711990356,-1.8787999153137207
1682999247905058000,5.91905810546875,-0.3292999863624573,1.1431999206542969,-1.4688999652862549
1682999247925058000,5.93905810546875,-0.005200000014156103,1.2146999835968018,-1.303399920463562
1682999247945058000,5.95905810546875,0.3227999806404114,1.0102999210357666,-0.9973999857902527
1682999247965058000,5.97905810546875,0.5649999976158142,0.7242000102996826,0.5163999795913696
1682999247985056500,5.999056396484375,1.0986000299453735,0.555899977684021,2.6218998432159424
1682999248005058000,6.01905810546875,1.486799955368042,0.41339999437332153,4.202199935913086
1682999248025056500,6.039056396484375,1.3382999897003174,0.3109999895095825,4.427499771118164
1682999248045058000,6.05905810546875,1.1490999460220337,0.009599999524652958,3.624199867248535
1682999248065058000,6.07905810546875,1.4565999507904053,-0.877299964427948,3.546599864959717
1682999248085058000,6.09905810546875,1.9952999353408813,-1.6761999130249023,4.7204999923706055
1682999248105058000,6.11905810546875,1.919600009918213,-1.6409000158309937,4.803699970245361
1682999248125056500,6.139056396484375,0.7555999755859375,-1.3931000232696533,2.720099925994873
1682999248145058000,6.15905810546875,0.16030000150203705,-1.6008999347686768,1.2517999410629272
1682999248165058000,6.17905810546875,0.5015000104904175,-1.5830999612808228,0.6290000081062317
1682999248185058000,6.19905810546875,0.6567999720573425,-1.2714999914169312,0.00699999975040555
1682999248205058000,6.21905810546875,0.5112999677658081,-1.0228999853134155,-0.30379998683929443
1682999248225056500,6.239056396484375,0.33319997787475586,-0.762999951839447,-0.3929999768733978
1682999248245056500,6.259056396484375,0.11869999766349792,-0.48649999499320984,-0.597599983215332
1682999248265058000,6.27905810546875,-0.23539999127388,-0.2069000005722046,-0.673799991607666
1682999248285058000,6.29905810546875,-0.8233000040054321,-0.22360000014305115,-0.9077999591827393
1682999248305058000,6.31905810546875,-0.9160999655723572,-0.3946000039577484,-1.2907999753952026
1682999248325056500,6.339056396484375,-0.33809998631477356,-0.40119999647140503,-1.4958999156951904
1682999248345058000,6.35905810546875,0.11389999836683273,-0.2125999927520752,-1.3184999227523804
1682999248365058000,6.37905810546875,0.03669999912381172,-0.007999999448657036,-1.3202999830245972
1682999248385058000,6.39905810546875,-0.13529999554157257,0.03839999809861183,-1.6568999290466309
1682999248405058000,6.41905810546875,0.002099999925121665,0.013899999670684338,-1.7278000116348267
1682999248425058000,6.43905810546875,0.46449998021125793,0.16380000114440918,-1.4160000085830688
1682999248445058000,6.45905810546875,0.48510000109672546,0.482699990272522,-1.4006999731063843
1682999248465058000,6.47905810546875,0.17569999396800995,0.6190999746322632,-1.6904999017715454
1682999248485058000,6.49905810546875,-0.20509999990463257,0.7675999999046326,-2.097599983215332
1682999248505058000,6.51905810546875,-0.46399998664855957,0.842799961566925,-2.6679999828338623
1682999248525056500,6.539056396484375,-0.6398000121116638,0.8464999794960022,-3.136899948120117
1682999248545058000,6.55905810546875,-0.7040999531745911,0.8514999747276306,-3.0279998779296875
1682999248565058000,6.57905810546875,-0.5821999907493591,0.7910000085830688,-2.3646998405456543
1682999248585058000,6.59905810546875,0.1809999942779541,0.6104999780654907,-0.6653000116348267
1682999248605058000,6.61905810546875,1.292699933052063,0.20719999074935913,2.246799945831299
1682999248625056500,6.639056396484375,2.4247000217437744,-0.13830000162124634,5.046599864959717
1682999248645058000,6.65905810546875,2.909099817276001,-0.1906999945640564,5.853399753570557
1682999248665058000,6.67905810546875,2.1995999813079834,-0.24199999868869781,3.684499979019165
1682999248685058000,6.69905810546875,0.8596000075340271,-0.7712999582290649,1.7207999229431152
1682999248705058000,6.71905810546875,-0.04399999976158142,-2.123699903488159,2.349799871444702
1682999248725058000,6.73905810546875,-0.3310000002384186,-2.4006998538970947,4.6219000816345215
1682999248745056500,6.759056396484375,-0.5692999958992004,-1.441499948501587,4.803100109100342
1682999248765058000,6.77905810546875,-1.4031000137329102,-0.8226000070571899,2.7919998168945312
1682999248785058000,6.79905810546875,-1.3199999332427979,-0.9012999534606934,0.6768999695777893
1682999248805058000,6.81905810546875,-1.2276999950408936,-0.9363999962806702,-0.4136999845504761
1682999248825056500,6.839056396484375,-1.4747999906539917,-0.8718999624252319,-0.47509998083114624
1682999248845058000,6.85905810546875,-1.2862999439239502,-0.41040000319480896,0.3018999993801117
1682999248865058000,6.87905810546875,-0.7322999835014343,0.33239999413490295,0.6047999858856201
1682999248885058000,6.89905810546875,-0.17090000212192535,0.8170999884605408,0.3237999975681305
1682999248905058000,6.91905810546875,0.034699998795986176,0.9196999669075012,-0.5394999980926514
1682999248925058000,6.93905810546875,-0.17090000212192535,0.7730000019073486,-1.1043999195098877
1682999248945058000,6.95905810546875,-0.6916999816894531,0.676800012588501,-1.3114999532699585
1682999248965058000,6.97905810546875,-1.1452999114990234,0.6627999544143677,-1.1800999641418457
1682999248985058000,6.99905810546875,-1.148800015449524,0.652899980545044,-1.0188000202178955
1682999249005058000,7.01905810546875,-0.7849000096321106,0.704800009727478,-1.1108999252319336
1682999249025056500,7.039056396484375,-0.5112999677658081,0.7390999794006348,-1.3394999504089355
1682999249045058000,7.05905810546875,-0.5397999882698059,0.7515000104904175,-1.4412000179290771
1682999249065058000,7.07905810546875,-0.691100001335144,0.932699978351593,-1.445599913597107
1682999249085058000,7.09905810546875,-0.7421999573707581,1.1186000108718872,-1.2343999147415161
1682999249105058000,7.11905810546875,-0.9786999821662903,1.223099946975708,-1.3033000230789185
1682999249125056500,7.139056396484375,-1.3172999620437622,1.2681999206542969,-1.663699984550476
1682999249145058000,7.15905810546875,-1.5348999500274658,1.1655999422073364,-2.0429999828338623
1682999249165058000,7.17905810546875,-1.6729999780654907,1.0455999374389648,-2.285799980163574
1682999249185058000,7.19905810546875,-1.3543000221252441,0.9921999573707581,-2.3633999824523926
1682999249205058000,7.21905810546875,-0.9630999565124512,1.110700011253357,-1.7279999256134033
1682999249225058000,7.23905810546875,-0.5149999856948853,0.9656999707221985,-1.0551999807357788
1682999249245056500,7.259056396484375,0.16259999573230743,0.4894999861717224,0.4316999912261963
1682999249265058000,7.27905810546875,0.9484999775886536,0.012000000104308128,2.7202999591827393
1682999249285058000,7.29905810546875,1.7774999141693115,-0.2915000021457672,4.304800033569336
1682999249305058000,7.31905810546875,2.0662999153137207,-0.5825999975204468,4.900199890136719
1682999249325056500,7.339056396484375,1.9952999353408813,-0.9134999513626099,4.525099754333496
1682999249345058000,7.35905810546875,1.5029000043869019,-1.1583999395370483,3.2562999725341797
1682999249365058000,7.37905810546875,0.7944999933242798,-1.410599946975708,1.857699990272522
1682999249385058000,7.39905810546875,-0.14469999074935913,-1.558899998664856,0.5375999808311462
1682999249405058000,7.41905810546875,0.09290000051259995,-1.9232999086380005,1.5898000001907349
1682999249425058000,7.43905810546875,0.5616999864578247,-1.531599998474121,3.987799882888794
1682999249445058000,7.45905810546875,0.6064000129699707,-0.8208999633789062,3.7376999855041504
1682999249465058000,7.47905810546875,0.04899999871850014,-0.42159998416900635,1.507099986076355
1682999249485058000,7.49905810546875,-0.17749999463558197,-0.5200999975204468,-0.007699999958276749
1682999249505058000,7.51905810546875,-0.05130000039935112,-0.4989999830722809,-0.46050000190734863
1682999249525056500,7.539056396484375,-0.36069998145103455,-0.4205999970436096,-0.4066999852657318
1682999249545058000,7.55905810546875,-0.6798999905586243,-0.3025999963283539,-0.5760999917984009
1682999249565058000,7.57905810546875,-0.6279000043869019,-0.16329999268054962,-0.9434999823570251
1682999249585058000,7.59905810546875,-0.44859999418258667,-0.09910000115633011,-1.3766999244689941
1682999249605058000,7.61905810546875,-0.35429999232292175,-0.2514999806880951,-1.6588000059127808
1682999249625056500,7.639056396484375,-0.5630999803543091,-0.25380000472068787,-1.8066999912261963
1682999249645058000,7.65905810546875,-0.6622999906539917,-0.22999998927116394,-1.5871999263763428
1682999249665058000,7.67905810546875,-0.6306999921798706,-0.057999998331069946,-1.2628999948501587
1682999249685056500,7.699056396484375,-0.4530999958515167,0.04349999874830246,-1.0460000038146973
1682999249705058000,7.71905810546875,-0.4696999788284302,0.1370999962091446,-1.1883000135421753
1682999249725058000,7.73905810546875,-0.3686999976634979,0.14259999990463257,-1.2110999822616577
1682999249745056500,7.759056396484375,-0.04609999805688858,0.218299999833107,-1.2918000221252441
1682999249765056500,7.779056396484375,0.2669999897480011,0.40549999475479126,-1.1588000059127808
1682999249785058000,7.79905810546875,0.5687999725341797,0.6748999953269958,-1.1253999471664429
1682999249805058000,7.81905810546875,0.612500011920929,0.7842999696731567,-1.2287999391555786
1682999249825056500,7.839056396484375,0.635699987411499,0.7293999791145325,-1.3497999906539917
1682999249845058000,7.85905810546875,0.5913000106811523,0.5910999774932861,-1.4179999828338623
1682999249865058000,7.87905810546875,0.19550000131130219,0.5805000066757202,-1.4646999835968018
1682999249885058000,7.89905810546875,-0.23579999804496765,0.4400999844074249,-1.0982999801635742
1682999249905059600,7.9190595703125,-0.1762000024318695,-0.0989999994635582,0.6601999998092651
1682999249925058000,7.93905810546875,0.26969999074935913,-0.6442999839782715,3.048799991607666
1682999249945058000,7.95905810546875,0.5803999900817871,-0.8722999691963196,4.511099815368652
1682999249965058000,7.97905810546875,0.5950999855995178,-1.1303999423980713,4.543699741363525
1682999249985058000,7.99905810546875,0.4065999984741211,-1.3199999332427979,3.7307000160217285
1682999250005058000,8.01905810546875,0.05939999967813492,-1.6022999286651611,3.101599931716919
1682999250025056500,8.039056396484375,-0.31540000438690186,-1.8120999336242676,2.962899923324585
1682999250045058000,8.05905810546875,-0.726099967956543,-1.7116999626159668,2.816999912261963
1682999250065058000,8.07905810546875,-1.2537000179290771,-1.472000002861023,1.8846999406814575
1682999250085058000,8.09905810546875,-1.531599998474121,-1.3229999542236328,0.9093999862670898
1682999250105058000,8.11905810546875,-1.4484999179840088,-1.250100016593933,0.6926000118255615
1682999250125056500,8.139056396484374,-1.2178000211715698,-0.9362999796867371,1.0993999242782593
1682999250145058000,8.15905810546875,-1.1654000282287598,-0.5712000131607056,1.6151999235153198
1682999250165058000,8.17905810546875,-1.0765999555587769,-0.42159998416900635,1.4794999361038208
1682999250185058000,8.19905810546875,-0.8786999583244324,-0.4553999900817871,0.6020999550819397
1682999250205058000,8.21905810546875,-0.8120999932289124,-0.5281000137329102,-0.4935999810695648
1682999250225058000,8.23905810546875,-0.9310999512672424,-0.4211999773979187,-1.2906999588012695
1682999250245056500,8.259056396484375,-1.1332999467849731,-0.2858999967575073,-1.803999900817871
1682999250265058000,8.27905810546875,-1.3939999341964722,-0.0543999969959259,-1.9586999416351318
1682999250285058000,8.29905810546875,-1.4284999370574951,0.044599998742341995,-1.7256999015808105
1682999250305058000,8.31905810546875,-0.9935999512672424,0.11309999972581863,-0.9372999668121338
1682999250325058000,8.33905810546875,-0.32009997963905334,0.4196999967098236,-0.27619999647140503
1682999250345058000,8.35905810546875,0.10119999945163727,0.8118000030517578,-0.22829999029636383
1682999250365058000,8.37905810546875,0.3594000041484833,1.1412999629974365,-0.5449999570846558
1682999250385058000,8.39905810546875,0.14270000159740448,1.3701000213623047,-0.2897000014781952
1682999250405056500,8.419056396484375,-0.39819997549057007,1.5496000051498413,0.34619998931884766
1682999250425061000,8.43906103515625,-1.0044000148773193,1.5750999450683594,0.9393999576568604
1682999250445061000,8.45906103515625,-1.3291999101638794,1.485700011253357,1.128499984741211
1682999250465059600,8.4790595703125,-1.0745999813079834,1.5126999616622925,1.2977999448776245
1682999250485058000,8.49905810546875,-0.6337000131607056,1.5321999788284302,1.5654000043869019
1682999250505058000,8.51905810546875,-0.23399999737739563,1.464900016784668,1.8326998949050903
1682999250525058000,8.53905810546875,-0.11539999395608902,1.154099941253662,1.7762999534606934
1682999250545058000,8.55905810546875,-0.1224999949336052,0.7253999710083008,1.5922999382019043
1682999250565058000,8.57905810546875,-0.2797999978065491,0.24779999256134033,1.3960999250411987
1682999250585058000,8.59905810546875,-0.11349999904632568,-0.15160000324249268,1.4376999139785767
1682999250605058000,8.61905810546875,-0.015799999237060547,-0.2149999886751175,1.9856998920440674
1682999250625056500,8.639056396484374,-0.10019999742507935,-0.15079998970031738,1.5822999477386475
1682999250645058000,8.65905810546875,-0.6319000124931335,-0.36169999837875366,0.30820000171661377
1682999250665058000,8.67905810546875,-0.7874999642372131,-0.9390999674797058,-0.5027999877929688
1682999250685058000,8.69905810546875,-0.6166999936103821,-1.3854999542236328,-0.3732999861240387
1682999250705058000,8.71905810546875,-0.828499972820282,-1.7180999517440796,0.026599999517202377
1682999250725058000,8.73905810546875,-1.0049999952316284,-1.8355000019073486,0.11899999529123306
1682999250745056500,8.759056396484375,-0.7616999745368958,-1.8624999523162842,0.22699999809265137
1682999250765058000,8.77905810546875,-0.2831999957561493,-1.7421000003814697,0.17899999022483826
1682999250785058000,8.79905810546875,0.298799991607666,-1.4634000062942505,0.13519999384880066
1682999250805058000,8.81905810546875,0.5252000093460083,-1.4053999185562134,0.3865000009536743
1682999250825056500,8.839056396484375,-0.027499999850988388,-1.5067999362945557,0.3125
1682999250845058000,8.85905810546875,-0.555400013923645,-1.617900013923645,-0.25849997997283936
1682999250865058000,8.87905810546875,-0.7010999917984009,-1.5571999549865723,-0.885699987411499
1682999250885058000,8.89905810546875,-0.599399983882904,-1.371899962425232,-1.147499918937683
1682999250905058000,8.91905810546875,-0.48240000009536743,-1.250999927520752,-0.9784999489784241
1682999250925058000,8.93905810546875,-0.29899999499320984,-1.164199948310852,-0.5388999581336975
1682999250945058000,8.95905810546875,-0.09119999408721924,-1.1837999820709229,-0.18119999766349792
1682999250965058000,8.97905810546875,0.21599999070167542,-1.0119999647140503,-0.08829999715089798
1682999250985058000,8.99905810546875,0.5482000112533569,-0.8484999537467957,-0.148499995470047
1682999251005058000,9.01905810546875,0.5781999826431274,-0.5198999643325806,-0.3905999958515167
1682999251025056500,9.039056396484375,0.31929999589920044,-0.21739999949932098,-0.5626999735832214
1682999251045058000,9.05905810546875,0.18129999935626984,0.0722000002861023,-0.46050000190734863
1682999251065058000,9.07905810546875,0.0023999998811632395,0.35580000281333923,-0.3109000027179718
1682999251085058000,9.09905810546875,0.06069999933242798,0.56659996509552,-0.26919999718666077
1682999251105058000,9.11905810546875,0.2994000017642975,0.9596999883651733,-0.002300000051036477
1682999251125056500,9.139056396484374,0.5181999802589417,1.1658999919891357,0.30169999599456787
1682999251145058000,9.15905810546875,0.49889999628067017,1.2239999771118164,0.4196999967098236
1682999251165056500,9.179056396484375,0.5376999974250793,1.254699945449829,0.5200999975204468
1682999251185058000,9.19905810546875,0.46539998054504395,1.1310999393463135,0.7482999563217163
1682999251205058000,9.21905810546875,0.27070000767707825,0.9072999954223633,0.7487999796867371
1682999251225058000,9.23905810546875,0.19629999995231628,0.6054999828338623,0.39499998092651367
1682999251245056500,9.259056396484375,0.3596999943256378,0.42080000042915344,-0.0746999979019165
1682999251265058000,9.27905810546875,0.538599967956543,0.24300000071525574,-0.6583999991416931
1682999251285058000,9.29905810546875,0.7828999757766724,0.14389999210834503,-0.42639997601509094
1682999251305058000,9.31905810546875,1.1093999147415161,0.2329999953508377,0.35749998688697815
1682999251325056500,9.339056396484375,1.4613999128341675,0.598800003528595,1.0679999589920044
1682999251345056500,9.359056396484375,1.3456000089645386,0.8346999883651733,2.222399950027466
1682999251365056500,9.379056396484375,0.6678999662399292,0.7798999547958374,2.3488998413085938
1682999251385056500,9.399056396484376,0.008100000210106373,0.382099986076355,1.7146999835968018
1682999251405056500,9.419056396484375,-0.11479999870061874,0.08209999650716782,0.7895999550819397
1682999251425056500,9.439056396484375,-0.23759999871253967,-0.2724999785423279,0.025699999183416367
1682999251445056500,9.459056396484375,-0.5267999768257141,-0.5620999932289124,-0.5690000057220459
1682999251465056500,9.479056396484374,-0.8708999752998352,-0.7639999985694885,-0.4901999831199646
1682999251485056500,9.499056396484375,-1.042799949645996,-0.7416999936103821,-0.034299999475479126
1682999251505056500,9.519056396484375,-0.8070999979972839,-0.5029000043869019,0.352400004863739
1682999251525056500,9.539056396484375,-0.7986999750137329,-0.4068000018596649,0.543999969959259
1682999251545056500,9.559056396484374,-0.7871999740600586,-0.22289998829364777,0.6098999977111816
1682999251565056500,9.579056396484376,-0.9928999543190002,0.03579999879002571,0.529699981212616
1682999251585056500,9.599056396484375,-1.445099949836731,0.3337000012397766,0.20469999313354492
1682999251605056500,9.619056396484375,-1.8852999210357666,0.3815999925136566,-0.1111999973654747
1682999251625056500,9.639056396484374,-2.1201000213623047,0.37539997696876526,-0.37129998207092285
1682999251645056500,9.659056396484376,-1.8021999597549438,0.42739999294281006,-0.258899986743927
1682999251665056500,9.679056396484375,-1.5694999694824219,0.5360000133514404,-0.14659999310970306
1682999251685056500,9.699056396484375,-1.6217999458312988,0.5051999688148499,-0.10300000011920929
1682999251705056500,9.719056396484374,-1.7115999460220337,0.43879997730255127,-0.15850000083446503
1682999251725056500,9.739056396484376,-1.5815999507904053,0.38199999928474426,-0.19550000131130219
1682999251745056500,9.759056396484375,-1.292799949645996,0.4684000015258789,-0.2029999941587448
1682999251765056500,9.779056396484375,-1.1165999174118042,0.6505999565124512,0.24949999153614044
1682999251785056500,9.799056396484374,-0.9595999717712402,0.7835999727249146,0.4834999740123749
1682999251805056500,9.819056396484376,-0.7601000070571899,0.8497999906539917,0.4510999917984009
1682999251825056500,9.839056396484375,-0.7166999578475952,0.8019999861717224,0.2930999994277954
1682999251845056500,9.859056396484375,-0.7287999987602234,0.7723000049591064,0.12969999015331268
1682999251865056500,9.879056396484375,-0.6107000112533569,0.8822999596595764,0.28949999809265137
1682999251885056500,9.899056396484376,-0.5659999847412109,0.917199969291687,0.5532999634742737
1682999251905056500,9.919056396484375,-0.8797000050544739,0.8777999877929688,0.3836999833583832
1682999251925056500,9.939056396484375,-0.9950999617576599,0.8736000061035156,0.17679999768733978
1682999251945056500,9.959056396484375,-0.6990000009536743,0.7753999829292297,0.4017999768257141
1682999251965056500,9.979056396484374,-0.3473999798297882,0.5496999621391296,0.6935999989509583
1682999251985056500,9.999056396484375,-0.11800000071525574,0.13660000264644623,0.7904999852180481
1682999252005056500,10.019056396484375,0.2800999879837036,-0.3937000036239624,1.2425999641418457
1682999252025056500,10.039056396484375,0.9997999668121338,-0.5156999826431274,1.8509999513626099
1682999252045059600,10.0590595703125,0.983299970626831,-0.30309998989105225,2.0007998943328857
1682999252065058000,10.07905810546875,-0.08509999513626099,0.0616999976336956,1.0160999298095703
1682999252085061000,10.09906103515625,-1.2278000116348267,0.1762000024318695,-0.1322999894618988
1682999252105058000,10.11905810546875,-1.5383999347686768,0.18709999322891235,-0.48649999499320984
1682999252125056500,10.139056396484374,-1.2967000007629395,-0.011599999852478504,0.28669998049736023
1682999252145058000,10.15905810546875,-0.8743000030517578,-0.23510000109672546,1.5441999435424805
1682999252165058000,10.17905810546875,-0.47589999437332153,-0.20909999310970306,1.8621999025344849
1682999252185058000,10.19905810546875,-0.032899998128414154,-0.2296999990940094,1.3738999366760254
1682999252205058000,10.21905810546875,0.16929998993873596,-0.30699998140335083,0.38179999589920044
1682999252225058000,10.23905810546875,0.19829998910427094,-0.4772000014781952,0.14190000295639038
1682999252245056500,10.259056396484375,0.12269999831914902,-0.46889999508857727,0.290800005197525
1682999252265058000,10.27905810546875,-0.4000999927520752,-0.37790000438690186,0.2069000005722046
1682999252285058000,10.29905810546875,-0.8264999985694885,-0.03189999982714653,-0.1046999990940094
1682999252305058000,10.31905810546875,-1.0662999153137207,0.20419999957084656,-0.520799994468689
1682999252325056500,10.339056396484375,-1.126099944114685,0.2653000056743622,-0.9027000069618225
1682999252345056500,10.359056396484375,-1.2002999782562256,0.19409999251365662,-1.1787999868392944
1682999252365059600,10.3790595703125,-0.9632999897003174,0.15719999372959137,-1.0677999258041382
1682999252385059600,10.3990595703125,-0.5819000005722046,0.17989999055862427,-0.7944999933242798
1682999252405059600,10.4190595703125,-0.2660999894142151,0.19290000200271606,-0.6394999623298645
1682999252425059600,10.4390595703125,-0.06729999929666519,0.14079999923706055,-0.6787999868392944
1682999252445059600,10.4590595703125,0.017799999564886093,0.02449999935925007,-0.7929999828338623
1682999252465058000,10.47905810546875,-0.10639999806880951,-0.02149999886751175,-1.0049999952316284
1682999252485059600,10.4990595703125,-0.33229997754096985,-0.024399999529123306,-1.2681999206542969
1682999252505059600,10.5190595703125,-0.47119998931884766,-0.09160000085830688,-1.7667999267578125
1682999252525056500,10.539056396484375,-0.5891000032424927,-0.20709998905658722,-2.3415000438690186
1682999252545059600,10.5590595703125,-0.4065999984741211,-0.1598999947309494,-2.6301000118255615
1682999252565059600,10.5790595703125,-0.16419999301433563,-0.006899999920278788,-2.370800018310547
1682999252585058000,10.59905810546875,-0.03460000082850456,0.3043999969959259,-2.150899887084961
1682999252605059600,10.6190595703125,-0.09219999611377716,0.5303999781608582,-2.195199966430664
1682999252625059600,10.6390595703125,-0.20499999821186066,0.5478000044822693,-2.2871999740600586
1682999252645059600,10.6590595703125,-0.30469998717308044,0.48489999771118164,-2.122799873352051
1682999252665059600,10.6790595703125,-0.2557999789714813,0.48330000042915344,-1.742799997329712
1682999252685058000,10.69905810546875,-0.2401999980211258,0.562999963760376,-1.2561999559402466
1682999252705058000,10.71905810546875,-0.3236999809741974,0.5432999730110168,-0.4260999858379364
1682999252725058000,10.73905810546875,0.05139999836683273,0.33489999175071716,1.1887999773025513
1682999252745059600,10.7590595703125,0.7263999581336975,-0.0705999955534935,3.4570999145507812
1682999252765059600,10.7790595703125,1.4498000144958496,-0.7777000069618225,5.114699840545654
1682999252785059600,10.7990595703125,1.4117999076843262,-0.9532999992370605,5.3090996742248535
1682999252805058000,10.81905810546875,0.9301999807357788,-0.5339999794960022,4.441699981689453
1682999252825058000,10.83905810546875,0.3166999816894531,-0.40829998254776,3.3148999214172363
1682999252845058000,10.85905810546875,0.17069999873638153,-0.8285999894142151,4.451299667358398
1682999252865061000,10.87906103515625,0.2078000009059906,-0.7858999967575073,5.911200046539307
1682999252885059600,10.8990595703125,-0.13539999723434448,-0.20839999616146088,4.257599830627441
1682999252905058000,10.91905810546875,-1.0145999193191528,-0.04879999905824661,1.4297000169754028
1682999252925061000,10.93906103515625,-1.1697999238967896,-0.08590000122785568,-0.460999995470047
1682999252945061000,10.95906103515625,-1.1996999979019165,-0.03350000083446503,-1.152400016784668
1682999252965058000,10.97905810546875,-1.6236999034881592,0.186599999666214,-1.1900999546051025
1682999252985058000,10.99905810546875,-1.6869999170303345,0.5178999900817871,-1.0073999166488647
1682999253005059600,11.0190595703125,-1.6650999784469604,0.6782000064849854,-0.9390999674797058
1682999253025059600,11.0390595703125,-1.2215999364852905,0.5805000066757202,-1.101099967956543
1682999253045059600,11.0590595703125,-0.6625999808311462,0.3346000015735626,-1.4142999649047852
1682999253065061000,11.07906103515625,-0.34540000557899475,0.1736999899148941,-1.8143999576568604
1682999253085061000,11.09906103515625,-0.5156999826431274,0.19990000128746033,-2.1294000148773193
1682999253105059600,11.1190595703125,-1.094099998474121,0.40389999747276306,-2.4158999919891357
1682999253125058000,11.13905810546875,-1.5579999685287476,0.491599977016449,-2.3092000484466553
1682999253145058000,11.15905810546875,-1.5627999305725098,0.6317999958992004,-1.8707998991012573
1682999253165058000,11.17905810546875,-1.2659999132156372,0.9030999541282654,-1.7380999326705933
1682999253185059600,11.1990595703125,-1.1550999879837036,1.0339000225067139,-1.7330999374389648
1682999253205059600,11.2190595703125,-1.0561000108718872,1.0949000120162964,-2.1180999279022217
1682999253225058000,11.23905810546875,-1.1420999765396118,0.9585999846458435,-2.499300003051758
1682999253245056500,11.259056396484375,-1.204800009727478,0.8949999809265137,-2.820499897003174
1682999253265058000,11.27905810546875,-1.2878999710083008,0.9508999586105347,-3.315999984741211
1682999253285058000,11.29905810546875,-1.176900029182434,0.666700005531311,-2.9972000122070312
1682999253305058000,11.31905810546875,-0.8278999924659729,0.3091999888420105,-1.0343999862670898
1682999253325056500,11.339056396484375,0.17819999158382416,-0.09809999912977219,2.576200008392334
1682999253345056500,11.359056396484375,1.354699969291687,-0.23809999227523804,5.30649995803833
1682999253365058000,11.37905810546875,2.2757999897003174,-0.5788999795913696,6.25469970703125
1682999253385058000,11.39905810546875,2.401599884033203,-1.083899974822998,5.610300064086914
1682999253405058000,11.41905810546875,2.751999855041504,-1.827799916267395,5.6327996253967285
1682999253425058000,11.43905810546875,2.597599983215332,-2.0660998821258545,6.657299995422363
1682999253445058000,11.45905810546875,1.9687999486923218,-1.4292999505996704,6.24970006942749
1682999253465058000,11.47905810546875,0.6477000117301941,-0.9357999563217163,3.8529999256134033
1682999253485056500,11.499056396484375,0.14000000059604645,-0.9010999798774719,1.5317999124526978
1682999253505059600,11.5190595703125,0.49289998412132263,-0.8858000040054321,-0.27799999713897705
1682999253525059600,11.5390595703125,0.4388999938964844,-0.49379998445510864,-1.553299903869629
1682999253545059600,11.5590595703125,-0.22699999809265137,-0.01939999870955944,-1.6234999895095825
1682999253565059600,11.5790595703125,-0.5956999659538269,0.3775999844074249,-0.9052000045776367
1682999253585059600,11.5990595703125,-0.8446999788284302,0.7680000066757202,-0.5181999802589417
1682999253605059600,11.6190595703125,-0.9218999743461609,0.9483999609947205,-0.8726999759674072
1682999253625056500,11.639056396484374,-0.7020999789237976,0.7365999817848206,-1.6820999383926392
1682999253645059600,11.6590595703125,-0.26159998774528503,0.4601999819278717,-2.0864999294281006
1682999253665058000,11.67905810546875,-0.006000000052154064,0.34950000047683716,-2.197399854660034
1682999253685058000,11.69905810546875,-0.07440000027418137,0.13169999420642853,-2.1540000438690186
1682999253705059600,11.7190595703125,-0.016499999910593033,0.02459999918937683,-2.1912999153137207
1682999253725059600,11.7390595703125,0.15029999613761902,-0.10319999605417252,-2.346299886703491
1682999253745059600,11.7590595703125,0.36579999327659607,-0.21739999949932098,-2.5672998428344727
1682999253765059600,11.7790595703125,0.20109999179840088,-0.2595999836921692,-2.600100040435791
1682999253785059600,11.7990595703125,-0.05929999798536301,-0.32979997992515564,-2.317199945449829
1682999253805059600,11.8190595703125,0.09070000052452087,-0.28619998693466187,-1.7910000085830688
1682999253825059600,11.8390595703125,0.29569998383522034,0.026099998503923416,-1.7755999565124512
1682999253845059600,11.8590595703125,0.03779999911785126,0.35269999504089355,-2.4831998348236084
1682999253865059600,11.8790595703125,-0.44339999556541443,0.5426999926567078,-2.5493998527526855
1682999253885058000,11.89905810546875,-0.2895999848842621,0.4377000033855438,-1.5068999528884888
1682999253905058000,11.91905810546875,0.38099998235702515,0.2590999901294708,0.8044999837875366
1682999253925058000,11.93905810546875,1.0223000049591064,0.027899999171495438,3.5289998054504395
1682999253945058000,11.95905810546875,1.501099944114685,-0.13300000131130219,5.799900054931641
1682999253965058000,11.97905810546875,1.791599988937378,-0.19059999287128448,6.00600004196167
1682999253985058000,11.99905810546875,1.5384999513626099,-0.29490000009536743,4.013000011444092
1682999254005058000,12.01905810546875,1.3421999216079712,-0.8866999745368958,3.6903998851776123
1682999254025056500,12.039056396484375,0.6732999682426453,-1.3229999542236328,4.5295000076293945
1682999254045058000,12.05905810546875,-0.39389997720718384,-1.2069000005722046,3.5894999504089355
1682999254065058000,12.07905810546875,-1.4089999198913574,-1.0326999425888062,2.2269999980926514
1682999254085058000,12.09905810546875,-1.3686999082565308,-0.763700008392334,1.40749990940094
1682999254105059600,12.1190595703125,-1.2283999919891357,-0.42800000309944153,0.562999963760376
1682999254125059600,12.1390595703125,-1.2621999979019165,-0.00039999998989515007,0.23569999635219574
1682999254145059600,12.1590595703125,-1.4027999639511108,0.2547999918460846,0.251800000667572
1682999254165058000,12.17905810546875,-1.3438999652862549,0.37959998846054077,0.10569999366998672
1682999254185059600,12.1990595703125,-1.0246000289916992,0.555400013923645,-0.1665000021457672
1682999254205059600,12.2190595703125,-0.6956999897956848,0.6836999654769897,-0.7968999743461609
1682999254225058000,12.23905810546875,-0.6577000021934509,0.5899999737739563,-1.4430999755859375
1682999254245056500,12.259056396484375,-0.8976999521255493,0.47839999198913574,-1.8360999822616577
1682999254265058000,12.27905810546875,-1.0816999673843384,0.4739999771118164,-2.2307000160217285
1682999254285059600,12.2990595703125,-1.1144999265670776,0.531499981880188,-2.390699863433838
1682999254305059600,12.3190595703125,-0.9941999912261963,0.5620999932289124,-2.3066999912261963
1682999254325056500,12.339056396484375,-0.7427999973297119,0.43140000104904175,-2.1647000312805176
1682999254345056500,12.359056396484375,-0.3199000060558319,0.40119999647140503,-1.817699909210205
1682999254365058000,12.37905810546875,-0.11459999531507492,0.6509999632835388,-1.7346999645233154
1682999254385058000,12.39905810546875,-0.31459999084472656,0.9639999866485596,-1.9799000024795532
1682999254405058000,12.41905810546875,-0.9373999834060669,0.9493999481201172,-2.574199914932251
1682999254425058000,12.43905810546875,-1.2811999320983887,0.682699978351593,-3.0874998569488525
1682999254445058000,12.45905810546875,-1.268399953842163,0.4139999747276306,-3.0306999683380127
1682999254465058000,12.47905810546875,-0.9891999959945679,0.39399999380111694,-2.6819000244140625
1682999254485058000,12.49905810546875,-0.8540999889373779,0.4790000021457672,-2.586099863052368
1682999254505058000,12.51905810546875,-0.9071999788284302,0.4843999743461609,-2.661799907684326
1682999254525056500,12.539056396484375,-0.2451999932527542,0.014800000004470348,-1.57069993019104
1682999254545059600,12.5590595703125,1.027899980545044,-0.7421000003814697,1.7852998971939087
1682999254565058000,12.57905810546875,2.231099843978882,-0.7911999821662903,5.427499771118164
1682999254585058000,12.59905810546875,2.3496999740600586,-0.5673999786376953,7.136600017547607
1682999254605058000,12.61905810546875,1.5130000114440918,-0.20600000023841858,6.503599643707275
1682999254625056500,12.639056396484374,1.503499984741211,-0.5636000037193298,4.805999755859375
1682999254645059600,12.6590595703125,2.7194998264312744,-1.4240999221801758,6.183899879455566
1682999254665056500,12.679056396484375,2.41759991645813,-1.539699912071228,6.379799842834473
1682999254685058000,12.69905810546875,1.037500023841858,-1.2609999179840088,3.3546998500823975
1682999254705058000,12.71905810546875,-0.3538999855518341,-1.1419999599456787,1.1639000177383423
1682999254725058000,12.73905810546875,-0.04939999803900719,-0.9045999646186829,0.2587999999523163
1682999254745056500,12.759056396484375,0.02719999849796295,-0.2175999879837036,0.5667999982833862
1682999254765058000,12.77905810546875,-0.22759999334812164,0.7048999667167664,1.4812999963760376
1682999254785058000,12.79905810546875,-0.9214999675750732,1.430400013923645,1.5305999517440796
1682999254805058000,12.81905810546875,-1.702299952507019,1.5504999160766602,1.0641999244689941
1682999254825056500,12.839056396484375,-1.6818000078201294,1.2950999736785889,-0.023000000044703484
1682999254845058000,12.85905810546875,-1.3001999855041504,0.8888999819755554,-1.3492999076843262
1682999254865058000,12.87905810546875,-1.2680000066757202,0.4513999819755554,-2.1253998279571533
1682999254885058000,12.89905810546875,-1.581299901008606,0.053700000047683716,-2.692699909210205
1682999254905058000,12.91905810546875,-1.483699917793274,-0.11889999359846115,-2.78629994392395
1682999254925061000,12.93906103515625,-1.0490999221801758,-0.07669999450445175,-2.9512999057769775
1682999254945058000,12.95905810546875,-0.3111000061035156,-0.013499999418854713,-2.809199810028076
1682999254965058000,12.97905810546875,0.14559999108314514,0.019099999219179153,-2.4937000274658203
1682999254985058000,12.99905810546875,0.4673999845981598,0.023599999025464058,-2.202899932861328
1682999255005058000,13.01905810546875,0.5325999855995178,-0.026999998837709427,-2.1960999965667725
1682999255025056500,13.039056396484375,0.6486999988555908,0.007400000002235174,-2.4010000228881836
1682999255045058000,13.05905810546875,0.7768999934196472,0.09279999881982803,-2.7490999698638916
1682999255065058000,13.07905810546875,0.33059999346733093,0.1469999998807907,-2.9958999156951904
1682999255085058000,13.09905810546875,-0.08469999581575394,0.15619999170303345,-3.1328999996185303
1682999255105058000,13.11905810546875,0.3073999881744385,0.026999998837709427,-1.6913999319076538
1682999255125056500,13.139056396484374,1.1746000051498413,-0.11599999666213989,0.9988999962806702
1682999255145058000,13.15905810546875,1.8572999238967896,-0.23359999060630798,3.95770001411438
1682999255165058000,13.17905810546875,2.047600030899048,-0.44929999113082886,6.617199897766113
1682999255185058000,13.19905810546875,1.6033999919891357,-0.5076999664306641,6.36870002746582
1682999255205058000,13.21905810546875,1.2824000120162964,-0.7775999903678894,3.8550000190734863
1682999255225058000,13.23905810546875,0.9006999731063843,-1.5058999061584473,2.3968000411987305
1682999255245056500,13.259056396484375,0.14800000190734863,-2.1484999656677246,2.3451998233795166
1682999255265058000,13.27905810546875,-0.8991000056266785,-2.09879994392395,2.3907999992370605
1682999255285058000,13.29905810546875,-1.5809999704360962,-1.8364999294281006,2.953199863433838
1682999255305058000,13.31905810546875,-1.657099962234497,-1.0968999862670898,2.774199962615967
1682999255325056500,13.339056396484375,-1.6049998998641968,-0.4123999774456024,1.6780999898910522
1682999255345058000,13.35905810546875,-1.5348999500274658,0.008100000210106373,0.32690000534057617
1682999255365058000,13.37905810546875,-1.7734999656677246,0.21389999985694885,-0.26989999413490295
1682999255385058000,13.39905810546875,-2.1266000270843506,0.3685999810695648,-0.7371000051498413
1682999255405058000,13.41905810546875,-2.30049991607666,0.5882999897003174,-0.9545999765396118
1682999255425058000,13.43905810546875,-1.8312000036239624,0.8125,-0.9695000052452087
1682999255445058000,13.45905810546875,-0.9792999625205994,0.926099956035614,-1.2757999897003174
1682999255465061000,13.47906103515625,-0.4755999743938446,0.9181999564170837,-1.8335999250411987
1682999255485058000,13.49905810546875,-0.1347000002861023,0.927299976348877,-2.0957999229431152
1682999255505058000,13.51905810546875,-0.24009999632835388,0.8061999678611755,-2.1138999462127686
1682999255525056500,13.539056396484375,-0.616100013256073,0.7592999935150146,-2.142899990081787
1682999255545059600,13.5590595703125,-0.8175999522209167,0.8053999543190002,-1.8300999402999878
1682999255565058000,13.57905810546875,-0.8139999508857727,1.0746999979019165,-1.4891999959945679
1682999255585058000,13.59905810546875,-0.7792999744415283,1.330899953842163,-1.3614000082015991
1682999255605056500,13.619056396484375,-0.9751999974250793,1.5901999473571777,-1.3013999462127686
1682999255625056500,13.639056396484374,-0.9108999967575073,1.9334999322891235,-0.7818999886512756
1682999255645058000,13.65905810546875,-1.038699984550476,2.1069998741149902,-0.609499990940094
1682999255665058000,13.67905810546875,-1.2102999687194824,2.0490000247955322,-1.3579999208450317
1682999255685058000,13.69905810546875,-0.8265999555587769,1.6735999584197998,-2.4345998764038086
1682999255705058000,13.71905810546875,-0.16089999675750732,1.1811000108718872,-2.918599843978882
1682999255725058000,13.73905810546875,0.4372999966144562,0.5388000011444092,-2.2923998832702637
1682999255745056500,13.759056396484375,0.9196999669075012,-0.1509999930858612,0.5288999676704407
1682999255765058000,13.77905810546875,1.4614999294281006,-0.45659998059272766,3.8160998821258545
1682999255785058000,13.79905810546875,1.5715999603271484,-0.5317999720573425,5.548699855804443
1682999255805058000,13.81905810546875,1.3637999296188354,-0.8263999819755554,4.5731000900268555
1682999255825058000,13.83905810546875,1.232200026512146,-1.3894000053405762,2.945499897003174
1682999255845058000,13.85905810546875,1.6270999908447266,-2.247799873352051,3.043599843978882
1682999255865058000,13.87905810546875,1.5273000001907349,-2.7507998943328857,4.530399799346924
1682999255885058000,13.89905810546875,1.0813000202178955,-2.1629998683929443,5.388799667358398
1682999255905058000,13.91905810546875,0.4657999873161316,-1.4293999671936035,3.863600015640259
1682999255925058000,13.93905810546875,0.029899999499320984,-1.3157999515533447,1.7572999000549316
1682999255945058000,13.95905810546875,0.11229999363422394,-1.157599925994873,0.4032999873161316
1682999255965058000,13.97905810546875,0.2238999903202057,-0.8379999995231628,-0.407399982213974
1682999255985058000,13.99905810546875,-0.11259999871253967,-0.45170000195503235,-0.7615000009536743
1682999256005058000,14.01905810546875,-0.6304000020027161,-0.12729999423027039,-0.6818000078201294
1682999256025056500,14.039056396484375,-0.8628999590873718,0.33869999647140503,-0.5746999979019165
1682999256045058000,14.05905810546875,-1.001099944114685,0.6884999871253967,-0.5645999908447266
1682999256065058000,14.07905810546875,-0.996999979019165,0.6674999594688416,-1.0149999856948853
1682999256085058000,14.09905810546875,-1.0570999383926392,0.29729998111724854,-1.5463999509811401
1682999256105058000,14.11905810546875,-0.9127999544143677,0.07199999690055847,-1.8916999101638794
1682999256125056500,14.139056396484374,-0.531499981880188,-0.004600000102072954,-1.9061999320983887
1682999256145058000,14.15905810546875,-0.11859999597072601,0.11379999667406082,-1.8910999298095703
1682999256165058000,14.17905810546875,0.1550000011920929,0.27469998598098755,-1.7990999221801758
1682999256185058000,14.19905810546875,0.181099995970726,0.3237999975681305,-1.6302999258041382
1682999256205056500,14.219056396484374,0.023799998685717583,0.32989999651908875,-1.7151999473571777
1682999256225058000,14.23905810546875,0.022199999541044235,0.28369998931884766,-1.9448999166488647
1682999256245056500,14.259056396484375,0.15919999778270721,0.3188999891281128,-2.1726999282836914
1682999256265058000,14.27905810546875,0.20639999210834503,0.5252999663352966,-2.399899959564209
1682999256285058000,14.29905810546875,0.16210000216960907,0.6367999911308289,-2.6947999000549316
1682999256305058000,14.31905810546875,0.06369999796152115,0.757099986076355,-2.753499984741211
1682999256325058000,14.33905810546875,-0.01249999925494194,0.593999981880188,-2.0279998779296875
1682999256345058000,14.35905810546875,0.2622999846935272,0.3409000039100647,-0.31379997730255127
1682999256365058000,14.37905810546875,0.9328999519348145,0.07029999792575836,2.187999963760376
1682999256385058000,14.39905810546875,1.4904999732971191,-0.10520000010728836,4.302799701690674
1682999256405058000,14.41905810546875,1.482800006866455,-0.045499999076128006,4.477099895477295
1682999256425058000,14.43905810546875,1.1109999418258667,-0.06539999693632126,2.8982999324798584
1682999256445058000,14.45905810546875,0.6980999708175659,-0.6441999673843384,2.324699878692627
1682999256465058000,14.47905810546875,0.8610000014305115,-1.741499900817871,4.334000110626221
1682999256485058000,14.49905810546875,0.651199996471405,-1.5899999141693115,6.392699718475342
1682999256505058000,14.51905810546875,-0.025100000202655792,-0.5604999661445618,5.109299659729004
1682999256525056500,14.539056396484375,-1.1253999471664429,-0.24819999933242798,2.4333999156951904
1682999256545059600,14.5590595703125,-1.045300006866455,-0.38269999623298645,0.574999988079071
1682999256565059600,14.5790595703125,-0.7486000061035156,-0.3416000008583069,-0.2628999948501587
1682999256585058000,14.59905810546875,-1.0586999654769897,-0.12150000035762787,-0.3141999840736389
1682999256605058000,14.61905810546875,-1.590999960899353,0.22219999134540558,0.19200000166893005
1682999256625056500,14.639056396484374,-1.4601999521255493,0.5753999948501587,0.2491999864578247
1682999256645058000,14.65905810546875,-1.0232999324798584,0.8297999501228333,-0.10089999437332153
1682999256665058000,14.67905810546875,-0.6477000117301941,0.7754999995231628,-1.0791000127792358
1682999256685059600,14.6990595703125,-0.6560999751091003,0.5327000021934509,-2.1902999877929688
1682999256705056500,14.719056396484374,-0.9386000037193298,0.34369999170303345,-2.803799867630005
1682999256725058000,14.73905810546875,-1.1646000146865845,0.39069998264312744,-2.8519999980926514
1682999256745056500,14.759056396484375,-1.1804999113082886,0.5206999778747559,-2.294800043106079
1682999256765056500,14.779056396484375,-1.062600016593933,0.6663999557495117,-1.809399962425232
1682999256785059600,14.7990595703125,-1.0306999683380127,0.6985999941825867,-1.591499924659729
1682999256805058000,14.81905810546875,-0.8658999800682068,0.7354999780654907,-1.8118999004364014
1682999256825058000,14.83905810546875,-0.5719999670982361,0.8865999579429626,-1.6354999542236328
1682999256845056500,14.859056396484375,-0.36910000443458557,1.1204999685287476,-1.3874999284744263
1682999256865058000,14.87905810546875,-0.5163999795913696,1.3192999362945557,-1.3166999816894531
1682999256885056500,14.899056396484376,-0.8082999587059021,1.2603999376296997,-1.3284999132156372
1682999256905058000,14.91905810546875,-0.9061999917030334,1.031599998474121,-1.449199914932251
1682999256925058000,14.93905810546875,-0.7407999634742737,0.8872999548912048,-1.4995999336242676
1682999256945058000,14.95905810546875,-0.3603000044822693,0.5249999761581421,-1.1751999855041504
1682999256965058000,14.97905810546875,0.23359999060630798,0.029500000178813934,0.3240000009536743
1682999256985058000,14.99905810546875,0.9190999865531921,-0.13040000200271606,2.34660005569458
1682999257005058000,15.01905810546875,1.2519999742507935,-0.09119999408721924,3.2577998638153076
1682999257025056500,15.039056396484375,1.4085999727249146,-0.32600000500679016,3.2605998516082764
1682999257045058000,15.05905810546875,1.0638999938964844,-0.4878999888896942,2.698199987411499
1682999257065058000,15.07905810546875,0.6556999683380127,-0.7858999967575073,2.5332999229431152
1682999257085061000,15.09906103515625,0.8826999664306641,-1.341499924659729,4.45359992980957
1682999257105058000,15.11905810546875,0.7274999618530273,-1.0814999341964722,5.956599712371826
1682999257125056500,15.139056396484374,0.31869998574256897,-0.8003000020980835,4.353300094604492
1682999257145058000,15.15905810546875,0.2703999876976013,-1.0095000267028809,1.7821999788284302
1682999257165058000,15.17905810546875,0.8448999524116516,-1.3492000102996826,0.30640000104904175
1682999257185058000,15.19905810546875,1.4905999898910522,-1.3047000169754028,-0.3392999768257141
1682999257205058000,15.21905810546875,1.420699954032898,-0.8084999918937683,0.14959999918937683
1682999257225058000,15.23905810546875,0.6269999742507935,-0.07279999554157257,0.5115999579429626
1682999257245058000,15.25905810546875,-0.24929998815059662,0.6193999648094177,0.21379999816417694
1682999257265058000,15.27905810546875,-0.8598999977111816,1.0347999334335327,-0.2685000002384186
1682999257285058000,15.29905810546875,-0.8212999701499939,0.9860000014305115,-1.0968999862670898
1682999257305058000,15.31905810546875,-0.20889998972415924,0.7044000029563904,-1.9772999286651611
1682999257325058000,15.33905810546875,0.2854999899864197,0.4860999882221222,-2.3790998458862305
1682999257345056500,15.359056396484375,0.5679999589920044,0.4617999792098999,-2.2876999378204346
1682999257365058000,15.37905810546875,0.6640999913215637,0.5564000010490417,-1.8198999166488647
1682999257385058000,15.39905810546875,0.17489999532699585,0.4730999767780304,-1.8394999504089355
1682999257405058000,15.41905810546875,-0.33149999380111694,0.29839998483657837,-2.1176998615264893
1682999257425058000,15.43905810546875,-0.5372999906539917,0.015399999916553497,-2.63100004196167
1682999257445058000,15.45905810546875,-0.33949998021125793,-0.16659998893737793,-2.967900037765503
1682999257465058000,15.47905810546875,0.06079999729990959,-0.09569999575614929,-2.861999988555908
1682999257485058000,15.49905810546875,-0.026999998837709427,0.2044999897480011,-2.9814999103546143
1682999257505058000,15.51905810546875,-0.5152999758720398,0.3986999988555908,-3.101300001144409
1682999257525059600,15.5390595703125,-0.682699978351593,0.21619999408721924,-2.2302000522613525
1682999257545058000,15.55905810546875,-0.13740000128746033,-0.21379999816417694,0.2457999885082245
1682999257565058000,15.57905810546875,0.5414999723434448,-0.2572999894618988,3.272199869155884
1682999257585058000,15.59905810546875,0.5539999604225159,-0.382099986076355,5.2540998458862305
1682999257605058000,15.61905810546875,0.4213999807834625,-0.8150999546051025,5.184499740600586
1682999257625056500,15.639056396484374,0.8294999599456787,-1.2258999347686768,4.85129976272583
1682999257645058000,15.65905810546875,0.8281999826431274,-1.494399905204773,4.798099994659424
1682999257665058000,15.67905810546875,0.24249999225139618,-1.663100004196167,5.568599700927734
1682999257685058000,15.69905810546875,-0.3847000002861023,-1.3125,5.705100059509277
1682999257705058000,15.71905810546875,-1.3495999574661255,-0.8732999563217163,4.042500019073486
1682999257725058000,15.73905810546875,-1.7279999256134033,-0.5715000033378601,1.7108999490737915
1682999257745056500,15.759056396484375,-1.055400013923645,-0.28919997811317444,0.16509999334812164
1682999257765058000,15.77905810546875,-0.7092999815940857,-0.11219999939203262,-0.7123000025749207
1682999257785058000,15.79905810546875,-0.9474999904632568,0.07189999520778656,-1.2037999629974365
1682999257805058000,15.81905810546875,-1.3007999658584595,0.3788999915122986,-1.597599983215332
1682999257825058000,15.83905810546875,-1.150399923324585,0.8240999579429626,-1.7583999633789062
1682999257845058000,15.85905810546875,-0.8184999823570251,1.132699966430664,-1.7001999616622925
1682999257865058000,15.87905810546875,-0.7755999565124512,1.1730999946594238,-1.8961999416351318
1682999257885058000,15.89905810546875,-0.9386000037193298,0.9259999990463257,-2.4164998531341553
1682999257905059600,15.9190595703125,-0.8930000066757202,0.5447999835014343,-2.457200050354004
1682999257925058000,15.93905810546875,-0.6553999781608582,0.36910000443458557,-2.0185999870300293
1682999257945058000,15.95905810546875,-0.4375999867916107,0.4202999770641327,-1.5990999937057495
1682999257965058000,15.97905810546875,-0.522599995136261,0.5703999996185303,-2.129199981689453
1682999257985058000,15.99905810546875,-0.9186999797821045,0.5399999618530273,-3.0072999000549316
1682999258005058000,16.01905810546875,-1.13319993019104,0.37219998240470886,-2.7152998447418213
1682999258025056500,16.039056396484376,-1.3398000001907349,0.4496999979019165,-1.761699914932251
1682999258045058000,16.05905810546875,-1.2283999919891357,0.8919999599456787,-1.2145999670028687
1682999258065058000,16.07905810546875,-1.4534000158309937,1.2644000053405762,-1.5592999458312988
1682999258085058000,16.09905810546875,-1.5195000171661377,1.0951999425888062,-2.585599899291992
1682999258105058000,16.11905810546875,-1.1399999856948853,0.642300009727478,-2.9993999004364014
1682999258125056500,16.139056396484374,-0.30799999833106995,0.10869999974966049,-1.608799934387207
1682999258145058000,16.15905810546875,0.4722999930381775,-0.08419999480247498,1.5473999977111816
1682999258165058000,16.17905810546875,1.0694999694824219,-0.0004999999655410647,4.8231000900268555
1682999258185058000,16.19905810546875,1.3944000005722046,0.006799999624490738,6.380199909210205
1682999258205058000,16.21905810546875,1.3172999620437622,-0.25429999828338623,5.894799709320068
1682999258225058000,16.23905810546875,1.298200011253357,-0.8736000061035156,5.028199672698975
1682999258245056500,16.259056396484375,1.4984999895095825,-1.7770999670028687,5.683300018310547
1682999258265058000,16.27905810546875,1.0250999927520752,-1.556999921798706,5.6930999755859375
1682999258285058000,16.29905810546875,0.31279999017715454,-0.8467999696731567,3.985799789428711
1682999258305058000,16.31905810546875,0.03849999979138374,-0.6132000088691711,2.2539000511169434
1682999258325058000,16.33905810546875,0.5263000130653381,-0.6342999935150146,1.0269999504089355
1682999258345058000,16.35905810546875,0.4096999764442444,-0.3253999948501587,-0.1469999998807907
1682999258365058000,16.37905810546875,-0.31379997730255127,0.12209999561309814,-0.8446999788284302
1682999258385058000,16.39905810546875,-1.0289000272750854,0.4162999987602234,-1.1680999994277954
1682999258405058000,16.41905810546875,-1.2547999620437622,0.6089999675750732,-1.2502999305725098
1682999258425058000,16.43905810546875,-1.2322999238967896,0.5275999903678894,-1.3213999271392822
1682999258445058000,16.45905810546875,-1.265299916267395,0.08540000021457672,-1.5970999002456665
1682999258465058000,16.47905810546875,-1.2795000076293945,-0.4465000033378601,-1.9732999801635742
1682999258485058000,16.49905810546875,-1.0982999801635742,-0.9093999862670898,-2.2044999599456787
1682999258505058000,16.51905810546875,-0.9749999642372131,-1.232100009918213,-2.4629998207092285
1682999258525056500,16.539056396484376,-0.5625999569892883,-1.2450000047683716,-2.44350004196167
1682999258545058000,16.55905810546875,-0.01979999989271164,-0.8463000059127808,-1.7888998985290527
1682999258565058000,16.57905810546875,0.4416999816894531,-0.3805999755859375,-1.531599998474121
1682999258585058000,16.59905810546875,0.42249998450279236,0.09049999713897705,-1.9210000038146973
1682999258605058000,16.61905810546875,0.3978999853134155,0.3222000002861023,-2.5306999683380127
1682999258625056500,16.639056396484374,0.5166999697685242,0.5972999930381775,-2.5174999237060547
1682999258645058000,16.65905810546875,0.24309998750686646,0.9164999723434448,-2.2291998863220215
1682999258665058000,16.67905810546875,-0.369299978017807,1.2120999097824097,-2.324199914932251
1682999258685056500,16.699056396484377,-0.7954999804496765,1.272499918937683,-2.360999822616577
1682999258705056500,16.719056396484376,-0.41009998321533203,0.47540000081062317,-0.2522999942302704
1682999258725058000,16.73905810546875,1.2394999265670776,-0.48649999499320984,4.250799655914307
1682999258745056500,16.759056396484375,1.8573999404907227,-0.20739999413490295,7.46560001373291
1682999258765058000,16.77905810546875,2.0901999473571777,-0.26569998264312744,6.100800037384033
1682999258785058000,16.79905810546875,1.746999979019165,-0.6552000045776367,4.426499843597412
1682999258805058000,16.81905810546875,1.675399899482727,-1.3841999769210815,3.908799886703491
1682999258825058000,16.83905810546875,0.6195999979972839,-2.0580999851226807,3.896099805831909
1682999258845058000,16.85905810546875,-0.9574999809265137,-1.793299913406372,3.6157000064849854
1682999258865058000,16.87905810546875,-2.19569993019104,-1.0769000053405762,2.993000030517578
1682999258885058000,16.89905810546875,-3.002699851989746,-0.5393999814987183,1.6624999046325684
1682999258905058000,16.91905810546875,-2.785599946975708,-0.42329999804496765,0.6123999953269958
1682999258925058000,16.93905810546875,-2.224400043487549,-0.44119998812675476,0.14100000262260437
1682999258945058000,16.95905810546875,-1.785099983215332,-0.4226999878883362,0.17409999668598175
1682999258965058000,16.97905810546875,-1.4118999242782593,-0.18599998950958252,0.052799999713897705
1682999258985059600,16.9990595703125,-1.1269999742507935,-0.03790000081062317,-0.3157999813556671
1682999259005059600,17.0190595703125,-0.8353999853134155,0.050200000405311584,-0.5049999952316284
1682999259025058000,17.03905810546875,-0.5281999707221985,0.06039999797940254,-0.5144000053405762
1682999259045058000,17.05905810546875,-0.5493000149726868,-0.1096000000834465,-0.7680999636650085
1682999259065058000,17.07905810546875,-0.7651999592781067,-0.20639999210834503,-1.2479000091552734
1682999259085058000,17.09905810546875,-0.8622999787330627,-0.3357999920845032,-1.5902999639511108
1682999259105058000,17.11905810546875,-0.9876999855041504,-0.03680000081658363,-1.549299955368042
1682999259125056500,17.139056396484374,-1.1411999464035034,0.3799999952316284,-0.9993999600410461
1682999259145058000,17.15905810546875,-1.1409000158309937,0.7412999868392944,-0.51910001039505
1682999259165058000,17.17905810546875,-0.924299955368042,0.791700005531311,-0.1371999979019165
1682999259185058000,17.19905810546875,-0.5859999656677246,0.7454999685287476,0.019999999552965164
1682999259205056500,17.219056396484376,-0.37119999527931213,0.833899974822998,0.06289999932050705
1682999259225058000,17.23905810546875,-0.48169997334480286,0.9438999891281128,0.39319998025894165
1682999259245056500,17.259056396484375,-0.5532999634742737,1.1304999589920044,0.8389999866485596
1682999259265058000,17.27905810546875,-0.7249000072479248,1.163699984550476,1.0963000059127808
1682999259285058000,17.29905810546875,-0.8953999876976013,1.229699969291687,1.0780999660491943
1682999259305058000,17.31905810546875,-1.0952999591827393,1.3380999565124512,0.8751999735832214
1682999259325058000,17.33905810546875,-1.2609999179840088,1.305999994277954,0.9475999474525452
1682999259345058000,17.35905810546875,-1.2099000215530396,0.9609999656677246,1.5092999935150146
1682999259365058000,17.37905810546875,-1.0124999284744263,0.35740000009536743,3.2811999320983887
1682999259385058000,17.39905810546875,-0.9854999780654907,0.280599981546402,4.103600025177002
1682999259405058000,17.41905810546875,-1.111199975013733,0.155799999833107,3.0379998683929443
1682999259425058000,17.43905810546875,-1.0382000207901,-0.0754999965429306,1.632099986076355
1682999259445058000,17.45905810546875,-0.7402999997138977,-0.5726999640464783,0.6503999829292297
1682999259465058000,17.47905810546875,-0.5029000043869019,-1.2077000141143799,0.4643999934196472
1682999259485058000,17.49905810546875,-0.5103999972343445,-1.8671000003814697,0.5392999649047852
1682999259505058000,17.51905810546875,-0.765500009059906,-2.1011998653411865,0.3935000002384186
1682999259525056500,17.539056396484376,-0.7950999736785889,-2.1957998275756836,0.38979998230934143
1682999259545058000,17.55905810546875,-0.46480000019073486,-2.268699884414673,0.3349999785423279
1682999259565058000,17.57905810546875,-0.34549999237060547,-2.2681000232696533,0.17029999196529388
1682999259585058000,17.59905810546875,-0.2768000066280365,-2.165299892425537,-0.550000011920929
1682999259605058000,17.61905810546875,-0.11299999803304672,-1.9966999292373657,-1.076799988746643
1682999259625056500,17.639056396484374,0.16830000281333923,-1.8960999250411987,-1.1481000185012817
1682999259645058000,17.65905810546875,0.16249999403953552,-1.9109998941421509,-1.1402000188827515
1682999259665058000,17.67905810546875,-0.20229999721050262,-1.876599907875061,-1.0169999599456787
1682999259685058000,17.69905810546875,-0.22029998898506165,-1.5805000066757202,-0.8370999693870544
1682999259705058000,17.71905810546875,0.11939999461174011,-1.1201999187469482,-0.5002999901771545
1682999259725058000,17.73905810546875,0.6911999583244324,-0.5715999603271484,-0.3190999925136566
1682999259745056500,17.759056396484375,0.8405999541282654,-0.06279999762773514,-0.26479998230934143
1682999259765058000,17.77905810546875,0.6969000101089478,0.34199997782707214,-0.0142000000923872
1682999259785058000,17.79905810546875,0.461899995803833,0.5562999844551086,-0.07679999619722366
1682999259805058000,17.81905810546875,0.4219000041484833,0.7157999873161316,-0.14729999005794525
1682999259825058000,17.83905810546875,0.5381999611854553,0.8794999718666077,-0.058799996972084045
1682999259845058000,17.85905810546875,0.5709999799728394,0.8860999941825867,0.1776999980211258
1682999259865058000,17.87905810546875,0.7937999963760376,0.7754999995231628,0.22689999639987946
1682999259885058000,17.89905810546875,0.9957999587059021,0.7191999554634094,0.18789999186992645
1682999259905058000,17.91905810546875,1.0788999795913696,0.9422000050544739,0.3865000009536743
1682999259925058000,17.93905810546875,0.8463999629020691,1.1085000038146973,0.5364999771118164
1682999259945058000,17.95905810546875,0.5705999732017517,1.206399917602539,0.5101999640464783
1682999259965058000,17.97905810546875,0.16869999468326569,1.0368999242782593,0.11999999731779099
1682999259985058000,17.99905810546875,-0.023599999025464058,0.8042999505996704,-0.3091000020503998
1682999260005058000,18.01905810546875,0.17149999737739563,0.580299973487854,0.054899998009204865
1682999260025056500,18.039056396484376,0.39879998564720154,0.2361999899148941,0.9175999760627747
1682999260045058000,18.05905810546875,0.5622000098228455,0.20960000157356262,1.1894999742507935
1682999260065058000,18.07905810546875,0.5981999635696411,0.3012999892234802,1.4794999361038208
1682999260085058000,18.09905810546875,0.4350999891757965,0.45809999108314514,1.2206000089645386
1682999260105058000,18.11905810546875,-0.026099998503923416,0.23739999532699585,0.1818999946117401
1682999260125056500,18.139056396484374,-0.26350000500679016,-0.23349998891353607,-0.00139999995008111
1682999260145058000,18.15905810546875,-0.38189998269081116,-0.9180999994277954,0.6466000080108643
1682999260165058000,18.17905810546875,-0.7095999717712402,-1.3686999082565308,1.105799913406372
1682999260185058000,18.19905810546875,-0.9474999904632568,-1.2742999792099,0.87909996509552
1682999260205056500,18.219056396484376,-1.0831999778747559,-0.8801999688148499,0.3522999882698059
1682999260225058000,18.23905810546875,-1.3395999670028687,-0.5411999821662903,-0.2809999883174896
1682999260245056500,18.259056396484375,-1.4462999105453491,-0.42229998111724854,-0.649899959564209
1682999260265056500,18.279056396484375,-1.4752999544143677,-0.2727999985218048,-0.4902999997138977
1682999260285058000,18.29905810546875,-1.3121999502182007,-0.011599999852478504,-0.13660000264644623
1682999260305058000,18.31905810546875,-1.2285000085830688,0.11189999431371689,0.1670999974012375
1682999260325058000,18.33905810546875,-1.1689000129699707,0.19769999384880066,0.16619999706745148
1682999260345058000,18.35905810546875,-0.9345999956130981,0.25540000200271606,-0.11889999359846115
1682999260365058000,18.37905810546875,-0.5020999908447266,0.2264999896287918,-0.5698999762535095
1682999260385058000,18.39905810546875,-0.15079998970031738,0.3073999881744385,-0.9613999724388123
1682999260405058000,18.41905810546875,0.0867999941110611,0.40709999203681946,-0.8525999784469604
1682999260425058000,18.43905810546875,0.4050000011920929,0.6926999688148499,-0.5486999750137329
1682999260445058000,18.45905810546875,0.5814999938011169,1.0360000133514404,-0.25439998507499695
1682999260465058000,18.47905810546875,0.4041000008583069,1.2868999242782593,-0.3621000051498413
1682999260485056500,18.499056396484374,0.3814999759197235,1.4776999950408936,-0.41849997639656067
1682999260505058000,18.51905810546875,0.5242999792098999,1.6904999017715454,-0.4528999924659729
1682999260525056500,18.539056396484376,0.7069000005722046,1.920699954032898,-0.5740999579429626
1682999260545058000,18.55905810546875,0.7782999873161316,2.0425000190734863,-0.45909997820854187
1682999260565058000,18.57905810546875,0.7357999682426453,2.18149995803833,-0.343099981546402
1682999260585058000,18.59905810546875,0.6663999557495117,2.438699960708618,-0.08819999545812607
1682999260605058000,18.61905810546875,0.6195999979972839,2.5780999660491943,0.48989999294281006
1682999260625056500,18.639056396484374,0.4713999927043915,2.567699909210205,0.9594999551773071
1682999260645058000,18.65905810546875,0.15320000052452087,2.3675999641418457,0.8416999578475952
1682999260665058000,18.67905810546875,-0.322299987077713,1.9021999835968018,0.3937000036239624
1682999260685058000,18.69905810546875,-0.7220999598503113,1.2032999992370605,0.7310999631881714
1682999260705058000,18.71905810546875,-1.017199993133545,0.4098999798297882,1.1928999423980713
1682999260725058000,18.73905810546875,-0.8224999904632568,-0.17749999463558197,1.574299931526184
1682999260745056500,18.759056396484375,-0.16110000014305115,-0.13050000369548798,3.5174999237060547
1682999260765058000,18.77905810546875,-0.2727999985218048,0.5295999646186829,4.328700065612793
1682999260785058000,18.79905810546875,-1.0281000137329102,0.9089999794960022,1.9948999881744385
1682999260805058000,18.81905810546875,-1.886699914932251,0.5256999731063843,-1.0151000022888184
1682999260825058000,18.83905810546875,-1.8605999946594238,-0.4777999818325043,-1.9026999473571777
1682999260845058000,18.85905810546875,-1.0770000219345093,-1.2247999906539917,-0.17489999532699585
1682999260865058000,18.87905810546875,-0.5428999662399292,-0.9874999523162842,2.0062999725341797
1682999260885056500,18.899056396484376,-0.8294000029563904,-0.6038999557495117,2.7751998901367188
1682999260905058000,18.91905810546875,-0.7741999626159668,-0.5715999603271484,1.9922999143600464
1682999260925058000,18.93905810546875,-0.1859000027179718,-0.9430999755859375,0.8240000009536743
1682999260945058000,18.95905810546875,0.4553999900817871,-1.2727999687194824,-0.06239999830722809
1682999260965056500,18.979056396484374,0.9056999683380127,-1.2174999713897705,-0.5126000046730042
1682999260985056500,18.999056396484374,0.5800999999046326,-1.1049000024795532,-0.8775999546051025
1682999261005058000,19.01905810546875,0.2978000044822693,-0.8743000030517578,-1.4419000148773193
1682999261025056500,19.039056396484376,0.06769999861717224,-0.6229999661445618,-1.681899905204773
1682999261045058000,19.05905810546875,-0.05609999969601631,-0.2689000070095062,-1.7120000123977661
1682999261065058000,19.07905810546875,-0.23819999396800995,-0.07119999825954437,-1.6311999559402466
1682999261085058000,19.09905810546875,-0.4293999969959259,-0.016200000420212746,-1.5139999389648438
1682999261105058000,19.11905810546875,-0.4315999746322632,-0.07349999994039536,-1.2430999279022217
1682999261125056500,19.139056396484374,-0.186599999666214,0.11419999599456787,-1.0607999563217163
1682999261145058000,19.15905810546875,0.022199999541044235,0.24390000104904175,-1.014299988746643
1682999261165058000,19.17905810546875,0.046299997717142105,0.30390000343322754,-1.281000018119812
1682999261185058000,19.19905810546875,0.03959999978542328,0.3449999988079071,-1.448099970817566
1682999261205059600,19.2190595703125,-0.18709999322891235,0.38749998807907104,-1.5583000183105469
1682999261225058000,19.23905810546875,-0.4682999849319458,0.34579998254776,-1.8758999109268188
1682999261245056500,19.259056396484375,-0.6406999826431274,0.3402999937534332,-2.0664000511169434
1682999261265059600,19.2790595703125,-0.5625,0.409199982881546,-1.8945999145507812
1682999261285058000,19.29905810546875,-0.3034999966621399,0.5045999884605408,-1.5169999599456787
1682999261305058000,19.31905810546875,-0.08460000157356262,0.6071000099182129,-0.9837999939918518
1682999261325058000,19.33905810546875,0.1525000035762787,0.8233999609947205,-0.5694000124931335
1682999261345058000,19.35905810546875,0.010300000198185444,0.8034999966621399,-0.5575999617576599
1682999261365058000,19.37905810546875,-0.07289999723434448,0.7741000056266785,-0.9740999937057495
1682999261385056500,19.399056396484376,0.008700000122189522,0.802899956703186,-1.0743999481201172
1682999261405058000,19.41905810546875,0.14270000159740448,0.6785999536514282,-0.3709000051021576
1682999261425058000,19.43905810546875,0.4510999917984009,0.3730999827384949,1.3289999961853027
1682999261445058000,19.45905810546875,0.8596000075340271,-0.006199999712407589,2.6439998149871826
1682999261465058000,19.47905810546875,1.2523000240325928,-0.27379998564720154,3.128199815750122
1682999261485058000,19.49905810546875,1.2747999429702759,-0.2011999934911728,2.5779998302459717
1682999261505058000,19.51905810546875,0.435699999332428,-0.2603999972343445,1.0125999450683594
1682999261525056500,19.539056396484376,0.7657999992370605,-1.7899999618530273,3.2197999954223633
1682999261545058000,19.55905810546875,1.155900001525879,-1.806399941444397,6.024099826812744
1682999261565058000,19.57905810546875,0.4624999761581421,-0.9036999940872192,4.321099758148193
1682999261585058000,19.59905810546875,-0.44749999046325684,-0.48669999837875366,0.5236999988555908
1682999261605058000,19.61905810546875,-0.6173999905586243,-0.9789999723434448,-0.5267999768257141
1682999261625056500,19.639056396484374,-0.4781999886035919,-1.2933999300003052,0.04959999769926071
1682999261645058000,19.65905810546875,-0.9576999545097351,-0.8807999491691589,1.287500023841858
1682999261665058000,19.67905810546875,-0.9002999663352966,-0.1305999904870987,1.629599928855896
1682999261685058000,19.69905810546875,-0.927899956703186,0.22669999301433563,1.2457000017166138
1682999261705058000,19.71905810546875,-0.4129999876022339,0.23999999463558197,0.20579999685287476
1682999261725058000,19.73905810546875,-0.27230000495910645,0.05909999832510948,-1.0298999547958374
1682999261745056500,19.759056396484375,-0.4696999788284302,-0.03519999980926514,-1.813499927520752
1682999261765058000,19.77905810546875,-1.0378999710083008,0.07360000163316727,-2.004999876022339
1682999261785058000,19.79905810546875,-1.5490999221801758,0.34929999709129333,-1.7508999109268188
1682999261805058000,19.81905810546875,-1.6489999294281006,0.5946999788284302,-1.7020999193191528
1682999261825058000,19.83905810546875,-1.8073999881744385,0.7815999984741211,-1.857100009918213
1682999261845058000,19.85905810546875,-1.5419999361038208,0.8669999837875366,-2.216399908065796
1682999261865058000,19.87905810546875,-0.9883999824523926,0.7613999843597412,-2.331699848175049
1682999261885058000,19.89905810546875,-0.4788999855518341,0.8118000030517578,-2.02839994430542
1682999261905058000,19.91905810546875,-0.3472999930381775,1.055999994277954,-1.5293999910354614
1682999261925058000,19.93905810546875,-0.33969998359680176,1.2781999111175537,-1.3331999778747559
1682999261945058000,19.95905810546875,-0.6376999616622925,1.3669999837875366,-1.343500018119812
1682999261965059600,19.9790595703125,-1.251099944114685,1.3183000087738037,-1.6589999198913574
1682999261985058000,19.99905810546875,-1.6749999523162842,1.2384999990463257,-1.6304999589920044
1682999262005058000,20.01905810546875,-1.5124999284744263,1.00819993019104,-1.003499984741211
1682999262025056500,20.039056396484376,-0.8130999803543091,0.5740000009536743,0.5529999732971191
1682999262045058000,20.05905810546875,0.3337000012397766,0.22529999911785126,2.498499870300293
1682999262065058000,20.07905810546875,0.9706999659538269,-0.17949999868869781,3.885199785232544
1682999262085058000,20.09905810546875,1.167799949645996,-0.858199954032898,4.341399669647217
1682999262105058000,20.11905810546875,1.62909996509552,-1.8997999429702759,4.661799907684326
1682999262125056500,20.139056396484374,2.1297998428344727,-2.3476998805999756,5.757599830627441
1682999262145058000,20.15905810546875,1.8222999572753906,-1.904099941253662,5.239199638366699
1682999262165058000,20.17905810546875,1.1698999404907227,-1.7416999340057373,3.5683000087738037
1682999262185058000,20.19905810546875,1.0887999534606934,-1.9250999689102173,2.4163999557495117
1682999262205058000,20.21905810546875,1.5206999778747559,-1.83489990234375,1.4154999256134033
1682999262225058000,20.23905810546875,1.6404999494552612,-1.4091999530792236,0.8621000051498413
1682999262245056500,20.259056396484375,1.0576999187469482,-0.6261999607086182,0.7185999751091003
1682999262265058000,20.27905810546875,0.13249999284744263,0.0843999981880188,-0.08540000021457672
1682999262285058000,20.29905810546875,-0.7049999833106995,0.448199987411499,-1.0365999937057495
1682999262305058000,20.31905810546875,-1.1762999296188354,0.34769999980926514,-1.7299000024795532
1682999262325058000,20.33905810546875,-1.1269999742507935,0.1753000020980835,-1.997999906539917
1682999262345058000,20.35905810546875,-1.0293999910354614,0.08789999783039093,-1.7404999732971191
1682999262365058000,20.37905810546875,-0.7619999647140503,0.14469999074935913,-1.1857999563217163
1682999262385058000,20.39905810546875,-0.3012999892234802,0.11379999667406082,-1.1054999828338623
1682999262405058000,20.41905810546875,0.2272000014781952,-0.06960000097751617,-1.8178999423980713
1682999262425058000,20.43905810546875,0.592799961566925,-0.18879999220371246,-2.4271998405456543
1682999262445058000,20.45905810546875,0.6764999628067017,-0.17949999868869781,-2.0931999683380127
1682999262465058000,20.47905810546875,0.5640999674797058,0.00839999970048666,-1.3605999946594238
1682999262485058000,20.49905810546875,0.49879997968673706,0.11979999393224716,-0.8765999674797058
1682999262505058000,20.51905810546875,0.6080999970436096,0.29809999465942383,-1.058899998664856
1682999262525056500,20.539056396484376,0.6833999752998352,0.47849997878074646,-1.5307999849319458
1682999262545058000,20.55905810546875,0.576200008392334,0.5999999642372131,-2.1644999980926514
1682999262565056500,20.579056396484376,0.33809998631477356,0.5899999737739563,-2.40339994430542
1682999262585058000,20.59905810546875,-0.040300000458955765,0.573199987411499,-2.241499900817871
1682999262605058000,20.61905810546875,-0.35359999537467957,0.6187999844551086,-1.6019999980926514
1682999262625056500,20.639056396484374,-0.7295999526977539,0.6759999990463257,-1.1617000102996826
1682999262645059600,20.6590595703125,-0.6621999740600586,0.5813999772071838,-0.15309999883174896
1682999262665058000,20.67905810546875,-0.002199999988079071,0.519599974155426,1.6764999628067017
1682999262685058000,20.69905810546875,0.34919998049736023,0.7908999919891357,2.7677998542785645
1682999262705056500,20.719056396484376,0.4074999988079071,0.5859999656677246,3.4779999256134033
1682999262725058000,20.73905810546875,0.5126999616622925,0.060499999672174454,3.9733998775482178
1682999262745056500,20.759056396484375,0.6947000026702881,-0.41029998660087585,4.225599765777588
1682999262765058000,20.77905810546875,1.0844999551773071,-1.105799913406372,5.469899654388428
1682999262785058000,20.79905810546875,1.105799913406372,-1.079800009727478,6.334199905395508
1682999262805058000,20.81905810546875,0.6290000081062317,-0.6789999604225159,4.034800052642822
1682999262825058000,20.83905810546875,-0.15559999644756317,-0.8901999592781067,1.299299955368042
1682999262845056500,20.859056396484377,-0.3021000027656555,-1.444599986076355,-0.35670000314712524
1682999262865058000,20.87905810546875,-0.49549999833106995,-1.9027999639511108,-1.020900011062622
1682999262885056500,20.899056396484376,-0.9254999756813049,-1.7304999828338623,-0.5336999893188477
1682999262905058000,20.91905810546875,-1.0433000326156616,-1.1552000045776367,0.03280000016093254
1682999262925058000,20.93905810546875,-0.4059999883174896,-0.34619998931884766,0.028299998492002487
1682999262945058000,20.95905810546875,0.3951999843120575,0.18459999561309814,-0.2912999987602234
1682999262965058000,20.97905810546875,0.8098999857902527,0.4089999794960022,-0.9455999732017517
1682999262985058000,20.99905810546875,0.7353000044822693,0.3734000027179718,-1.4311999082565308
1682999263005058000,21.01905810546875,0.38089999556541443,0.2766000032424927,-1.529099941253662
1682999263025056500,21.039056396484376,-0.15429998934268951,0.3328000009059906,-1.247499942779541
1682999263045058000,21.05905810546875,-0.821399986743927,0.40959998965263367,-1.1238999366760254
1682999263065056500,21.079056396484376,-1.2037999629974365,0.5817999839782715,-1.5475000143051147
1682999263085058000,21.09905810546875,-1.3411999940872192,0.5331999659538269,-2.1064999103546143
1682999263105058000,21.11905810546875,-1.0835000276565552,0.2915000021457672,-2.389400005340576
1682999263125056500,21.139056396484374,-0.6703999638557434,0.24329999089241028,-2.3583998680114746
1682999263145058000,21.15905810546875,-0.38259997963905334,0.3702999949455261,-2.0532000064849854
1682999263165058000,21.17905810546875,-0.48499998450279236,0.4796999990940094,-1.6130999326705933
1682999263185056500,21.199056396484377,-0.7353000044822693,0.729699969291687,-1.3217999935150146
1682999263205056500,21.219056396484376,-1.0145999193191528,0.8608999848365784,-1.2853000164031982
1682999263225058000,21.23905810546875,-1.1837999820709229,0.9210000038146973,-1.3356000185012817
1682999263245056500,21.259056396484375,-1.2559000253677368,0.7929999828338623,-1.5996999740600586
1682999263265058000,21.27905810546875,-1.2597999572753906,0.5410999655723572,-2.146199941635132
1682999263285058000,21.29905810546875,-1.0063999891281128,0.19659999012947083,-2.183300018310547
1682999263305058000,21.31905810546875,-0.311599999666214,-0.2524999976158142,-1.2594000101089478
1682999263325058000,21.33905810546875,0.9550999999046326,-0.5098999738693237,1.5724999904632568
1682999263345058000,21.35905810546875,1.837499976158142,-0.30169999599456787,4.289700031280518
1682999263365058000,21.37905810546875,1.7243999242782593,-0.18959999084472656,5.298399925231934
1682999263385058000,21.39905810546875,1.3916999101638794,-0.1931999921798706,5.134500026702881
1682999263405058000,21.41905810546875,1.3583999872207642,-0.3261999785900116,3.9289000034332275
1682999263425058000,21.43905810546875,1.569599986076355,-0.6495999693870544,3.1145999431610107
1682999263445058000,21.45905810546875,1.3519999980926514,-1.059899926185608,2.976599931716919
1682999263465058000,21.47905810546875,1.07069993019104,-1.5104999542236328,3.206899881362915
1682999263485058000,21.49905810546875,0.9362999796867371,-1.479099988937378,3.686800003051758
1682999263505058000,21.51905810546875,0.7644999623298645,-0.9383999705314636,2.9975998401641846
1682999263525056500,21.539056396484376,0.62909996509552,-0.35029998421669006,1.243899941444397
1682999263545058000,21.55905810546875,0.6399999856948853,-0.22100000083446503,0.023599999025464058
1682999263565056500,21.579056396484376,0.42659997940063477,-0.2856999933719635,-0.8417999744415283
1682999263585058000,21.59905810546875,-0.10029999911785126,-0.42409998178482056,-1.3737999200820923
1682999263605058000,21.61905810546875,-0.6233999729156494,-0.3384000062942505,-1.5749999284744263
1682999263625056500,21.639056396484374,-0.6523999571800232,-0.08760000020265579,-1.602199912071228
1682999263645058000,21.65905810546875,-0.5224999785423279,0.17389999330043793,-1.4549999237060547
1682999263665058000,21.67905810546875,-0.4526999890804291,0.24699999392032623,-1.466399908065796
1682999263685058000,21.69905810546875,-0.486299991607666,0.1808999925851822,-1.5572999715805054
1682999263705058000,21.71905810546875,-0.28369998931884766,0.1467999964952469,-1.3464000225067139
1682999263725058000,21.73905810546875,0.017500000074505806,0.20349998772144318,-0.9294999837875366
1682999263745056500,21.759056396484375,0.32499998807907104,0.25839999318122864,-0.6394000053405762
1682999263765056500,21.779056396484375,0.42080000042915344,0.23659999668598175,-0.6444999575614929
1682999263785058000,21.79905810546875,0.3465999960899353,0.2263999879360199,-0.8450999855995178
1682999263805058000,21.81905810546875,0.3580999970436096,0.2782999873161316,-1.320099949836731
1682999263825059600,21.8390595703125,0.3739999830722809,0.3921999931335449,-1.997999906539917
1682999263845058000,21.85905810546875,0.2895999848842621,0.5379999876022339,-2.653899908065796
1682999263865058000,21.87905810546875,0.010199999436736107,0.6265000104904175,-2.947199821472168
1682999263885058000,21.89905810546875,-0.24079999327659607,0.6078000068664551,-2.722399950027466
1682999263905058000,21.91905810546875,-0.33820000290870667,0.7132999897003174,-2.4986000061035156
1682999263925058000,21.93905810546875,-0.3199000060558319,0.9585999846458435,-2.3327999114990234
1682999263945058000,21.95905810546875,-0.0811999961733818,0.8852999806404114,-1.5774999856948853
1682999263965058000,21.97905810546875,0.15330000221729279,0.5011000037193298,0.5083999633789062
1682999263985058000,21.99905810546875,0.8639000058174133,0.22190000116825104,3.28439998626709
1682999264005058000,22.01905810546875,1.2246999740600586,0.3025999963283539,5.380499839782715
1682999264025058000,22.03905810546875,1.3992999792099,0.11299999803304672,5.948299884796143
1682999264045058000,22.05905810546875,1.194700002670288,-0.2653999924659729,4.45419979095459
1682999264065058000,22.07905810546875,0.7866999506950378,-0.9610999822616577,2.793299913406372
1682999264085058000,22.09905810546875,0.6730999946594238,-2.1689999103546143,2.4853999614715576
1682999264105058000,22.11905810546875,0.382099986076355,-2.246299982070923,3.012399911880493
1682999264125056500,22.139056396484374,-0.18159998953342438,-1.5006999969482422,2.472100019454956
1682999264145058000,22.15905810546875,-1.0233999490737915,-0.9869999885559082,1.6167999505996704
1682999264165058000,22.17905810546875,-0.7931999564170837,-0.8389999866485596,0.9998999834060669
1682999264185058000,22.19905810546875,-0.5210999846458435,-0.7615999579429626,0.14459998905658722
1682999264205056500,22.219056396484376,-0.6096999645233154,-0.6277999877929688,-0.19280000030994415
1682999264225058000,22.23905810546875,-0.9493999481201172,-0.38419997692108154,0.1873999983072281
1682999264245056500,22.259056396484375,-0.9540999531745911,-0.13449999690055847,0.09319999814033508
1682999264265058000,22.27905810546875,-0.7188999652862549,0.054999999701976776,-0.20389999449253082
1682999264285058000,22.29905810546875,-0.24789999425411224,0.13539999723434448,-0.6642000079154968
1682999264305058000,22.31905810546875,0.015199999324977398,0.062199998646974564,-1.1420999765396118
1682999264325056500,22.339056396484374,0.02070000022649765,0.029099998995661736,-1.3661999702453613
1682999264345058000,22.35905810546875,-0.18239998817443848,0.1808999925851822,-1.2970999479293823
1682999264365058000,22.37905810546875,-0.6111999750137329,0.3407000005245209,-1.1883000135421753
1682999264385058000,22.39905810546875,-0.9473999738693237,0.4596000015735626,-1.2156999111175537
1682999264405058000,22.41905810546875,-1.1368999481201172,0.5655999779701233,-1.3704999685287476
1682999264425058000,22.43905810546875,-1.152400016784668,0.6775999665260315,-1.8385999202728271
1682999264445058000,22.45905810546875,-0.7849999666213989,0.8671000003814697,-2.187299966812134
1682999264465056500,22.479056396484374,-0.4391999840736389,0.8619999885559082,-2.201900005340576
1682999264485058000,22.49905810546875,-0.32349997758865356,0.8130999803543091,-1.8940999507904053
1682999264505058000,22.51905810546875,-0.5346999764442444,0.9556999802589417,-1.577199935913086
1682999264525056500,22.539056396484376,-0.902899980545044,1.2275999784469604,-1.5542999505996704
1682999264545058000,22.55905810546875,-1.1072999238967896,1.4023000001907349,-1.7470999956130981
1682999264565056500,22.579056396484376,-1.0685999393463135,1.315999984741211,-2.04830002784729
1682999264585058000,22.59905810546875,-1.0329999923706055,1.0049999952316284,-2.5070998668670654
1682999264605058000,22.61905810546875,-0.6741999983787537,0.633899986743927,-2.2604000568389893
1682999264625056500,22.639056396484374,0.19259999692440033,0.12060000002384186,-0.5636000037193298
1682999264645059600,22.6590595703125,1.076300024986267,-0.2434999942779541,2.1308999061584473
1682999264665058000,22.67905810546875,1.4056999683380127,-0.4617999792098999,4.643099784851074
1682999264685058000,22.69905810546875,1.3342000246047974,-0.4364999830722809,5.808000087738037
1682999264705058000,22.71905810546875,0.8648999929428101,-0.20479999482631683,4.985899925231934
1682999264725058000,22.73905810546875,0.43959999084472656,-0.3012999892234802,2.9472999572753906
1682999264745056500,22.759056396484375,1.017899990081787,-1.3358999490737915,3.2207000255584717
1682999264765058000,22.77905810546875,1.7520999908447266,-1.928999900817871,4.764899730682373
1682999264785058000,22.79905810546875,1.4161999225616455,-1.5363999605178833,4.742599964141846
1682999264805058000,22.81905810546875,0.2232999950647354,-0.935699999332428,2.976099967956543
1682999264825056500,22.839056396484374,-0.5539999604225159,-0.7412999868392944,1.398800015449524
1682999264845058000,22.85905810546875,-0.18209999799728394,-0.7823999524116516,0.11349999904632568
1682999264865058000,22.87905810546875,0.07459999620914459,-0.6477000117301941,-0.5787000060081482
1682999264885058000,22.89905810546875,-0.04809999838471413,-0.23499999940395355,-0.5899999737739563
1682999264905058000,22.91905810546875,-0.5218999981880188,0.10679999738931656,-0.8054999709129333
1682999264925058000,22.93905810546875,-0.692799985408783,0.343999981880188,-0.964199960231781
1682999264945058000,22.95905810546875,-0.413100004196167,0.43309998512268066,-1.0715999603271484
1682999264965058000,22.97905810546875,-0.06749999523162842,0.42239999771118164,-1.2352999448776245
1682999264985056500,22.999056396484374,0.11620000004768372,0.34289997816085815,-1.4298999309539795
1682999265005058000,23.01905810546875,0.13359999656677246,0.19110000133514404,-1.4919999837875366
1682999265025058000,23.03905810546875,0.1022999957203865,0.07090000063180923,-1.4976999759674072
1682999265045058000,23.05905810546875,0.28779998421669006,0.04129999876022339,-1.4328999519348145
1682999265065058000,23.07905810546875,0.47079998254776,0.09239999949932098,-1.279099941253662
1682999265085058000,23.09905810546875,0.6037999987602234,0.13210000097751617,-1.1349999904632568
1682999265105058000,23.11905810546875,0.5724999904632568,0.07599999755620956,-1.1878999471664429
1682999265125056500,23.139056396484374,0.4357999861240387,0.05179999768733978,-1.6907999515533447
1682999265145058000,23.15905810546875,0.4389999806880951,0.13979999721050262,-2.288300037384033
1682999265165058000,23.17905810546875,0.45179998874664307,0.3150999844074249,-2.5498998165130615
1682999265185058000,23.19905810546875,0.2709999978542328,0.35510000586509705,-2.5569000244140625
1682999265205058000,23.21905810546875,0.03839999809861183,0.49629998207092285,-2.4082000255584717
1682999265225058000,23.23905810546875,-0.09459999948740005,0.7213999629020691,-2.1712000370025635
1682999265245056500,23.259056396484375,-0.23489999771118164,0.7689999938011169,-1.7091999053955078
1682999265265058000,23.27905810546875,-0.17999999225139618,0.4861999750137329,-0.6983000040054321
1682999265285058000,23.29905810546875,0.3649999797344208,0.11859999597072601,1.232100009918213
1682999265305058000,23.31905810546875,0.824400007724762,-0.13859999179840088,3.403599977493286
1682999265325056500,23.339056396484374,0.799299955368042,-0.2556999921798706,4.277199745178223
1682999265345058000,23.35905810546875,0.7548999786376953,-0.4301999807357788,3.8120999336242676
1682999265365058000,23.37905810546875,0.6575999855995178,-0.6539999842643738,2.7505998611450195
1682999265385058000,23.39905810546875,0.7979999780654907,-1.345099925994873,2.3929998874664307
1682999265405058000,23.41905810546875,0.836899995803833,-1.905900001525879,4.256999969482422
1682999265425058000,23.43905810546875,0.5249999761581421,-1.3358999490737915,5.299499988555908
1682999265445058000,23.45905810546875,-0.2505999803543091,-0.45799997448921204,3.754199981689453
1682999265465058000,23.47905810546875,-0.7888000011444092,-0.42089998722076416,1.1525999307632446
1682999265485058000,23.49905810546875,-0.4860999882221222,-0.49709999561309814,-0.7490999698638916
1682999265505058000,23.51905810546875,-0.5543999671936035,-0.47189998626708984,-1.548799991607666
1682999265525056500,23.539056396484376,-1.2525999546051025,-0.08699999749660492,-0.6362999677658081
1682999265545058000,23.55905810546875,-1.4306999444961548,0.4732999801635742,0.6685000061988831
1682999265565056500,23.579056396484376,-1.4055999517440796,0.9366999864578247,1.308899998664856
1682999265585058000,23.59905810546875,-0.9605000019073486,1.0032999515533447,0.9827999472618103
1682999265605058000,23.61905810546875,-0.0625,0.6047999858856201,-0.46789997816085815
1682999265625056500,23.639056396484374,0.23629999160766602,0.1437000036239624,-1.6756999492645264
1682999265645058000,23.65905810546875,0.3621000051498413,-0.0722000002861023,-2.069999933242798
1682999265665058000,23.67905810546875,-0.25619998574256897,-0.1761000007390976,-1.9800999164581299
1682999265685058000,23.69905810546875,-1.007099986076355,-0.024899998679757118,-1.6107999086380005
1682999265705058000,23.71905810546875,-1.111799955368042,0.24169999361038208,-1.1445999145507812
1682999265725058000,23.73905810546875,-0.9462999701499939,0.4870999753475189,-1.1281999349594116
1682999265745056500,23.759056396484375,-0.8205999732017517,0.6189999580383301,-1.6098999977111816
1682999265765058000,23.77905810546875,-0.6905999779701233,0.6069999933242798,-1.874899983406067
1682999265785058000,23.79905810546875,-0.664900004863739,0.5404999852180481,-1.8956999778747559
1682999265805058000,23.81905810546875,-0.7168999910354614,0.6482999920845032,-2.4071998596191406
1682999265825056500,23.839056396484374,-0.6839999556541443,0.7863999605178833,-3.023599863052368
1682999265845058000,23.85905810546875,-0.6323999762535095,0.8797000050544739,-3.303999900817871
1682999265865058000,23.87905810546875,-0.7119999527931213,0.8456999659538269,-3.4560999870300293
1682999265885056500,23.899056396484376,-0.2969000041484833,0.673799991607666,-2.295099973678589
1682999265905058000,23.91905810546875,0.5712000131607056,0.3481999933719635,0.7325999736785889
1682999265925058000,23.93905810546875,1.3971999883651733,0.10659999400377274,3.8235998153686523
1682999265945058000,23.95905810546875,1.5994999408721924,-0.11389999836683273,5.058000087738037
1682999265965058000,23.97905810546875,1.7386000156402588,-0.5087999701499939,4.517099857330322
1682999265985058000,23.99905810546875,1.9935998916625977,-0.9024999737739563,3.8169000148773193
1682999266005058000,24.01905810546875,2.03629994392395,-1.5397999286651611,4.0742998123168945
1682999266025056500,24.039056396484376,1.2631999254226685,-1.7376999855041504,5.088599681854248
1682999266045058000,24.05905810546875,0.6370999813079834,-1.3639999628067017,4.827699661254883
1682999266065058000,24.07905810546875,-0.04209999740123749,-1.2312999963760376,3.3396999835968018
1682999266085058000,24.09905810546875,0.6611999869346619,-1.2247999906539917,2.0565998554229736
1682999266105058000,24.11905810546875,1.3270000219345093,-1.2932000160217285,0.7628999948501587
1682999266125056500,24.139056396484374,1.340399980545044,-0.9739999771118164,-0.46769997477531433
1682999266145058000,24.15905810546875,0.5455999970436096,-0.686199963092804,-0.8920999765396118
1682999266165058000,24.17905810546875,-0.28519999980926514,-0.4010999798774719,-0.6888999938964844
1682999266185058000,24.19905810546875,-0.524399995803833,-0.16380000114440918,-0.2727999985218048
1682999266205056500,24.219056396484376,-0.4803999960422516,0.0714000016450882,-0.23639999330043793
1682999266225058000,24.23905810546875,-0.5751000046730042,0.21159999072551727,-0.6974999904632568
1682999266245056500,24.259056396484375,-0.5821999907493591,-0.00019999999494757503,-1.3844999074935913
1682999266265058000,24.27905810546875,-0.27459999918937683,-0.2586999833583832,-2.023099899291992
1682999266285058000,24.29905810546875,0.014800000004470348,-0.5467000007629395,-2.259899854660034
1682999266305058000,24.31905810546875,0.24699999392032623,-0.5202999711036682,-2.202699899673462
1682999266325056500,24.339056396484374,0.30329999327659607,-0.2733999788761139,-1.8041999340057373
1682999266345058000,24.35905810546875,0.11289999634027481,-0.1225999966263771,-1.7409999370574951
1682999266365058000,24.37905810546875,0.011099999770522118,-0.14489999413490295,-1.920799970626831
1682999266385058000,24.39905810546875,0.1039000004529953,-0.25849997997283936,-2.127699851989746
1682999266405058000,24.41905810546875,0.15389999747276306,-0.15209999680519104,-2.009999990463257
1682999266425058000,24.43905810546875,0.14090000092983246,-0.00019999999494757503,-1.591499924659729
1682999266445058000,24.45905810546875,0.031599998474121094,0.23070000112056732,-1.4500999450683594
1682999266465058000,24.47905810546875,-0.140299990773201,0.30159997940063477,-1.972599983215332
1682999266485058000,24.49905810546875,-0.1039000004529953,0.44849997758865356,-2.412899971008301
1682999266505058000,24.51905810546875,0.04270000010728836,0.4487999975681305,-1.6058999300003052
1682999266525056500,24.539056396484376,0.2313999980688095,0.3540000021457672,0.6259999871253967
1682999266545058000,24.55905810546875,0.49449998140335083,0.14010000228881836,2.8681998252868652
1682999266565056500,24.579056396484376,0.7849000096321106,-0.0357000008225441,4.518599987030029
1682999266585058000,24.59905810546875,1.131500005722046,-0.08089999854564667,4.839699745178223
1682999266605058000,24.61905810546875,1.3924999237060547,0.02329999953508377,3.290099859237671
1682999266625056500,24.639056396484374,0.890999972820282,-0.20029999315738678,1.7624999284744263
1682999266645058000,24.65905810546875,0.6110999584197998,-0.9954999685287476,2.446699857711792
1682999266665058000,24.67905810546875,0.3158999979496002,-1.4089000225067139,4.33050012588501
1682999266685058000,24.69905810546875,-0.2313999980688095,-0.9691999554634094,3.699399948120117
1682999266705058000,24.71905810546875,-0.8035999536514282,-0.8881999850273132,1.7615998983383179
1682999266725058000,24.73905810546875,-0.12359999865293503,-0.9377999901771545,0.6309999823570251
1682999266745056500,24.759056396484375,0.4381999969482422,-0.6769999861717224,-0.3750999867916107
1682999266765058000,24.77905810546875,0.17319999635219574,-0.41579997539520264,-0.6858999729156494
1682999266785058000,24.79905810546875,-0.7543999552726746,-0.020899999886751175,-0.3215000033378601
1682999266805058000,24.81905810546875,-1.1403999328613281,0.36039999127388,0.14190000295639038
1682999266825056500,24.839056396484374,-1.1948000192642212,0.6570999622344971,0.19419999420642853
1682999266845058000,24.85905810546875,-0.7935000061988831,0.7098999619483948,-0.2166999876499176
