time,seconds_elapsed,z,y,x
1682999242025056500,0.039056396484375,-0.8551999926567078,-0.9072999954223633,9.726999282836914
1682999242045056500,0.059056396484375,-0.8551999926567078,-0.9072999954223633,9.726999282836914
1682999242065058000,0.07905810546875,-0.8551999926567078,-0.9072999954223633,9.726999282836914
1682999242085058000,0.09905810546875,2.6370999813079834,-0.8306999802589417,9.40880012512207
1682999242105058000,0.11905810546875,2.635999917984009,-0.8308999538421631,9.4089994430542
1682999242125056500,0.139056396484375,2.6294000148773193,-0.8300999999046326,9.410999298095703
1682999242145058000,0.15905810546875,2.6176998615264893,-0.8274999856948853,9.41450023651123
1682999242165059600,0.1790595703125,2.602799892425537,-0.814300000667572,9.419699668884277
1682999242185058000,0.19905810546875,2.598299980163574,-0.7795000076293945,9.42389965057373
1682999242205058000,0.21905810546875,2.589400053024292,-0.7443999648094177,9.429200172424316
1682999242225058000,0.23905810546875,2.5802998542785645,-0.7222999930381775,9.43340015411377
1682999242245058000,0.25905810546875,2.6285998821258545,-0.8643999695777893,9.408100128173828
1682999242265056500,0.279056396484375,2.608599901199341,-0.7838000059127808,9.420700073242188
1682999242285058000,0.29905810546875,2.603799819946289,-0.6520999670028687,9.432099342346191
1682999242305058000,0.31905810546875,2.6022000312805176,-0.6121000051498413,9.435199737548828
1682999242325056500,0.339056396484375,2.594399929046631,-0.6046000123023987,9.437799453735352
1682999242345058000,0.35905810546875,2.5717999935150146,-0.5722000002861023,9.446000099182129
1682999242365058000,0.37905810546875,2.5493998527526855,-0.5313000082969666,9.454500198364258
1682999242385056500,0.399056396484375,2.5322999954223633,-0.5108999609947205,9.460199356079102
1682999242405056500,0.419056396484375,2.537400007247925,-0.49709999561309814,9.459599494934082
1682999242425058000,0.43905810546875,2.540599822998047,-0.4693000018596649,9.460100173950195
1682999242445058000,0.45905810546875,2.54229998588562,-0.4396999776363373,9.461099624633789
1682999242465056500,0.479056396484375,2.5418999195098877,-0.41349998116493225,9.46239948272705
1682999242485058000,0.49905810546875,2.5413999557495117,-0.39149999618530273,9.463500022888184
1682999242505058000,0.51905810546875,2.5358998775482178,-0.38019999861717224,9.465399742126465
1682999242525056500,0.539056396484375,2.530900001525879,-0.38519999384880066,9.466499328613281
1682999242545056500,0.559056396484375,2.536799907684326,-0.4000999927520752,9.464300155639648
1682999242565058000,0.57905810546875,2.543099880218506,-0.41759997606277466,9.461899757385254
1682999242585058000,0.59905810546875,2.5470998287200928,-0.42289999127388,9.460599899291992
1682999242605058000,0.61905810546875,2.552999973297119,-0.41509997844696045,9.45930004119873
1682999242625056500,0.639056396484375,2.551800012588501,-0.4074999988079071,9.460000038146973
1682999242645058000,0.65905810546875,2.5562000274658203,-0.400299996137619,9.459099769592285
1682999242665058000,0.67905810546875,2.5571999549865723,-0.39089998602867126,9.459199905395508
1682999242685058000,0.69905810546875,2.5565998554229736,-0.3985999822616577,9.459099769592285
1682999242705058000,0.71905810546875,2.5408999919891357,-0.44769999384880066,9.461099624633789
1682999242725056500,0.739056396484375,2.5495998859405518,-0.5040000081062317,9.455900192260742
1682999242745056500,0.759056396484375,2.572499990463257,-0.5270999670028687,9.44849967956543
1682999242765056500,0.779056396484375,2.5685999393463135,-0.5212999582290649,9.449899673461914
1682999242785058000,0.79905810546875,2.5546998977661133,-0.5281000137329102,9.45319938659668
1682999242805058000,0.81905810546875,2.539799928665161,-0.5424999594688416,9.456399917602539
1682999242825056500,0.839056396484375,2.5390000343322754,-0.5504999756813049,9.456199645996094
1682999242845058000,0.85905810546875,2.5664000511169434,-0.5503999590873718,9.448800086975098
1682999242865058000,0.87905810546875,2.6023998260498047,-0.5372999906539917,9.43970012664795
1682999242885056500,0.899056396484375,2.630199909210205,-0.5191999673843384,9.432999610900879
1682999242905056500,0.919056396484375,2.648699998855591,-0.5029000043869019,9.428699493408203
1682999242925058000,0.93905810546875,2.66159987449646,-0.4926999807357788,9.425600051879883
1682999242945058000,0.95905810546875,2.6647000312805176,-0.49789997935295105,9.42449951171875
1682999242965058000,0.97905810546875,2.648900032043457,-0.5152999758720398,9.427999496459961
1682999242985058000,0.99905810546875,2.624699831008911,-0.5293999910354614,9.434000015258789
1682999243005058000,1.01905810546875,2.6064000129699707,-0.5361999869346619,9.438699722290039
1682999243025056500,1.039056396484375,2.5836000442504883,-0.5425999760627747,9.444499969482422
1682999243045058000,1.05905810546875,2.561800003051758,-0.5467999577522278,9.450300216674805
1682999243065058000,1.07905810546875,2.532099962234497,-0.5446999669075012,9.458399772644043
1682999243085058000,1.09905810546875,2.5112998485565186,-0.5352999567985535,9.464499473571777
1682999243105058000,1.11905810546875,2.4986000061035156,-0.5081999897956848,9.46929931640625
1682999243125056500,1.139056396484375,2.4874000549316406,-0.4787999987602234,9.473799705505371
1682999243145058000,1.15905810546875,2.4783999919891357,-0.45229998230934143,9.477399826049805
1682999243165058000,1.17905810546875,2.4589998722076416,-0.4205999970436096,9.484000205993652
1682999243185058000,1.19905810546875,2.440000057220459,-0.3901999890804291,9.49020004272461
1682999243205058000,1.21905810546875,2.432800054550171,-0.37449997663497925,9.492599487304688
1682999243225058000,1.23905810546875,2.42549991607666,-0.37229999899864197,9.494599342346191
1682999243245058000,1.25905810546875,2.406899929046631,-0.3628999888896942,9.499699592590332
1682999243265056500,1.279056396484375,2.3803000450134277,-0.3360999822616577,9.507399559020996
1682999243285058000,1.29905810546875,2.348599910736084,-0.30480000376701355,9.516300201416016
1682999243305058000,1.31905810546875,2.3315000534057617,-0.27489998936653137,9.52139949798584
1682999243325056500,1.339056396484375,2.3466999530792236,-0.24650000035762787,9.518499374389648
1682999243345058000,1.35905810546875,2.380699872970581,-0.22929999232292175,9.51039981842041
1682999243365058000,1.37905810546875,2.4033000469207764,-0.2214999943971634,9.505000114440918
1682999243385058000,1.39905810546875,2.3726999759674072,-0.2101999968290329,9.512899398803711
1682999243405058000,1.41905810546875,2.2986998558044434,-0.2061000019311905,9.531099319458008
1682999243425058000,1.43905810546875,2.241299867630005,-0.20250000059604645,9.544899940490723
1682999243445058000,1.45905810546875,2.259899854660034,-0.1606999933719635,9.541299819946289
1682999243465056500,1.479056396484375,2.325899839401245,-0.10480000078678131,9.526199340820312
1682999243485059600,1.4990595703125,2.3545000553131104,-0.09319999814033508,9.519299507141113
1682999243505058000,1.51905810546875,2.3402998447418213,-0.09910000115633011,9.522699356079102
1682999243525056500,1.539056396484375,2.3230998516082764,-0.07440000027418137,9.527199745178223
1682999243545058000,1.55905810546875,2.3594000339508057,-0.0279999990016222,9.518499374389648
1682999243565058000,1.57905810546875,2.450399875640869,0.013599999248981476,9.495499610900879
1682999243585058000,1.59905810546875,2.5379998683929443,0.0058999997563660145,9.47249984741211
1682999243605058000,1.61905810546875,2.56469988822937,-0.07809999585151672,9.464900016784668
1682999243625056500,1.639056396484375,2.5202999114990234,-0.17350000143051147,9.47559928894043
1682999243645058000,1.65905810546875,2.4681999683380127,-0.2505999803543091,9.48759937286377
1682999243665058000,1.67905810546875,2.424999952316284,-0.30309998989105225,9.497200012207031
1682999243685058000,1.69905810546875,2.396399974822998,-0.3455999791622162,9.502999305725098
1682999243705058000,1.71905810546875,2.370499849319458,-0.3837999999523163,9.507999420166016
1682999243725058000,1.73905810546875,2.3546998500823975,-0.4123999774456024,9.510799407958984
1682999243745058000,1.75905810546875,2.356099843978882,-0.4242999851703644,9.509900093078613
1682999243765058000,1.77905810546875,2.3596999645233154,-0.4275999963283539,9.508899688720703
1682999243785058000,1.79905810546875,2.366799831390381,-0.44689998030662537,9.506199836730957
1682999243805058000,1.81905810546875,2.360299825668335,-0.47839999198913574,9.50629997253418
1682999243825056500,1.839056396484375,2.319000005722046,-0.5162999629974365,9.51449966430664
1682999243845058000,1.85905810546875,2.262899875640869,-0.561199963092804,9.525400161743164
1682999243865058000,1.87905810546875,2.242799997329712,-0.5787000060081482,9.529099464416504
1682999243885058000,1.89905810546875,2.2279000282287598,-0.5618999600410461,9.533599853515625
1682999243905058000,1.91905810546875,2.2177000045776367,-0.5335999727249146,9.537599563598633
1682999243925058000,1.93905810546875,2.203699827194214,-0.5069999694824219,9.5423002243042
1682999243945058000,1.95905810546875,2.1808998584747314,-0.4733999967575073,9.549300193786621
1682999243965058000,1.97905810546875,2.1617000102996826,-0.4366999864578247,9.555399894714355
1682999243985058000,1.99905810546875,2.174299955368042,-0.406499981880188,9.553899765014648
1682999244005058000,2.01905810546875,2.188699960708618,-0.38009998202323914,9.5516996383667
1682999244025056500,2.039056396484375,2.1967999935150146,-0.3561999797821045,9.550700187683105
1682999244045058000,2.05905810546875,2.187199831008911,-0.3303000032901764,9.553899765014648
1682999244065058000,2.07905810546875,2.1152000427246094,-0.3199000060558319,9.570399284362793
1682999244085058000,2.09905810546875,2.032099962234497,-0.32009997963905334,9.588399887084961
1682999244105058000,2.11905810546875,1.980299949645996,-0.30169999599456787,9.599800109863281
1682999244125056500,2.139056396484375,1.9707999229431152,-0.27140000462532043,9.602700233459473
1682999244145058000,2.15905810546875,2.006199836730957,-0.22280000150203705,9.596599578857422
1682999244165056500,2.179056396484375,2.0063998699188232,-0.16579999029636383,9.597700119018555
1682999244185058000,2.19905810546875,1.965499997138977,-0.1232999935746193,9.606800079345703
1682999244205058000,2.21905810546875,1.9459999799728394,-0.08889999985694885,9.611199378967285
1682999244225058000,2.23905810546875,1.9670000076293945,-0.05329999700188637,9.607099533081055
1682999244245058000,2.25905810546875,2.0016000270843506,-0.043299999088048935,9.600099563598633
1682999244265056500,2.279056396484375,2.0160000324249268,-0.07959999889135361,9.596799850463867
1682999244285058000,2.29905810546875,2.005699872970581,-0.15240000188350677,9.598099708557129
1682999244305058000,2.31905810546875,1.9859999418258667,-0.23839999735355377,9.6003999710083
1682999244325056500,2.339056396484375,1.9743999242782593,-0.3166999816894531,9.60059928894043
1682999244345058000,2.35905810546875,1.9650999307632446,-0.3756999969482422,9.600299835205078
1682999244365058000,2.37905810546875,1.956299901008606,-0.4140999913215637,9.600500106811523
1682999244385058000,2.39905810546875,1.9530999660491943,-0.4413999915122986,9.59999942779541
1682999244405058000,2.41905810546875,1.945599913597107,-0.46699997782707214,9.600299835205078
1682999244425058000,2.43905810546875,1.9315999746322632,-0.48819997906684875,9.602099418640137
1682999244445058000,2.45905810546875,1.9266999959945679,-0.4910999834537506,9.602899551391602
1682999244465058000,2.47905810546875,1.9204999208450317,-0.4830999970436096,9.604599952697754
1682999244485056500,2.499056396484375,1.9117000102996826,-0.4781999886035919,9.606599807739258
1682999244505058000,2.51905810546875,1.893399953842163,-0.4870999753475189,9.609700202941895
1682999244525056500,2.539056396484375,1.861799955368042,-0.5072000026702881,9.614899635314941
1682999244545058000,2.55905810546875,1.8199999332427979,-0.5324999690055847,9.621500015258789
1682999244565058000,2.57905810546875,1.7888998985290527,-0.5587999820709229,9.625800132751465
1682999244585058000,2.59905810546875,1.774899959564209,-0.5862999558448792,9.626799583435059
1682999244605058000,2.61905810546875,1.7848999500274658,-0.6037999987602234,9.623899459838867
1682999244625056500,2.639056396484375,1.8109999895095825,-0.6180999875068665,9.6181001663208
1682999244645058000,2.65905810546875,1.8508999347686768,-0.6401999592781067,9.609000205993652
1682999244665058000,2.67905810546875,1.8816999197006226,-0.6523000001907349,9.60219955444336
1682999244685058000,2.69905810546875,1.8945999145507812,-0.6496999859809875,9.599899291992188
1682999244705058000,2.71905810546875,1.9267998933792114,-0.6347000002861023,9.594499588012695
1682999244725058000,2.73905810546875,1.9575999975204468,-0.6161999702453613,9.589399337768555
1682999244745058000,2.75905810546875,1.939099907875061,-0.6256999969482422,9.592599868774414
1682999244765058000,2.77905810546875,1.8781999349594116,-0.6552000045776367,9.602700233459473
1682999244785058000,2.79905810546875,1.841399908065796,-0.6626999974250793,9.609299659729004
1682999244805058000,2.81905810546875,1.8644999265670776,-0.6416000127792358,9.60629940032959
1682999244825056500,2.839056396484375,1.9959999322891235,-0.6121000051498413,9.581799507141113
1682999244845058000,2.85905810546875,2.130199909210205,-0.6207000017166138,9.552299499511719
1682999244865058000,2.87905810546875,2.143899917602539,-0.6281999945640564,9.548699378967285
1682999244885058000,2.89905810546875,2.104599952697754,-0.6256999969482422,9.557600021362305
1682999244905058000,2.91905810546875,2.093600034713745,-0.5827000141143799,9.562799453735352
1682999244925058000,2.93905810546875,2.1369998455047607,-0.5349000096321106,9.555999755859375
1682999244945058000,2.95905810546875,2.202399969100952,-0.515999972820282,9.542099952697754
1682999244965058000,2.97905810546875,2.2189998626708984,-0.5324999690055847,9.537399291992188
1682999244985058000,2.99905810546875,2.1745998859405518,-0.5692999958992004,9.545499801635742
1682999245005058000,3.01905810546875,2.1152000427246094,-0.6007999777793884,9.556900024414062
1682999245025056500,3.039056396484375,2.0844998359680176,-0.6205999851226807,9.562399864196777
1682999245045058000,3.05905810546875,2.0759999752044678,-0.6412999629974365,9.562799453735352
1682999245065058000,3.07905810546875,2.0752999782562256,-0.6597999930381775,9.561699867248535
1682999245085058000,3.09905810546875,2.0641000270843506,-0.6791999936103821,9.562799453735352
1682999245105058000,3.11905810546875,2.0428998470306396,-0.696399986743927,9.566100120544434
1682999245125056500,3.139056396484375,2.0256998538970947,-0.7073999643325806,9.568999290466309
1682999245145058000,3.15905810546875,2.0172998905181885,-0.7096999883651733,9.570599555969238
1682999245165056500,3.179056396484375,2.000499963760376,-0.7125999927520752,9.57390022277832
1682999245185056500,3.199056396484375,1.9611999988555908,-0.7218999862670898,9.581299781799316
1682999245205058000,3.21905810546875,1.9185999631881714,-0.73089998960495,9.589300155639648
1682999245225058000,3.23905810546875,1.8863999843597412,-0.7443000078201294,9.594599723815918
1682999245245056500,3.259056396484375,1.869399905204773,-0.7605999708175659,9.596699714660645
1682999245265058000,3.27905810546875,1.8720999956130981,-0.7705000042915344,9.595399856567383
1682999245285058000,3.29905810546875,1.8758999109268188,-0.7741000056266785,9.59429931640625
1682999245305058000,3.31905810546875,1.862399935722351,-0.7820000052452087,9.59630012512207
1682999245325056500,3.339056396484375,1.8418999910354614,-0.7920999526977539,9.59939956665039
1682999245345058000,3.35905810546875,1.8133000135421753,-0.7913999557495117,9.604899406433105
1682999245365058000,3.37905810546875,1.7889999151229858,-0.774399995803833,9.610899925231934
1682999245385058000,3.39905810546875,1.8115999698638916,-0.7364999651908875,9.609600067138672
1682999245405058000,3.41905810546875,1.8538999557495117,-0.6872000098228455,9.605199813842773
1682999245425058000,3.43905810546875,1.881500005722046,-0.6545000076293945,9.602099418640137
1682999245445058000,3.45905810546875,1.8810999393463135,-0.6345999836921692,9.603499412536621
1682999245465058000,3.47905810546875,1.8616999387741089,-0.6072999835014343,9.609099388122559
1682999245485058000,3.49905810546875,1.8528999090194702,-0.564300000667572,9.613399505615234
1682999245505058000,3.51905810546875,1.878499984741211,-0.5151000022888184,9.611199378967285
1682999245525056500,3.539056396484375,1.9063999652862549,-0.4733999967575073,9.607799530029297
1682999245545058000,3.55905810546875,1.9031999111175537,-0.45179998874664307,9.60949993133545
1682999245565058000,3.57905810546875,1.8851999044418335,-0.44679999351501465,9.613299369812012
1682999245585058000,3.59905810546875,1.8681999444961548,-0.45089998841285706,9.616399765014648
1682999245605058000,3.61905810546875,1.868899941444397,-0.4567999839782715,9.616000175476074
1682999245625056500,3.639056396484375,1.882699966430664,-0.4587000012397766,9.613200187683105
1682999245645058000,3.65905810546875,1.893799901008606,-0.4592999815940857,9.611000061035156
1682999245665058000,3.67905810546875,1.897499918937683,-0.46219998598098755,9.610199928283691
1682999245685058000,3.69905810546875,1.8977999687194824,-0.46399998664855957,9.609999656677246
1682999245705058000,3.71905810546875,1.9000999927520752,-0.4722999930381775,9.609099388122559
1682999245725058000,3.73905810546875,1.9078999757766724,-0.4843999743461609,9.606999397277832
1682999245745058000,3.75905810546875,1.909999966621399,-0.4901999831199646,9.60629940032959
1682999245765058000,3.77905810546875,1.893399953842163,-0.491599977016449,9.60949993133545
1682999245785058000,3.79905810546875,1.8716999292373657,-0.486299991607666,9.613999366760254
1682999245805058000,3.81905810546875,1.8513998985290527,-0.48579999804496765,9.618000030517578
1682999245825058000,3.83905810546875,1.831399917602539,-0.4899999797344208,9.621600151062012
1682999245845058000,3.85905810546875,1.8082000017166138,-0.48829999566078186,9.626099586486816
1682999245865058000,3.87905810546875,1.7827999591827393,-0.4790000021457672,9.63129997253418
1682999245885058000,3.89905810546875,1.758099913597107,-0.4651999771595001,9.636499404907227
1682999245905058000,3.91905810546875,1.7380999326705933,-0.4585999846458435,9.640399932861328
1682999245925058000,3.93905810546875,1.7108999490737915,-0.4601999819278717,9.6451997756958
1682999245945058000,3.95905810546875,1.6776999235153198,-0.46230000257492065,9.651000022888184
1682999245965058000,3.97905810546875,1.6524999141693115,-0.4607999920845032,9.655399322509766
1682999245985056500,3.999056396484375,1.625999927520752,-0.4569999873638153,9.660099983215332
1682999246005058000,4.01905810546875,1.611199975013733,-0.4562999904155731,9.662599563598633
1682999246025056500,4.039056396484375,1.6047999858856201,-0.4530999958515167,9.663799285888672
1682999246045058000,4.05905810546875,1.600600004196167,-0.45260000228881836,9.664499282836914
1682999246065058000,4.07905810546875,1.6073999404907227,-0.4470999836921692,9.663599967956543
1682999246085058000,4.09905810546875,1.6136000156402588,-0.43449997901916504,9.663199424743652
1682999246105058000,4.11905810546875,1.5930999517440796,-0.4170999825000763,9.6673002243042
1682999246125056500,4.139056396484375,1.5484999418258667,-0.3978999853134155,9.675399780273438
1682999246145058000,4.15905810546875,1.544600009918213,-0.37849998474121094,9.676799774169922
1682999246165058000,4.17905810546875,1.5654000043869019,-0.35099998116493225,9.67449951171875
1682999246185058000,4.19905810546875,1.5956000089645386,-0.3211999833583832,9.670599937438965
1682999246205058000,4.21905810546875,1.6651999950408936,-0.28029999136924744,9.660099983215332
1682999246225058000,4.23905810546875,1.7115999460220337,-0.22679999470710754,9.653399467468262
1682999246245056500,4.259056396484375,1.7019999027252197,-0.19269999861717224,9.655799865722656
1682999246265056500,4.279056396484375,1.7069000005722046,-0.17299999296665192,9.655399322509766
1682999246285058000,4.29905810546875,1.7149999141693115,-0.16539999842643738,9.653999328613281
1682999246305058000,4.31905810546875,1.7179999351501465,-0.16859999299049377,9.653499603271484
1682999246325056500,4.339056396484375,1.7187999486923218,-0.17829999327659607,9.65310001373291
1682999246345058000,4.35905810546875,1.7238999605178833,-0.1841999888420105,9.652099609375
1682999246365058000,4.37905810546875,1.7522999048233032,-0.1833999902009964,9.64699935913086
1682999246385058000,4.39905810546875,1.8102999925613403,-0.19179999828338623,9.636099815368652
1682999246405058000,4.41905810546875,1.8671000003814697,-0.22119998931884766,9.624699592590332
1682999246425058000,4.43905810546875,1.88919997215271,-0.27059999108314514,9.619099617004395
1682999246445058000,4.45905810546875,1.8781999349594116,-0.3246999979019165,9.619599342346191
1682999246465058000,4.47905810546875,1.848099946975708,-0.38439998030662537,9.623199462890625
1682999246485058000,4.49905810546875,1.833799958229065,-0.44209998846054077,9.623499870300293
1682999246505058000,4.51905810546875,1.8321999311447144,-0.4912000000476837,9.621399879455566
1682999246525056500,4.539056396484375,1.833299994468689,-0.5338999629020691,9.61889934539795
1682999246545058000,4.55905810546875,1.840499997138977,-0.5720999836921692,9.615300178527832
1682999246565058000,4.57905810546875,1.8492000102996826,-0.6161999702453613,9.610899925231934
1682999246585058000,4.59905810546875,1.8413000106811523,-0.666700005531311,9.609099388122559
1682999246605058000,4.61905810546875,1.8252999782562256,-0.7103999853134155,9.609000205993652
1682999246625056500,4.639056396484375,1.8113999366760254,-0.7401999831199646,9.609399795532227
1682999246645058000,4.65905810546875,1.8141999244689941,-0.7597999572753906,9.6072998046875
1682999246665058000,4.67905810546875,1.8370999097824097,-0.7633999586105347,9.602700233459473
1682999246685058000,4.69905810546875,1.892300009727478,-0.748199999332428,9.593099594116211
1682999246705058000,4.71905810546875,1.9430999755859375,-0.7268999814987183,9.584599494934082
1682999246725058000,4.73905810546875,1.956399917602539,-0.7177000045776367,9.582599639892578
1682999246745056500,4.759056396484375,1.9530999660491943,-0.7138999700546265,9.583600044250488
1682999246765058000,4.77905810546875,1.992799997329712,-0.6672999858856201,9.578800201416016
1682999246785058000,4.79905810546875,2.076900005340576,-0.5733000040054321,9.566999435424805
1682999246805058000,4.81905810546875,2.1873998641967773,-0.4730999767780304,9.547800064086914
1682999246825056500,4.839056396484375,2.22379994392395,-0.4226999878883362,9.541799545288086
1682999246845058000,4.85905810546875,2.184999942779541,-0.45509999990463257,9.549200057983398
1682999246865058000,4.87905810546875,2.186800003051758,-0.4477999806404114,9.549200057983398
1682999246885058000,4.89905810546875,2.227599859237671,-0.35679998993873596,9.543600082397461
1682999246905058000,4.91905810546875,2.2978999614715576,-0.2921999990940094,9.529099464416504
1682999246925058000,4.93905810546875,2.3459999561309814,-0.31540000438690186,9.516599655151367
1682999246945058000,4.95905810546875,2.335099935531616,-0.37389999628067017,9.517199516296387
1682999246965058000,4.97905810546875,2.2871999740600586,-0.41130000352859497,9.527299880981445
1682999246985056500,4.999056396484375,2.241499900817871,-0.42890000343322754,9.537300109863281
1682999247005058000,5.01905810546875,2.210599899291992,-0.4339999854564667,9.544300079345703
1682999247025056500,5.039056396484375,2.18149995803833,-0.4391999840736389,9.550799369812012
1682999247045058000,5.05905810546875,2.140199899673462,-0.447299987077713,9.559700012207031
1682999247065058000,5.07905810546875,2.09879994392395,-0.45619997382164,9.568499565124512
1682999247085058000,5.09905810546875,2.080699920654297,-0.4546999931335449,9.572500228881836
1682999247105058000,5.11905810546875,2.0808000564575195,-0.44529998302459717,9.57289981842041
1682999247125056500,5.139056396484375,2.083400011062622,-0.43469998240470886,9.57289981842041
1682999247145058000,5.15905810546875,2.082399845123291,-0.42649999260902405,9.573399543762207
1682999247165058000,5.17905810546875,2.0822999477386475,-0.42409998178482056,9.573599815368652
1682999247185058000,5.19905810546875,2.0827999114990234,-0.43059998750686646,9.573200225830078
1682999247205058000,5.21905810546875,2.092599868774414,-0.44369998574256897,9.570399284362793
1682999247225058000,5.23905810546875,2.1111998558044434,-0.45339998602867126,9.565899848937988
1682999247245059600,5.2590595703125,2.1466000080108643,-0.4465999901294708,9.558300018310547
1682999247265058000,5.27905810546875,2.1902999877929688,-0.4377000033855438,9.548799514770508
1682999247285059600,5.2990595703125,2.2082998752593994,-0.41419997811317444,9.545700073242188
1682999247305058000,5.31905810546875,2.210099935531616,-0.3958999812602997,9.546099662780762
1682999247325056500,5.339056396484375,2.1900999546051025,-0.3903999924659729,9.550899505615234
1682999247345061000,5.35906103515625,2.1404998302459717,-0.3967999815940857,9.56190013885498
1682999247365058000,5.37905810546875,2.1347999572753906,-0.4034999907016754,9.562899589538574
1682999247385058000,5.39905810546875,2.204200029373169,-0.3822999894618988,9.547999382019043
1682999247405058000,5.41905810546875,2.283599853515625,-0.32199999690055847,9.531599998474121
1682999247425058000,5.43905810546875,2.3202998638153076,-0.23240000009536743,9.525300025939941
1682999247445058000,5.45905810546875,2.3093998432159424,-0.1533999890089035,9.529500007629395
1682999247465058000,5.47905810546875,2.3272998332977295,-0.10969999432563782,9.525799751281738
1682999247485058000,5.49905810546875,2.3942999839782715,-0.08630000054836273,9.5093994140625
1682999247505058000,5.51905810546875,2.4574999809265137,-0.08299999684095383,9.49329948425293
1682999247525056500,5.539056396484375,2.4672999382019043,-0.09640000015497208,9.490699768066406
1682999247545058000,5.55905810546875,2.4393999576568604,-0.1193000003695488,9.497599601745605
1682999247565058000,5.57905810546875,2.4285998344421387,-0.14959999918937683,9.499899864196777
1682999247585058000,5.59905810546875,2.4477999210357666,-0.16869999468326569,9.494699478149414
1682999247605058000,5.61905810546875,2.4746999740600586,-0.17999999225139618,9.487500190734863
1682999247625056500,5.639056396484375,2.478799819946289,-0.1931999921798706,9.486199378967285
1682999247645058000,5.65905810546875,2.444399833679199,-0.2184000015258789,9.494500160217285
1682999247665056500,5.679056396484375,2.4003000259399414,-0.24789999425411224,9.505099296569824
1682999247685058000,5.69905810546875,2.3713998794555664,-0.27879998087882996,9.511499404907227
1682999247705058000,5.71905810546875,2.3666000366210938,-0.3017999827861786,9.51200008392334
1682999247725058000,5.73905810546875,2.372999906539917,-0.3188000023365021,9.50979995727539
1682999247745056500,5.759056396484375,2.3696000576019287,-0.3401999771595001,9.509900093078613
1682999247765058000,5.77905810546875,2.3596999645233154,-0.3684999942779541,9.511300086975098
1682999247785058000,5.79905810546875,2.34879994392395,-0.39879998564720154,9.512800216674805
1682999247805058000,5.81905810546875,2.3541998863220215,-0.4253999888896942,9.510299682617188
1682999247825056500,5.839056396484375,2.3708999156951904,-0.4513999819755554,9.505000114440918
1682999247845058000,5.85905810546875,2.381899833679199,-0.4733999967575073,9.501099586486816
1682999247865058000,5.87905810546875,2.390699863433838,-0.494299978017807,9.497900009155273
1682999247885056500,5.899056396484375,2.3828999996185303,-0.5184999704360962,9.498499870300293
1682999247905058000,5.91905810546875,2.3690998554229736,-0.5449000000953674,9.500499725341797
1682999247925058000,5.93905810546875,2.358799934387207,-0.5674999952316284,9.501699447631836
1682999247945058000,5.95905810546875,2.3641998767852783,-0.5787999629974365,9.499699592590332
1682999247965058000,5.97905810546875,2.3768999576568604,-0.586899995803833,9.495999336242676
1682999247985056500,5.999056396484375,2.36299991607666,-0.5950999855995178,9.49899959564209
1682999248005058000,6.01905810546875,2.327899932861328,-0.5996999740600586,9.507399559020996
1682999248025056500,6.039056396484375,2.2899999618530273,-0.585599958896637,9.517499923706055
1682999248045058000,6.05905810546875,2.3027000427246094,-0.5489999651908875,9.516599655151367
1682999248065058000,6.07905810546875,2.3580000400543213,-0.49549999833106995,9.505999565124512
1682999248085058000,6.09905810546875,2.3980000019073486,-0.43209999799728394,9.499099731445312
1682999248105058000,6.11905810546875,2.3854000568389893,-0.3889999985694885,9.50409984588623
1682999248125056500,6.139056396484375,2.3725998401641846,-0.352400004863739,9.508699417114258
1682999248145058000,6.15905810546875,2.3892998695373535,-0.31129997968673706,9.505999565124512
1682999248165058000,6.17905810546875,2.4110000133514404,-0.289900004863739,9.501199722290039
1682999248185058000,6.19905810546875,2.4321999549865723,-0.29749998450279236,9.495499610900879
1682999248205058000,6.21905810546875,2.4403998851776123,-0.3206000030040741,9.49269962310791
1682999248225056500,6.239056396484375,2.4321999549865723,-0.3547999858856201,9.493599891662598
1682999248245056500,6.259056396484375,2.4308998584747314,-0.3959999978542328,9.492300033569336
1682999248265058000,6.27905810546875,2.4321000576019287,-0.44020000100135803,9.489999771118164
1682999248285058000,6.29905810546875,2.4315998554229736,-0.47259998321533203,9.48859977722168
1682999248305058000,6.31905810546875,2.426300048828125,-0.4878999888896942,9.4891996383667
1682999248325056500,6.339056396484375,2.4268999099731445,-0.5008999705314636,9.488299369812012
1682999248345058000,6.35905810546875,2.4258999824523926,-0.5227999687194824,9.48740005493164
1682999248365058000,6.37905810546875,2.4148998260498047,-0.5410999655723572,9.4891996383667
1682999248385058000,6.39905810546875,2.400599956512451,-0.5482999682426453,9.492400169372559
1682999248405058000,6.41905810546875,2.390699863433838,-0.5532999634742737,9.494599342346191
1682999248425058000,6.43905810546875,2.3792998790740967,-0.5658000111579895,9.496699333190918
1682999248445058000,6.45905810546875,2.3587000370025635,-0.5807999968528748,9.500999450683594
1682999248465058000,6.47905810546875,2.334699869155884,-0.5896999835968018,9.506400108337402
1682999248485058000,6.49905810546875,2.313499927520752,-0.5910999774932861,9.51140022277832
1682999248505058000,6.51905810546875,2.3076000213623047,-0.5878999829292297,9.513099670410156
1682999248525056500,6.539056396484375,2.316699981689453,-0.5816999673843384,9.511199951171875
1682999248545058000,6.55905810546875,2.322200059890747,-0.5769000053405762,9.510199546813965
1682999248565058000,6.57905810546875,2.308199882507324,-0.5751999616622925,9.513699531555176
1682999248585058000,6.59905810546875,2.2802999019622803,-0.5712000131607056,9.520699501037598
1682999248605058000,6.61905810546875,2.237499952316284,-0.5699999928474426,9.530900001525879
1682999248625056500,6.639056396484375,2.174499988555908,-0.5676999688148499,9.545599937438965
1682999248645058000,6.65905810546875,2.1019999980926514,-0.5544999837875366,9.562600135803223
1682999248665058000,6.67905810546875,2.1053998470306396,-0.5130000114440918,9.564199447631836
1682999248685058000,6.69905810546875,2.2391998767852783,-0.4447000026702881,9.537099838256836
1682999248705058000,6.71905810546875,2.4171998500823975,-0.37689998745918274,9.496500015258789
1682999248725058000,6.73905810546875,2.488499879837036,-0.3253999948501587,9.479999542236328
1682999248745056500,6.759056396484375,2.432499885559082,-0.31379997730255127,9.49489974975586
1682999248765058000,6.77905810546875,2.3935999870300293,-0.2953000068664551,9.505399703979492
1682999248785058000,6.79905810546875,2.447700023651123,-0.2655999958515167,9.492499351501465
1682999248805058000,6.81905810546875,2.5515999794006348,-0.2599000036716461,9.46519947052002
1682999248825056500,6.839056396484375,2.6123998165130615,-0.27539998292922974,9.448200225830078
1682999248845058000,6.85905810546875,2.5807998180389404,-0.31520000100135803,9.455599784851074
1682999248865058000,6.87905810546875,2.497499942779541,-0.3617999851703644,9.476299285888672
1682999248885058000,6.89905810546875,2.426499843597412,-0.41499999165534973,9.492599487304688
1682999248905058000,6.91905810546875,2.4168999195098877,-0.45879998803138733,9.493000030517578
1682999248925058000,6.93905810546875,2.4263999462127686,-0.4885999858379364,9.489099502563477
1682999248945058000,6.95905810546875,2.4177000522613525,-0.5101000070571899,9.49020004272461
1682999248965058000,6.97905810546875,2.3907999992370605,-0.5254999995231628,9.496199607849121
1682999248985058000,6.99905810546875,2.364799976348877,-0.5449999570846558,9.501599311828613
1682999249005058000,7.01905810546875,2.344099998474121,-0.5674999952316284,9.505399703979492
1682999249025056500,7.039056396484375,2.3255999088287354,-0.5920000076293945,9.508399963378906
1682999249045058000,7.05905810546875,2.304999828338623,-0.6141999959945679,9.51200008392334
1682999249065058000,7.07905810546875,2.2797999382019043,-0.6384999752044678,9.516499519348145
1682999249085058000,7.09905810546875,2.252500057220459,-0.6674999594688416,9.520999908447266
1682999249105058000,7.11905810546875,2.2437000274658203,-0.6935999989509583,9.521200180053711
1682999249125056500,7.139056396484375,2.2488999366760254,-0.7091999650001526,9.518899917602539
1682999249145058000,7.15905810546875,2.2605998516082764,-0.7145000100135803,9.51569938659668
1682999249165058000,7.17905810546875,2.271199941635132,-0.7120999693870544,9.513299942016602
1682999249185058000,7.19905810546875,2.27620005607605,-0.7077999711036682,9.512499809265137
1682999249205058000,7.21905810546875,2.267400026321411,-0.7085999846458435,9.51449966430664
1682999249225058000,7.23905810546875,2.2507998943328857,-0.7106999754905701,9.51830005645752
1682999249245056500,7.259056396484375,2.240000009536743,-0.6953999996185303,9.52199935913086
1682999249265058000,7.27905810546875,2.218899965286255,-0.6789000034332275,9.52810001373291
1682999249285058000,7.29905810546875,2.20389986038208,-0.6694999933242798,9.53219985961914
1682999249305058000,7.31905810546875,2.1994998455047607,-0.6430999636650085,9.535099983215332
1682999249325056500,7.339056396484375,2.2017998695373535,-0.5967000126838684,9.537599563598633
1682999249345058000,7.35905810546875,2.2430999279022217,-0.538100004196167,9.531399726867676
1682999249365058000,7.37905810546875,2.3141000270843506,-0.4721999764442444,9.517899513244629
1682999249385058000,7.39905810546875,2.3805999755859375,-0.412200003862381,9.504300117492676
1682999249405058000,7.41905810546875,2.4370999336242676,-0.37139999866485596,9.491700172424316
1682999249425058000,7.43905810546875,2.4193999767303467,-0.3707999885082245,9.496199607849121
1682999249445058000,7.45905810546875,2.3552000522613525,-0.4048999845981598,9.51099967956543
1682999249465058000,7.47905810546875,2.333899974822998,-0.42170000076293945,9.51550006866455
1682999249485058000,7.49905810546875,2.354599952697754,-0.4212999939918518,9.51039981842041
1682999249505058000,7.51905810546875,2.385200023651123,-0.4324999749660492,9.50220012664795
1682999249525056500,7.539056396484375,2.400399923324585,-0.4520999789237976,9.497499465942383
1682999249545058000,7.55905810546875,2.386199951171875,-0.47200000286102295,9.500100135803223
1682999249565058000,7.57905810546875,2.3636999130249023,-0.4935999810695648,9.50469970703125
1682999249585058000,7.59905810546875,2.351099967956543,-0.5185999870300293,9.506499290466309
1682999249605058000,7.61905810546875,2.3548998832702637,-0.5426999926567078,9.504199981689453
1682999249625056500,7.639056396484375,2.3480000495910645,-0.5600000023841858,9.504899978637695
1682999249645058000,7.65905810546875,2.3195998668670654,-0.5740000009536743,9.51099967956543
1682999249665058000,7.67905810546875,2.2781999111175537,-0.5891000032424927,9.520099639892578
1682999249685056500,7.699056396484375,2.2379000186920166,-0.602400004863739,9.528800010681152
1682999249705058000,7.71905810546875,2.2152998447418213,-0.6078000068664551,9.533699989318848
1682999249725058000,7.73905810546875,2.2026000022888184,-0.6035000085830688,9.536999702453613
1682999249745056500,7.759056396484375,2.1937999725341797,-0.6007999777793884,9.539199829101562
1682999249765056500,7.779056396484375,2.1747000217437744,-0.6017000079154968,9.543499946594238
1682999249785058000,7.79905810546875,2.147599935531616,-0.6061999797821045,9.549300193786621
1682999249805058000,7.81905810546875,2.1233999729156494,-0.6078000068664551,9.55459976196289
1682999249825056500,7.839056396484375,2.110100030899048,-0.6018999814987183,9.557999610900879
1682999249845058000,7.85905810546875,2.1152000427246094,-0.5910999774932861,9.557499885559082
1682999249865058000,7.87905810546875,2.1285998821258545,-0.5805000066757202,9.55519962310791
1682999249885058000,7.89905810546875,2.148099899291992,-0.5676000118255615,9.551599502563477
1682999249905059600,7.9190595703125,2.1670000553131104,-0.5482000112533569,9.548399925231934
1682999249925058000,7.93905810546875,2.152400016784668,-0.5324000120162964,9.552599906921387
1682999249945058000,7.95905810546875,2.1164000034332275,-0.5202000141143799,9.561399459838867
1682999249965058000,7.97905810546875,2.0917999744415283,-0.4973999857902527,9.567999839782715
1682999249985058000,7.99905810546875,2.103800058364868,-0.46469998359680176,9.566999435424805
1682999250005058000,8.01905810546875,2.1469998359680176,-0.4373999834060669,9.558699607849121
1682999250025056500,8.039056396484375,2.1884000301361084,-0.4138999879360199,9.550299644470215
1682999250045058000,8.05905810546875,2.1970999240875244,-0.39659997820854187,9.549099922180176
1682999250065058000,8.07905810546875,2.195199966430664,-0.3910999894142151,9.549699783325195
1682999250085058000,8.09905810546875,2.2179999351501465,-0.39309999346733093,9.544400215148926
1682999250105058000,8.11905810546875,2.252699851989746,-0.40709999203681946,9.535699844360352
1682999250125056500,8.139056396484374,2.2670998573303223,-0.4364999830722809,9.530900001525879
1682999250145058000,8.15905810546875,2.2440998554229736,-0.4681999981403351,9.534899711608887
1682999250165058000,8.17905810546875,2.204400062561035,-0.4902999997138977,9.543000221252441
1682999250185058000,8.19905810546875,2.182999849319458,-0.49570000171661377,9.547699928283691
1682999250205058000,8.21905810546875,2.1947999000549316,-0.4916999936103821,9.545199394226074
1682999250225058000,8.23905810546875,2.225600004196167,-0.49069997668266296,9.53809928894043
1682999250245056500,8.259056396484375,2.2512998580932617,-0.4984999895095825,9.531700134277344
1682999250265058000,8.27905810546875,2.256999969482422,-0.5142999887466431,9.529500007629395
1682999250285058000,8.29905810546875,2.2423999309539795,-0.5349000096321106,9.53179931640625
1682999250305058000,8.31905810546875,2.209699869155884,-0.5641999840736389,9.537699699401855
1682999250325058000,8.33905810546875,2.1735999584198,-0.6060000061988831,9.543499946594238
1682999250345058000,8.35905810546875,2.1541998386383057,-0.6548999547958374,9.544599533081055
1682999250365058000,8.37905810546875,2.170599937438965,-0.699999988079071,9.537699699401855
1682999250385058000,8.39905810546875,2.2009999752044678,-0.7425000071525574,9.52750015258789
1682999250405056500,8.419056396484375,2.2221999168395996,-0.7845999598503113,9.51919937133789
1682999250425061000,8.43906103515625,2.230299949645996,-0.8199999928474426,9.514299392700195
1682999250445061000,8.45906103515625,2.2314000129699707,-0.8482999801635742,9.51159954071045
1682999250465059600,8.4790595703125,2.231799840927124,-0.8752999901771545,9.509099960327148
1682999250485058000,8.49905810546875,2.2321999073028564,-0.9045999646186829,9.506199836730957
1682999250505058000,8.51905810546875,2.2345998287200928,-0.925599992275238,9.503600120544434
1682999250525058000,8.53905810546875,2.2433998584747314,-0.9284999966621399,9.501299858093262
1682999250545058000,8.55905810546875,2.2604000568389893,-0.9116999506950378,9.498899459838867
1682999250565058000,8.57905810546875,2.2704999446868896,-0.8851999640464783,9.49899959564209
1682999250585058000,8.59905810546875,2.2904999256134033,-0.8583999872207642,9.496600151062012
1682999250605058000,8.61905810546875,2.2908999919891357,-0.843999981880188,9.49779987335205
1682999250625056500,8.639056396484374,2.2869999408721924,-0.8395999670028687,9.499099731445312
1682999250645058000,8.65905810546875,2.299099922180176,-0.8149999976158142,9.49839973449707
1682999250665058000,8.67905810546875,2.3271000385284424,-0.7671999931335449,9.495499610900879
1682999250685058000,8.69905810546875,2.3524999618530273,-0.7129999995231628,9.493499755859375
1682999250705058000,8.71905810546875,2.3583998680114746,-0.6647999882698059,9.495499610900879
1682999250725058000,8.73905810546875,2.348599910736084,-0.616100013256073,9.501299858093262
1682999250745056500,8.759056396484375,2.32099986076355,-0.5694999694824219,9.510899543762207
1682999250765058000,8.77905810546875,2.293599843978882,-0.5328999757766724,9.519700050354004
1682999250785058000,8.79905810546875,2.2802999019622803,-0.5076000094413757,9.524299621582031
1682999250805058000,8.81905810546875,2.2695999145507812,-0.487199991941452,9.527899742126465
1682999250825056500,8.839056396484375,2.2535998821258545,-0.4544000029563904,9.533299446105957
1682999250845058000,8.85905810546875,2.251999855041504,-0.41189998388290405,9.535599708557129
1682999250865058000,8.87905810546875,2.2604000568389893,-0.37459999322891235,9.535200119018555
1682999250885058000,8.89905810546875,2.2762999534606934,-0.3538999855518341,9.53219985961914
1682999250905058000,8.91905810546875,2.286799907684326,-0.3473999798297882,9.529899597167969
1682999250925058000,8.93905810546875,2.2799999713897705,-0.3458999991416931,9.531599998474121
1682999250945058000,8.95905810546875,2.25849986076355,-0.34599998593330383,9.536699295043945
1682999250965058000,8.97905810546875,2.235499858856201,-0.35099998116493225,9.541899681091309
1682999250985058000,8.99905810546875,2.2269999980926514,-0.367499977350235,9.543299674987793
1682999251005058000,9.01905810546875,2.2361998558044434,-0.3919999897480011,9.540200233459473
1682999251025056500,9.039056396484375,2.2498998641967773,-0.41990000009536743,9.535799980163574
1682999251045058000,9.05905810546875,2.260499954223633,-0.4545999765396118,9.531700134277344
1682999251065058000,9.07905810546875,2.262899875640869,-0.49309998750686646,9.529199600219727
1682999251085058000,9.09905810546875,2.263399839401245,-0.5371999740600586,9.526700019836426
1682999251105058000,9.11905810546875,2.259999990463257,-0.5870999693870544,9.524499893188477
1682999251125056500,9.139056396484374,2.2472000122070312,-0.6363999843597412,9.524399757385254
1682999251145058000,9.15905810546875,2.2370998859405518,-0.6747999787330627,9.524099349975586
1682999251165056500,9.179056396484375,2.237499952316284,-0.7055000066757202,9.52180004119873
1682999251185058000,9.19905810546875,2.2410998344421387,-0.7289999723434448,9.51919937133789
1682999251205058000,9.21905810546875,2.2396998405456543,-0.7405999898910522,9.518599510192871
1682999251225058000,9.23905810546875,2.235599994659424,-0.7427999973297119,9.519399642944336
1682999251245056500,9.259056396484375,2.238999843597412,-0.7443999648094177,9.518499374389648
1682999251265058000,9.27905810546875,2.256199836730957,-0.7529999613761902,9.513799667358398
1682999251285058000,9.29905810546875,2.276599884033203,-0.7714999914169312,9.507399559020996
1682999251305058000,9.31905810546875,2.2639999389648438,-0.8017999529838562,9.507899284362793
1682999251325056500,9.339056396484375,2.225800037384033,-0.8438999652862549,9.513299942016602
1682999251345056500,9.359056396484375,2.194499969482422,-0.8934999704360962,9.515999794006348
1682999251365056500,9.379056396484375,2.1758999824523926,-0.9269999861717224,9.517099380493164
1682999251385056500,9.399056396484376,2.188499927520752,-0.9312999844551086,9.513799667358398
1682999251405056500,9.419056396484375,2.223299980163574,-0.9156000018119812,9.507299423217773
1682999251425056500,9.439056396484375,2.277400016784668,-0.8944000005722046,9.496500015258789
1682999251445056500,9.459056396484375,2.3409998416900635,-0.8695999979972839,9.48330020904541
1682999251465056500,9.479056396484374,2.3910000324249268,-0.8441999554634094,9.473099708557129
1682999251485056500,9.499056396484375,2.4156999588012695,-0.827299952507019,9.468299865722656
1682999251505056500,9.519056396484375,2.434999942779541,-0.8208999633789062,9.463899612426758
1682999251525056500,9.539056396484375,2.4559998512268066,-0.8188999891281128,9.458700180053711
1682999251545056500,9.559056396484374,2.4837000370025635,-0.8165000081062317,9.451600074768066
1682999251565056500,9.579056396484376,2.513000011444092,-0.8202999830245972,9.443599700927734
1682999251585056500,9.599056396484375,2.5434000492095947,-0.8240000009536743,9.435099601745605
1682999251605056500,9.619056396484375,2.5717999935150146,-0.8228999972343445,9.427499771118164
1682999251625056500,9.639056396484374,2.5908000469207764,-0.8166999816894531,9.422800064086914
1682999251645056500,9.659056396484376,2.6064000129699707,-0.819599986076355,9.418299674987793
1682999251665056500,9.679056396484375,2.618799924850464,-0.8301999568939209,9.413899421691895
1682999251685056500,9.699056396484375,2.631899833679199,-0.8385999798774719,9.409500122070312
1682999251705056500,9.719056396484374,2.643199920654297,-0.8409000039100647,9.406099319458008
1682999251725056500,9.739056396484376,2.6504998207092285,-0.8428999781608582,9.403900146484375
1682999251745056500,9.759056396484375,2.655900001525879,-0.8507999777793884,9.401700019836426
1682999251765056500,9.779056396484375,2.6562998294830322,-0.8662999868392944,9.400199890136719
1682999251785056500,9.799056396484374,2.646399974822998,-0.8815999627113342,9.40149974822998
1682999251805056500,9.819056396484376,2.63319993019104,-0.8890999555587769,9.404500007629395
1682999251825056500,9.839056396484375,2.6289000511169434,-0.8901999592781067,9.405599594116211
1682999251845056500,9.859056396484375,2.6410999298095703,-0.8899999856948853,9.402199745178223
1682999251865056500,9.879056396484375,2.6504998207092285,-0.8920999765396118,9.399399757385254
1682999251885056500,9.899056396484376,2.6449999809265137,-0.897599995136261,9.400400161743164
1682999251905056500,9.919056396484375,2.6350998878479004,-0.8973999619483948,9.403200149536133
1682999251925056500,9.939056396484375,2.6328999996185303,-0.8931999802589417,9.404199600219727
1682999251945056500,9.959056396484375,2.63100004196167,-0.8930999636650085,9.404799461364746
1682999251965056500,9.979056396484374,2.622499942779541,-0.8928999900817871,9.407099723815918
1682999251985056500,9.999056396484375,2.6187000274658203,-0.8916999697685242,9.408299446105957
1682999252005056500,10.019056396484375,2.6225998401641846,-0.8908999562263489,9.407299995422363
1682999252025056500,10.039056396484375,2.618799924850464,-0.9061999917030334,9.406899452209473
1682999252045059600,10.0590595703125,2.6157000064849854,-0.9422000050544739,9.404199600219727
1682999252065058000,10.07905810546875,2.625,-0.9736999869346619,9.398399353027344
1682999252085061000,10.09906103515625,2.6496999263763428,-0.9901999831199646,9.389800071716309
1682999252105058000,10.11905810546875,2.675999879837036,-1.001099944114685,9.381199836730957
1682999252125056500,10.139056396484374,2.6991000175476074,-1.0180000066757202,9.372699737548828
1682999252145058000,10.15905810546875,2.6982998847961426,-1.0396000146865845,9.370499610900879
1682999252165058000,10.17905810546875,2.672600030899048,-1.055899977684021,9.376099586486816
1682999252185058000,10.19905810546875,2.6414999961853027,-1.0647000074386597,9.383899688720703
1682999252205058000,10.21905810546875,2.6352999210357666,-1.0657999515533447,9.385499954223633
1682999252225058000,10.23905810546875,2.6552999019622803,-1.062399983406067,9.38029956817627
1682999252245056500,10.259056396484375,2.662299871444702,-1.0607999563217163,9.378499984741211
1682999252265058000,10.27905810546875,2.6457998752593994,-1.0536999702453613,9.383899688720703
1682999252285058000,10.29905810546875,2.6210999488830566,-1.0468000173568726,9.391599655151367
1682999252305058000,10.31905810546875,2.6059000492095947,-1.0475000143051147,9.39579963684082
1682999252325056500,10.339056396484375,2.6068999767303467,-1.049899935722351,9.395299911499023
1682999252345056500,10.359056396484375,2.602599859237671,-1.0472999811172485,9.396699905395508
1682999252365059600,10.3790595703125,2.581399917602539,-1.0397999286651611,9.403399467468262
1682999252385059600,10.3990595703125,2.5432000160217285,-1.0331000089645386,9.414599418640137
1682999252405059600,10.4190595703125,2.501999855041504,-1.0264999866485596,9.426300048828125
1682999252425059600,10.4390595703125,2.469899892807007,-1.0135999917984009,9.436200141906738
1682999252445059600,10.4590595703125,2.453399896621704,-0.9952999949455261,9.442399978637695
1682999252465058000,10.47905810546875,2.4403998851776123,-0.9687999486923218,9.44849967956543
1682999252485059600,10.4990595703125,2.421099901199341,-0.9365999698638916,9.456799507141113
1682999252505059600,10.5190595703125,2.40310001373291,-0.8987999558448792,9.46500015258789
1682999252525056500,10.539056396484375,2.3934998512268066,-0.8616999983787537,9.47089958190918
1682999252545059600,10.5590595703125,2.387500047683716,-0.8303999900817871,9.475199699401855
1682999252565059600,10.5790595703125,2.370699882507324,-0.8167999982833862,9.480599403381348
1682999252585058000,10.59905810546875,2.3488998413085938,-0.8143999576568604,9.486199378967285
1682999252605059600,10.6190595703125,2.3280999660491943,-0.814799964427948,9.491299629211426
1682999252625059600,10.6390595703125,2.313499927520752,-0.8125999569892883,9.495100021362305
1682999252645059600,10.6590595703125,2.3051998615264893,-0.8084999918937683,9.49739933013916
1682999252665059600,10.6790595703125,2.295599937438965,-0.8068999648094177,9.499899864196777
1682999252685058000,10.69905810546875,2.279899835586548,-0.8082000017166138,9.503600120544434
1682999252705058000,10.71905810546875,2.265399932861328,-0.8079999685287476,9.507100105285645
1682999252725058000,10.73905810546875,2.253000020980835,-0.8055999875068665,9.510199546813965
1682999252745059600,10.7590595703125,2.225299835205078,-0.8021000027656555,9.517000198364258
1682999252765059600,10.7790595703125,2.1882998943328857,-0.7912999987602234,9.52649974822998
1682999252785059600,10.7990595703125,2.147899866104126,-0.7627999782562256,9.538000106811523
1682999252805058000,10.81905810546875,2.13919997215271,-0.7310000061988831,9.542499542236328
1682999252825058000,10.83905810546875,2.193699836730957,-0.7095999717712402,9.531700134277344
1682999252845058000,10.85905810546875,2.280900001525879,-0.6814999580383301,9.513299942016602
1682999252865061000,10.87906103515625,2.2829999923706055,-0.6554999947547913,9.514599800109863
1682999252885059600,10.8990595703125,2.263399839401245,-0.6347999572753906,9.520699501037598
1682999252905058000,10.91905810546875,2.2992000579833984,-0.5982999801635742,9.514399528503418
1682999252925061000,10.93906103515625,2.395599842071533,-0.561199963092804,9.492899894714355
1682999252945061000,10.95906103515625,2.4941999912261963,-0.5449999570846558,9.468400001525879
1682999252965058000,10.97905810546875,2.5356998443603516,-0.5493999719619751,9.457099914550781
1682999252985058000,10.99905810546875,2.520599842071533,-0.5570999979972839,9.460700035095215
1682999253005059600,11.0190595703125,2.479099988937378,-0.5702999830245972,9.47089958190918
1682999253025059600,11.0390595703125,2.4572999477386475,-0.5805000066757202,9.47599983215332
1682999253045059600,11.0590595703125,2.457200050354004,-0.5895999670028687,9.4753999710083
1682999253065061000,11.07906103515625,2.463599920272827,-0.5952999591827393,9.473400115966797
1682999253085061000,11.09906103515625,2.457399845123291,-0.6019999980926514,9.474599838256836
1682999253105059600,11.1190595703125,2.447399854660034,-0.6098999977111816,9.476699829101562
1682999253125058000,11.13905810546875,2.4405999183654785,-0.6190999746322632,9.477799415588379
1682999253145058000,11.15905810546875,2.42579984664917,-0.6317999958992004,9.480799674987793
1682999253165058000,11.17905810546875,2.403599977493286,-0.648099958896637,9.485400199890137
1682999253185059600,11.1990595703125,2.38100004196167,-0.661300003528595,9.490099906921387
1682999253205059600,11.2190595703125,2.3701999187469482,-0.6633999943733215,9.49269962310791
1682999253225058000,11.23905810546875,2.3777999877929688,-0.6545999646186829,9.491399765014648
1682999253245056500,11.259056396484375,2.39139986038208,-0.6399999856948853,9.488999366760254
1682999253265058000,11.27905810546875,2.415599822998047,-0.6175000071525574,9.484299659729004
1682999253285058000,11.29905810546875,2.441999912261963,-0.5881999731063843,9.479399681091309
1682999253305058000,11.31905810546875,2.4558000564575195,-0.5543999671936035,9.477899551391602
1682999253325056500,11.339056396484375,2.430299997329712,-0.5293999910354614,9.485899925231934
1682999253345056500,11.359056396484375,2.3717000484466553,-0.5169000029563904,9.501399993896484
1682999253365058000,11.37905810546875,2.323499917984009,-0.49969998002052307,9.514200210571289
1682999253385058000,11.39905810546875,2.305500030517578,-0.44589999318122864,9.521299362182617
1682999253405058000,11.41905810546875,2.3278000354766846,-0.38839998841285706,9.518400192260742
1682999253425058000,11.43905810546875,2.3546998500823975,-0.33649998903274536,9.513699531555176
1682999253445058000,11.45905810546875,2.336199998855591,-0.30640000104904175,9.519299507141113
1682999253465058000,11.47905810546875,2.3236000537872314,-0.2800999879837036,9.523200035095215
1682999253485056500,11.499056396484375,2.3409998416900635,-0.23639999330043793,9.520099639892578
1682999253505059600,11.5190595703125,2.399899959564209,-0.21249999105930328,9.505999565124512
1682999253525059600,11.5390595703125,2.473599910736084,-0.22199998795986176,9.486899375915527
1682999253545059600,11.5590595703125,2.5020999908447266,-0.25509998202323914,9.478599548339844
1682999253565059600,11.5790595703125,2.4687998294830322,-0.29919999837875366,9.486000061035156
1682999253585059600,11.5990595703125,2.4040000438690186,-0.34630000591278076,9.501099586486816
1682999253605059600,11.6190595703125,2.3536999225616455,-0.3797000050544739,9.512399673461914
1682999253625056500,11.639056396484374,2.3299999237060547,-0.3933999836444855,9.517600059509277
1682999253645059600,11.6590595703125,2.32099986076355,-0.39149999618530273,9.519899368286133
1682999253665058000,11.67905810546875,2.310499906539917,-0.3788999915122986,9.52299976348877
1682999253685058000,11.69905810546875,2.2906999588012695,-0.3572999835014343,9.528599739074707
1682999253705059600,11.7190595703125,2.262199878692627,-0.3285999894142151,9.536399841308594
1682999253725059600,11.7390595703125,2.232599973678589,-0.298799991607666,9.544400215148926
1682999253745059600,11.7590595703125,2.2132999897003174,-0.2727999985218048,9.549699783325195
1682999253765059600,11.7790595703125,2.2014000415802,-0.2502000033855438,9.552999496459961
1682999253785059600,11.7990595703125,2.197200059890747,-0.22909998893737793,9.554499626159668
1682999253805059600,11.8190595703125,2.1843998432159424,-0.21389999985694885,9.557799339294434
1682999253825059600,11.8390595703125,2.1656999588012695,-0.21239998936653137,9.56209945678711
1682999253845059600,11.8590595703125,2.158799886703491,-0.21539999544620514,9.563599586486816
1682999253865059600,11.8790595703125,2.1693999767303467,-0.21899999678134918,9.561100006103516
1682999253885058000,11.89905810546875,2.1821999549865723,-0.22199998795986176,9.558099746704102
1682999253905058000,11.91905810546875,2.168599843978882,-0.2296999990940094,9.560999870300293
1682999253925058000,11.93905810546875,2.1157000064849854,-0.24369999766349792,9.572500228881836
1682999253945058000,11.95905810546875,2.048799991607666,-0.25920000672340393,9.586699485778809
1682999253965058000,11.97905810546875,2.0033998489379883,-0.2603999972343445,9.596199989318848
1682999253985058000,11.99905810546875,2.040799856185913,-0.2442999929189682,9.588799476623535
1682999254005058000,12.01905810546875,2.1390998363494873,-0.21149998903274536,9.568099975585938
1682999254025056500,12.039056396484375,2.2098000049591064,-0.17729999125003815,9.55270004272461
1682999254045058000,12.05905810546875,2.217900037765503,-0.14630000293254852,9.551400184631348
1682999254065058000,12.07905810546875,2.222899913787842,-0.11459999531507492,9.550600051879883
1682999254085058000,12.09905810546875,2.241499900817871,-0.09919999539852142,9.546500205993652
1682999254105059600,12.1190595703125,2.2777998447418213,-0.11129999905824661,9.537699699401855
1682999254125059600,12.1390595703125,2.3016998767852783,-0.13679999113082886,9.531700134277344
1682999254145059600,12.1590595703125,2.285399913787842,-0.1665000021457672,9.535099983215332
1682999254165058000,12.17905810546875,2.2460999488830566,-0.19329999387264252,9.543899536132812
1682999254185059600,12.1990595703125,2.211199998855591,-0.22199998795986176,9.551499366760254
1682999254205059600,12.2190595703125,2.1960999965667725,-0.25220000743865967,9.554200172424316
1682999254225058000,12.23905810546875,2.197399854660034,-0.27619999647140503,9.553199768066406
1682999254245056500,12.259056396484375,2.192199945449829,-0.2920999825000763,9.553999900817871
1682999254265058000,12.27905810546875,2.1800999641418457,-0.30730000138282776,9.556300163269043
1682999254285059600,12.2990595703125,2.163800001144409,-0.3254999816417694,9.559399604797363
1682999254305059600,12.3190595703125,2.1415998935699463,-0.34630000591278076,9.563599586486816
1682999254325056500,12.339056396484375,2.1157000064849854,-0.3628000020980835,9.56879997253418
1682999254345056500,12.359056396484375,2.085099935531616,-0.3815999925136566,9.574699401855469
1682999254365058000,12.37905810546875,2.056299924850464,-0.4059000015258789,9.579999923706055
1682999254385058000,12.39905810546875,2.050299882888794,-0.4343999922275543,9.579999923706055
1682999254405058000,12.41905810546875,2.065199851989746,-0.44919997453689575,9.576099395751953
1682999254425058000,12.43905810546875,2.0952000617980957,-0.447299987077713,9.56969928741455
1682999254445058000,12.45905810546875,2.1313998699188232,-0.44339999556541443,9.56190013885498
1682999254465058000,12.47905810546875,2.1561999320983887,-0.4430999755859375,9.556300163269043
1682999254485058000,12.49905810546875,2.1877999305725098,-0.4495999813079834,9.548799514770508
1682999254505058000,12.51905810546875,2.2409000396728516,-0.45489999651908875,9.536299705505371
1682999254525056500,12.539056396484375,2.294800043106079,-0.4462999999523163,9.523900032043457
1682999254545059600,12.5590595703125,2.306299924850464,-0.43459999561309814,9.521599769592285
1682999254565058000,12.57905810546875,2.2405998706817627,-0.43449997901916504,9.537300109863281
1682999254585058000,12.59905810546875,2.1220998764038086,-0.44259998202323914,9.564000129699707
1682999254605058000,12.61905810546875,2.0565998554229736,-0.42149999737739563,9.579299926757812
1682999254625056500,12.639056396484374,2.105299949645996,-0.37770000100135803,9.570499420166016
1682999254645059600,12.6590595703125,2.2230000495910645,-0.321399986743927,9.545899391174316
1682999254665056500,12.679056396484375,2.269899845123291,-0.274399995803833,9.536299705505371
1682999254685058000,12.69905810546875,2.2967000007629395,-0.22949999570846558,9.531099319458008
1682999254705058000,12.71905810546875,2.325000047683716,-0.1817999929189682,9.525300025939941
1682999254725058000,12.73905810546875,2.3538999557495117,-0.17399999499320984,9.51830005645752
1682999254745056500,12.759056396484375,2.4047000408172607,-0.22360000014305115,9.504499435424805
1682999254765058000,12.77905810546875,2.4047000408172607,-0.3125999867916107,9.501999855041504
1682999254785058000,12.79905810546875,2.353299856185913,-0.40070000290870667,9.51159954071045
1682999254805058000,12.81905810546875,2.280900001525879,-0.4521999955177307,9.526899337768555
1682999254825056500,12.839056396484375,2.240799903869629,-0.4713999927043915,9.535499572753906
1682999254845058000,12.85905810546875,2.2711000442504883,-0.47699999809265137,9.52810001373291
1682999254865058000,12.87905810546875,2.307499885559082,-0.47099998593330383,9.519599914550781
1682999254885058000,12.89905810546875,2.3167998790740967,-0.45579999685287476,9.518099784851074
1682999254905058000,12.91905810546875,2.2976999282836914,-0.4399999976158142,9.523499488830566
1682999254925061000,12.93906103515625,2.265199899673462,-0.43309998512268066,9.531599998474121
1682999254945058000,12.95905810546875,2.243000030517578,-0.4375,9.536600112915039
1682999254965058000,12.97905810546875,2.207900047302246,-0.4407999813556671,9.544599533081055
1682999254985058000,12.99905810546875,2.150899887084961,-0.43549999594688416,9.557899475097656
1682999255005058000,13.01905810546875,2.0954999923706055,-0.42399999499320984,9.570699691772461
1682999255025056500,13.039056396484375,2.057800054550171,-0.40950000286102295,9.579500198364258
1682999255045058000,13.05905810546875,2.0374999046325684,-0.3967999815940857,9.584400177001953
1682999255065058000,13.07905810546875,2.0327999591827393,-0.3822999894618988,9.585999488830566
1682999255085058000,13.09905810546875,2.0362000465393066,-0.3718999922275543,9.585700035095215
1682999255105058000,13.11905810546875,2.0362000465393066,-0.370199978351593,9.585700035095215
1682999255125056500,13.139056396484374,2.002699851989746,-0.3840000033378601,9.592199325561523
1682999255145058000,13.15905810546875,1.9377999305725098,-0.40369999408721924,9.6048002243042
1682999255165058000,13.17905810546875,1.8454999923706055,-0.41359999775886536,9.622499465942383
1682999255185058000,13.19905810546875,1.7797999382019043,-0.3944000005722046,9.635700225830078
1682999255205058000,13.21905810546875,1.826200008392334,-0.3401999771595001,9.628999710083008
1682999255225058000,13.23905810546875,1.9528999328613281,-0.26899999380111694,9.606399536132812
1682999255245056500,13.259056396484375,2.0878000259399414,-0.20499999821186066,9.579599380493164
1682999255265058000,13.27905810546875,2.1641998291015625,-0.1664000004529953,9.563399314880371
1682999255285058000,13.29905810546875,2.1791999340057373,-0.1639000028371811,9.559999465942383
1682999255305058000,13.31905810546875,2.1670000553131104,-0.1777999997138977,9.5625
1682999255325056500,13.339056396484375,2.173799991607666,-0.2150999903678894,9.560199737548828
1682999255345058000,13.35905810546875,2.221400022506714,-0.2532999813556671,9.548299789428711
1682999255365058000,13.37905810546875,2.2639000415802,-0.2924000024795532,9.537199974060059
1682999255385058000,13.39905810546875,2.273699998855591,-0.3294000029563904,9.533699989318848
1682999255405058000,13.41905810546875,2.2612998485565186,-0.3628000020980835,9.535399436950684
1682999255425058000,13.43905810546875,2.233299970626831,-0.40059998631477356,9.540499687194824
1682999255445058000,13.45905810546875,2.214900016784668,-0.4456000030040741,9.542799949645996
1682999255465061000,13.47906103515625,2.211400032043457,-0.48669999837875366,9.541600227355957
1682999255485058000,13.49905810546875,2.21370005607605,-0.5252000093460083,9.538999557495117
1682999255505058000,13.51905810546875,2.211199998855591,-0.5609999895095825,9.53749942779541
1682999255525056500,13.539056396484375,2.204699993133545,-0.5925999879837036,9.537099838256836
1682999255545059600,13.5590595703125,2.1905999183654785,-0.6288999915122986,9.53809928894043
1682999255565058000,13.57905810546875,2.16729998588562,-0.6726999878883362,9.540399551391602
1682999255585058000,13.59905810546875,2.1521999835968018,-0.7228999733924866,9.54010009765625
1682999255605056500,13.619056396484375,2.142199993133545,-0.7664999961853027,9.538999557495117
1682999255625056500,13.639056396484374,2.1268999576568604,-0.8057000041007996,9.539199829101562
1682999255645058000,13.65905810546875,2.0978000164031982,-0.832099974155426,9.543399810791016
1682999255665058000,13.67905810546875,2.083099842071533,-0.8328999876976013,9.546500205993652
1682999255685058000,13.69905810546875,2.1015000343322754,-0.8105999827384949,9.544400215148926
1682999255705058000,13.71905810546875,2.141900062561035,-0.7789999842643738,9.53809928894043
1682999255725058000,13.73905810546875,2.1907999515533447,-0.7446999549865723,9.529699325561523
1682999255745056500,13.759056396484375,2.1888999938964844,-0.711899995803833,9.532599449157715
1682999255765058000,13.77905810546875,2.117799997329712,-0.6906999945640564,9.550199508666992
1682999255785058000,13.79905810546875,2.0174999237060547,-0.674299955368042,9.573100090026855
1682999255805058000,13.81905810546875,1.9605998992919922,-0.6347000002861023,9.587599754333496
1682999255825058000,13.83905810546875,1.984299898147583,-0.5619999766349792,9.587299346923828
1682999255845058000,13.85905810546875,2.050299882888794,-0.48819997906684875,9.577400207519531
1682999255865058000,13.87905810546875,2.0913000106811523,-0.42639997601509094,9.571499824523926
1682999255885058000,13.89905810546875,2.0764000415802,-0.39640000462532043,9.576099395751953
1682999255905058000,13.91905810546875,2.0543999671936035,-0.384799987077713,9.581299781799316
1682999255925058000,13.93905810546875,2.0685999393463135,-0.3610999882221222,9.579099655151367
1682999255945058000,13.95905810546875,2.1136999130249023,-0.3427000045776367,9.569999694824219
1682999255965058000,13.97905810546875,2.1689000129699707,-0.35830000042915344,9.557000160217285
1682999255985058000,13.99905810546875,2.2014000415802,-0.39159998297691345,9.548299789428711
1682999256005058000,14.01905810546875,2.199399948120117,-0.4315999746322632,9.54699993133545
1682999256025056500,14.039056396484375,2.186800003051758,-0.47599998116493225,9.547800064086914
1682999256045058000,14.05905810546875,2.1778998374938965,-0.5217999815940857,9.547399520874023
1682999256065058000,14.07905810546875,2.173799991607666,-0.5497999787330627,9.546799659729004
1682999256085058000,14.09905810546875,2.165299892425537,-0.552299976348877,9.548600196838379
1682999256105058000,14.11905810546875,2.1582999229431152,-0.5426999926567078,9.550700187683105
1682999256125056500,14.139056396484374,2.1397998332977295,-0.5346999764442444,9.555299758911133
1682999256145058000,14.15905810546875,2.1190998554229736,-0.5354999899864197,9.55989933013916
1682999256165058000,14.17905810546875,2.09060001373291,-0.5394999980926514,9.565899848937988
1682999256185058000,14.19905810546875,2.0546998977661133,-0.5394999980926514,9.573699951171875
1682999256205056500,14.219056396484374,2.0256998538970947,-0.5357999801635742,9.580100059509277
1682999256225058000,14.23905810546875,2.007699966430664,-0.5288000106811523,9.58430004119873
1682999256245056500,14.259056396484375,1.9981999397277832,-0.5248000025749207,9.58650016784668
1682999256265058000,14.27905810546875,1.9901999235153198,-0.5252999663352966,9.588099479675293
1682999256285058000,14.29905810546875,1.9854999780654907,-0.5288999676704407,9.588899612426758
1682999256305058000,14.31905810546875,1.9857999086380005,-0.531499981880188,9.588699340820312
1682999256325058000,14.33905810546875,1.983699917793274,-0.535099983215332,9.588899612426758
1682999256345058000,14.35905810546875,1.9734998941421509,-0.5370999574661255,9.590899467468262
1682999256365058000,14.37905810546875,1.9305999279022217,-0.5410000085830688,9.599499702453613
1682999256385058000,14.39905810546875,1.8631999492645264,-0.5419999957084656,9.612699508666992
1682999256405058000,14.41905810546875,1.802299976348877,-0.5329999923706055,9.624799728393555
1682999256425058000,14.43905810546875,1.8112999200820923,-0.5033000111579895,9.624699592590332
1682999256445058000,14.45905810546875,1.9005999565124512,-0.45399999618530273,9.609899520874023
1682999256465058000,14.47905810546875,2.0023999214172363,-0.4059999883174896,9.591400146484375
1682999256485058000,14.49905810546875,2.0062999725341797,-0.37119999527931213,9.592000007629395
1682999256505058000,14.51905810546875,1.9667999744415283,-0.3612000048160553,9.600500106811523
1682999256525056500,14.539056396484375,1.9785999059677124,-0.3303000032901764,9.599199295043945
1682999256545059600,14.5590595703125,2.0553998947143555,-0.2839999794960022,9.584599494934082
1682999256565059600,14.5790595703125,2.170599937438965,-0.26639997959136963,9.559599876403809
1682999256585058000,14.59905810546875,2.245300054550171,-0.27070000767707825,9.542200088500977
1682999256605058000,14.61905810546875,2.2283999919891357,-0.2809999883174896,9.545899391174316
1682999256625056500,14.639056396484374,2.176100015640259,-0.30079999566078186,9.55739974975586
1682999256645058000,14.65905810546875,2.141199827194214,-0.3296999931335449,9.564299583435059
1682999256665058000,14.67905810546875,2.148099899291992,-0.3537999987602234,9.56190013885498
1682999256685059600,14.6990595703125,2.176100015640259,-0.3659999966621399,9.555099487304688
1682999256705056500,14.719056396484374,2.1937999725341797,-0.373199999332428,9.550799369812012
1682999256725058000,14.73905810546875,2.1942999362945557,-0.39069998264312744,9.54990005493164
1682999256745056500,14.759056396484375,2.180799961090088,-0.4226999878883362,9.5516996383667
1682999256765056500,14.779056396484375,2.151099920272827,-0.4603999853134155,9.556699752807617
1682999256785059600,14.7990595703125,2.1094000339508057,-0.4926999807357788,9.564299583435059
1682999256805058000,14.81905810546875,2.081899881362915,-0.5196999907493591,9.568900108337402
1682999256825058000,14.83905810546875,2.072399854660034,-0.5530999898910522,9.569099426269531
1682999256845056500,14.859056396484375,2.075399875640869,-0.590999960899353,9.56619930267334
1682999256865058000,14.87905810546875,2.075700044631958,-0.6230999827384949,9.564099311828613
1682999256885056500,14.899056396484376,2.0636000633239746,-0.6327999830245972,9.566100120544434
1682999256905058000,14.91905810546875,2.053499937057495,-0.6197999715805054,9.569099426269531
1682999256925058000,14.93905810546875,2.0548999309539795,-0.5931000113487244,9.570499420166016
1682999256945058000,14.95905810546875,2.0665998458862305,-0.5641999840736389,9.56969928741455
1682999256965058000,14.97905810546875,2.0708999633789062,-0.5295999646186829,9.570799827575684
1682999256985058000,14.99905810546875,2.0423998832702637,-0.5069000124931335,9.578100204467773
1682999257005058000,15.01905810546875,1.993899941444397,-0.49709999561309814,9.588899612426758
1682999257025056500,15.039056396484375,1.9648000001907349,-0.4779999852180481,9.595799446105957
1682999257045058000,15.05905810546875,1.956399917602539,-0.44369998574256897,9.599199295043945
1682999257065058000,15.07905810546875,1.9722999334335327,-0.41040000319480896,9.597399711608887
1682999257085061000,15.09906103515625,1.9708999395370483,-0.37459999322891235,9.599199295043945
1682999257105058000,15.11905810546875,1.8907999992370605,-0.35019999742507935,9.616199493408203
1682999257125056500,15.139056396484374,1.819000005722046,-0.32729998230934143,9.630799293518066
1682999257145058000,15.15905810546875,1.8183000087738037,-0.2750999927520752,9.632599830627441
1682999257165058000,15.17905810546875,1.8517999649047852,-0.21979999542236328,9.627699851989746
1682999257185058000,15.19905810546875,1.9121999740600586,-0.1955999881029129,9.616399765014648
1682999257205058000,15.21905810546875,1.952699899673462,-0.21130000054836273,9.60789966583252
1682999257225058000,15.23905810546875,1.9422999620437622,-0.2606000006198883,9.608799934387207
1682999257245058000,15.25905810546875,1.9163999557495117,-0.31540000438690186,9.612299919128418
1682999257265058000,15.27905810546875,1.899399995803833,-0.3580999970436096,9.6141996383667
1682999257285058000,15.29905810546875,1.9196999073028564,-0.3877999782562256,9.609000205993652
1682999257305058000,15.31905810546875,1.9740999937057495,-0.41019999980926514,9.597099304199219
1682999257325058000,15.33905810546875,2.018899917602539,-0.42719998955726624,9.586999893188477
1682999257345056500,15.359056396484375,2.03059983253479,-0.4421999752521515,9.58389949798584
1682999257365058000,15.37905810546875,2.0130999088287354,-0.45829999446868896,9.586799621582031
1682999257385058000,15.39905810546875,2.011899948120117,-0.4632999897003174,9.586799621582031
1682999257405058000,15.41905810546875,1.9986999034881592,-0.445499986410141,9.590399742126465
1682999257425058000,15.43905810546875,1.9885998964309692,-0.4174000024795532,9.593799591064453
1682999257445058000,15.45905810546875,1.977199912071228,-0.39229997992515564,9.597199440002441
1682999257465058000,15.47905810546875,1.968999981880188,-0.3847000002861023,9.599199295043945
1682999257485058000,15.49905810546875,1.958899974822998,-0.39079999923706055,9.60099983215332
1682999257505058000,15.51905810546875,1.9470999240875244,-0.3986999988555908,9.603099822998047
1682999257525059600,15.5390595703125,1.937999963760376,-0.4025000035762787,9.6048002243042
1682999257545058000,15.55905810546875,1.9124000072479248,-0.40389999747276306,9.6097993850708
1682999257565058000,15.57905810546875,1.841399908065796,-0.40950000286102295,9.62339973449707
1682999257585058000,15.59905810546875,1.7405999898910522,-0.4120999872684479,9.642099380493164
1682999257605058000,15.61905810546875,1.6868999004364014,-0.38119998574256897,9.652899742126465
1682999257625056500,15.639056396484374,1.7005000114440918,-0.32339999079704285,9.652599334716797
1682999257645058000,15.65905810546875,1.7409999370574951,-0.27070000767707825,9.64699935913086
1682999257665058000,15.67905810546875,1.7775999307632446,-0.22949999570846558,9.641399383544922
1682999257685058000,15.69905810546875,1.7773000001907349,-0.19769999384880066,9.642199516296387
1682999257705058000,15.71905810546875,1.751599907875061,-0.16609999537467957,9.647500038146973
1682999257725058000,15.73905810546875,1.767199993133545,-0.13439999520778656,9.645099639892578
1682999257745056500,15.759056396484375,1.8398998975753784,-0.1225999966263771,9.631699562072754
1682999257765058000,15.77905810546875,1.9154999256134033,-0.13279999792575836,9.616799354553223
1682999257785058000,15.79905810546875,1.9574999809265137,-0.15039999783039093,9.608099937438965
1682999257805058000,15.81905810546875,1.9479999542236328,-0.17299999296665192,9.609600067138672
1682999257825058000,15.83905810546875,1.9250999689102173,-0.20629999041557312,9.61359977722168
1682999257845058000,15.85905810546875,1.9167999029159546,-0.2500999867916107,9.6141996383667
1682999257865058000,15.87905810546875,1.9131999015808105,-0.2806999981403351,9.614099502563477
1682999257885058000,15.89905810546875,1.9093999862670898,-0.28859999775886536,9.61460018157959
1682999257905059600,15.9190595703125,1.9030998945236206,-0.2800000011920929,9.61609935760498
1682999257925058000,15.93905810546875,1.8910999298095703,-0.2709999978542328,9.61870002746582
1682999257945058000,15.95905810546875,1.8791999816894531,-0.27320000529289246,9.620999336242676
1682999257965058000,15.97905810546875,1.8758999109268188,-0.27619999647140503,9.621500015258789
1682999257985058000,15.99905810546875,1.899399995803833,-0.275299996137619,9.616999626159668
1682999258005058000,16.01905810546875,1.9372999668121338,-0.2741999924182892,9.609399795532227
1682999258025056500,16.039056396484376,1.9477999210357666,-0.28299999237060547,9.606999397277832
1682999258045058000,16.05905810546875,1.934399962425232,-0.3035999834537506,9.609099388122559
1682999258065058000,16.07905810546875,1.9241999387741089,-0.3229999840259552,9.610499382019043
1682999258085058000,16.09905810546875,1.9411998987197876,-0.320499986410141,9.607199668884277
1682999258105058000,16.11905810546875,1.9833999872207642,-0.29909998178482056,9.599299430847168
1682999258125056500,16.139056396484374,2.024199962615967,-0.27539998292922974,9.591499328613281
1682999258145058000,16.15905810546875,2.0184998512268066,-0.2687000036239624,9.59280014038086
1682999258165058000,16.17905810546875,1.9704999923706055,-0.28380000591278076,9.602399826049805
1682999258185058000,16.19905810546875,1.9103999137878418,-0.2911999821662903,9.614299774169922
1682999258205058000,16.21905810546875,1.8894000053405762,-0.2653999924659729,9.619199752807617
1682999258225058000,16.23905810546875,1.9280999898910522,-0.20499999821186066,9.61299991607666
1682999258245056500,16.259056396484375,1.9728999137878418,-0.13509999215602875,9.60509967803955
1682999258265058000,16.27905810546875,1.9756999015808105,-0.08060000091791153,9.605199813842773
1682999258285058000,16.29905810546875,1.972000002861023,-0.055299997329711914,9.606100082397461
1682999258305058000,16.31905810546875,1.9912999868392944,-0.033900000154972076,9.60219955444336
1682999258325058000,16.33905810546875,2.033099889755249,-0.022599998861551285,9.593500137329102
1682999258345058000,16.35905810546875,2.09089994430542,-0.03739999979734421,9.580999374389648
1682999258365058000,16.37905810546875,2.128000020980835,-0.0731000006198883,9.572599411010742
1682999258385058000,16.39905810546875,2.1273000240325928,-0.11229999363422394,9.572400093078613
1682999258405058000,16.41905810546875,2.1080000400543213,-0.14810000360012054,9.576199531555176
1682999258425058000,16.43905810546875,2.0952000617980957,-0.17459999024868011,9.57859992980957
1682999258445058000,16.45905810546875,2.0889999866485596,-0.1834999918937683,9.579699516296387
1682999258465058000,16.47905810546875,2.0737998485565186,-0.1712999939918518,9.58329963684082
1682999258485058000,16.49905810546875,2.049499988555908,-0.14959999918937683,9.588899612426758
1682999258505058000,16.51905810546875,2.03410005569458,-0.13099999725818634,9.592399597167969
1682999258525056500,16.539056396484376,2.033599853515625,-0.12780000269412994,9.592599868774414
1682999258545058000,16.55905810546875,2.0202999114990234,-0.15379999577999115,9.594999313354492
1682999258565058000,16.57905810546875,1.9803999662399292,-0.19789999723434448,9.602499961853027
1682999258585058000,16.59905810546875,1.9407999515533447,-0.24740000069141388,9.609399795532227
1682999258605058000,16.61905810546875,1.9260998964309692,-0.2927999794483185,9.611100196838379
1682999258625056500,16.639056396484374,1.9347999095916748,-0.3422999978065491,9.607699394226074
1682999258645058000,16.65905810546875,1.9436999559402466,-0.3967999815940857,9.603799819946289
1682999258665058000,16.67905810546875,1.948199987411499,-0.4472000002861023,9.600699424743652
1682999258685056500,16.699056396484377,1.952699899673462,-0.4781000018119812,9.598299980163574
1682999258705056500,16.719056396484376,1.94979989528656,-0.4949999749660492,9.597999572753906
1682999258725058000,16.73905810546875,1.9083999395370483,-0.5038999915122986,9.605899810791016
1682999258745056500,16.759056396484375,1.7905999422073364,-0.527999997138977,9.627299308776855
1682999258765058000,16.77905810546875,1.7244999408721924,-0.5383999943733215,9.638699531555176
1682999258785058000,16.79905810546875,1.802899956703186,-0.501800000667572,9.626399993896484
1682999258805058000,16.81905810546875,1.9234999418258667,-0.4690999984741211,9.604599952697754
1682999258825058000,16.83905810546875,2.057499885559082,-0.4424999952316284,9.578100204467773
1682999258845058000,16.85905810546875,2.124500036239624,-0.42289999127388,9.564399719238281
1682999258865058000,16.87905810546875,2.146699905395508,-0.42339998483657837,9.559399604797363
1682999258885058000,16.89905810546875,2.159299850463867,-0.43140000104904175,9.55620002746582
1682999258905058000,16.91905810546875,2.197200059890747,-0.43959999084472656,9.547200202941895
1682999258925058000,16.93905810546875,2.2342000007629395,-0.4510999917984009,9.538000106811523
1682999258945058000,16.95905810546875,2.246000051498413,-0.46959999203681946,9.53439998626709
1682999258965058000,16.97905810546875,2.2258999347686768,-0.49059998989105225,9.538000106811523
1682999258985059600,16.9990595703125,2.1958999633789062,-0.5112000107765198,9.543899536132812
1682999259005059600,17.0190595703125,2.1789000034332275,-0.5307999849319458,9.546699523925781
1682999259025058000,17.03905810546875,2.1756999492645264,-0.5507000088691711,9.546299934387207
1682999259045058000,17.05905810546875,2.1771998405456543,-0.5669000148773193,9.545000076293945
1682999259065058000,17.07905810546875,2.177299976348877,-0.578000009059906,9.544300079345703
1682999259085058000,17.09905810546875,2.1763999462127686,-0.5956999659538269,9.543499946594238
1682999259105058000,17.11905810546875,2.174299955368042,-0.6298999786376953,9.541699409484863
1682999259125056500,17.139056396484374,2.161099910736084,-0.6839999556541443,9.540999412536621
1682999259145058000,17.15905810546875,2.1410999298095703,-0.7412999868392944,9.541199684143066
1682999259165058000,17.17905810546875,2.120699882507324,-0.791700005531311,9.541699409484863
1682999259185058000,17.19905810546875,2.1059999465942383,-0.8337999582290649,9.541399955749512
1682999259205056500,17.219056396484376,2.1069998741149902,-0.8730999827384949,9.537699699401855
1682999259225058000,17.23905810546875,2.1194000244140625,-0.9144999980926514,9.531000137329102
1682999259245056500,17.259056396484375,2.1224000453948975,-0.9538999795913696,9.52649974822998
1682999259265058000,17.27905810546875,2.1173999309539795,-0.9871999621391296,9.524199485778809
1682999259285058000,17.29905810546875,2.1113998889923096,-1.0139999389648438,9.522799491882324
1682999259305058000,17.31905810546875,2.1152000427246094,-1.0340999364852905,9.519800186157227
1682999259325058000,17.33905810546875,2.1238999366760254,-1.0509999990463257,9.515999794006348
1682999259345058000,17.35905810546875,2.1317999362945557,-1.059000015258789,9.513299942016602
1682999259365058000,17.37905810546875,2.1205999851226807,-1.0536999702453613,9.516399383544922
1682999259385058000,17.39905810546875,2.0741000175476074,-1.0454999208450317,9.527599334716797
1682999259405058000,17.41905810546875,2.0525999069213867,-1.0285999774932861,9.5339994430542
1682999259425058000,17.43905810546875,2.0580999851226807,-0.9835000038146973,9.537599563598633
1682999259445058000,17.45905810546875,2.0837998390197754,-0.9177999496459961,9.538599967956543
1682999259465058000,17.47905810546875,2.121000051498413,-0.8319999575614929,9.538299560546875
1682999259485058000,17.49905810546875,2.1382999420166016,-0.7414000034332275,9.541899681091309
1682999259505058000,17.51905810546875,2.1285998821258545,-0.6543999910354614,9.550399780273438
1682999259525056500,17.539056396484376,2.089599847793579,-0.5794000029563904,9.563799858093262
1682999259545058000,17.55905810546875,2.033799886703491,-0.5162999629974365,9.579500198364258
1682999259565058000,17.57905810546875,1.9635999202728271,-0.45809999108314514,9.597099304199219
1682999259585058000,17.59905810546875,1.9046999216079712,-0.4039999842643738,9.61139965057373
1682999259605058000,17.61905810546875,1.8781999349594116,-0.35679998993873596,9.618399620056152
1682999259625056500,17.639056396484374,1.871399998664856,-0.32009997963905334,9.620999336242676
1682999259645058000,17.65905810546875,1.8673999309539795,-0.2856000065803528,9.622900009155273
1682999259665058000,17.67905810546875,1.8497999906539917,-0.25130000710487366,9.627299308776855
1682999259685058000,17.69905810546875,1.8186999559402466,-0.2336999922990799,9.633599281311035
1682999259705058000,17.71905810546875,1.7829999923706055,-0.24279999732971191,9.64009952545166
1682999259725058000,17.73905810546875,1.750599980354309,-0.271699994802475,9.645299911499023
1682999259745056500,17.759056396484375,1.7187999486923218,-0.30979999899864197,9.649799346923828
1682999259765058000,17.77905810546875,1.6859999895095825,-0.35179999470710754,9.654199600219727
1682999259785058000,17.79905810546875,1.6561999320983887,-0.3895999789237976,9.657899856567383
1682999259805058000,17.81905810546875,1.6373999118804932,-0.42159998416900635,9.659699440002441
1682999259825058000,17.83905810546875,1.628999948501587,-0.4578000009059906,9.659500122070312
1682999259845058000,17.85905810546875,1.625599980354309,-0.49379998445510864,9.658299446105957
1682999259865058000,17.87905810546875,1.618499994277954,-0.5205000042915344,9.658100128173828
1682999259885058000,17.89905810546875,1.6126999855041504,-0.5426999926567078,9.65779972076416
1682999259905058000,17.91905810546875,1.617799997329712,-0.5694999694824219,9.655399322509766
1682999259925058000,17.93905810546875,1.6247999668121338,-0.5985000133514404,9.65250015258789
1682999259945058000,17.95905810546875,1.6358000040054321,-0.6179999709129333,9.649399757385254
1682999259965058000,17.97905810546875,1.6453999280929565,-0.625,9.647299766540527
1682999259985058000,17.99905810546875,1.6612999439239502,-0.6179999709129333,9.645099639892578
1682999260005058000,18.01905810546875,1.6719999313354492,-0.6096999645233154,9.643699645996094
1682999260025056500,18.039056396484376,1.670300006866455,-0.6089000105857849,9.644100189208984
1682999260045058000,18.05905810546875,1.653999924659729,-0.6116999983787537,9.646699905395508
1682999260065058000,18.07905810546875,1.6279000043869019,-0.6151999831199646,9.651000022888184
1682999260085058000,18.09905810546875,1.604599952697754,-0.6150000095367432,9.654899597167969
1682999260105058000,18.11905810546875,1.614799976348877,-0.6003000140190125,9.654099464416504
1682999260125056500,18.139056396484374,1.646299958229065,-0.560699999332428,9.651100158691406
1682999260145058000,18.15905810546875,1.6664999723434448,-0.5135999917984009,9.650300025939941
1682999260165058000,18.17905810546875,1.6705999374389648,-0.4649999737739563,9.651999473571777
1682999260185058000,18.19905810546875,1.6730999946594238,-0.43199998140335083,9.65310001373291
1682999260205056500,18.219056396484376,1.6911998987197876,-0.42399999499320984,9.650400161743164
1682999260225058000,18.23905810546875,1.7121999263763428,-0.4294999837875366,9.64639949798584
1682999260245056500,18.259056396484375,1.730699896812439,-0.4405999779701233,9.642600059509277
1682999260265056500,18.279056396484375,1.7400999069213867,-0.4625999927520752,9.639900207519531
1682999260285058000,18.29905810546875,1.7338999509811401,-0.4982999861240387,9.639200210571289
1682999260305058000,18.31905810546875,1.7188999652862549,-0.54339998960495,9.63949966430664
1682999260325058000,18.33905810546875,1.6984999179840088,-0.5899999737739563,9.640399932861328
1682999260345058000,18.35905810546875,1.6798999309539795,-0.6279999613761902,9.641200065612793
1682999260365058000,18.37905810546875,1.6690999269485474,-0.6579999923706055,9.64109992980957
1682999260385058000,18.39905810546875,1.6610000133514404,-0.6898999810218811,9.640199661254883
1682999260405058000,18.41905810546875,1.6488999128341675,-0.7306999564170837,9.639299392700195
1682999260425058000,18.43905810546875,1.6247999668121338,-0.7809000015258789,9.63949966430664
1682999260445058000,18.45905810546875,1.5954999923706055,-0.8398999571800232,9.639399528503418
1682999260465058000,18.47905810546875,1.5669000148773193,-0.894599974155426,9.639200210571289
1682999260485056500,18.499056396484374,1.5503000020980835,-0.948199987411499,9.636699676513672
1682999260505058000,18.51905810546875,1.5447999238967896,-1.00409996509552,9.631999969482422
1682999260525056500,18.539056396484376,1.5484999418258667,-1.0576999187469482,9.62559986114502
1682999260545058000,18.55905810546875,1.5555999279022217,-1.1108999252319336,9.618499755859375
1682999260565058000,18.57905810546875,1.5686999559402466,-1.1615999937057495,9.610400199890137
1682999260585058000,18.59905810546875,1.5891000032424927,-1.2128000259399414,9.600699424743652
1682999260605058000,18.61905810546875,1.6064000129699707,-1.2639999389648438,9.59119987487793
1682999260625056500,18.639056396484374,1.6270999908447266,-1.3026999235153198,9.582499504089355
1682999260645058000,18.65905810546875,1.670699954032898,-1.3183000087738037,9.57289981842041
1682999260665058000,18.67905810546875,1.753999948501587,-1.3040000200271606,9.55989933013916
1682999260685058000,18.69905810546875,1.8499000072479248,-1.271899938583374,9.546199798583984
1682999260705058000,18.71905810546875,1.9292999505996704,-1.233699917793274,9.535499572753906
1682999260725058000,18.73905810546875,1.9894999265670776,-1.2050999402999878,9.526700019836426
1682999260745056500,18.759056396484375,2.0439999103546143,-1.2030999660491943,9.515399932861328
1682999260765058000,18.77905810546875,2.0576000213623047,-1.235700011253357,9.508299827575684
1682999260785058000,18.79905810546875,2.0873000621795654,-1.2619999647140503,9.49839973449707
1682999260805058000,18.81905810546875,2.1514999866485596,-1.2317999601364136,9.48799991607666
1682999260825058000,18.83905810546875,2.2430999279022217,-1.1793999671936035,9.473499298095703
1682999260845058000,18.85905810546875,2.3125998973846436,-1.1384999752044678,9.461799621582031
1682999260865058000,18.87905810546875,2.2884998321533203,-1.1404999494552612,9.467399597167969
1682999260885056500,18.899056396484376,2.212100028991699,-1.1611000299453735,9.482999801635742
1682999260905058000,18.91905810546875,2.1373000144958496,-1.1542999744415283,9.500999450683594
1682999260925058000,18.93905810546875,2.1080000400543213,-1.1161999702453613,9.512100219726562
1682999260945058000,18.95905810546875,2.113800048828125,-1.0708999633789062,9.515999794006348
1682999260965056500,18.979056396484374,2.1342999935150146,-1.0379999876022339,9.51509952545166
1682999260985056500,18.999056396484374,2.1362998485565186,-1.0131999254226685,9.51729965209961
1682999261005058000,19.01905810546875,2.124300003051758,-0.9888999462127686,9.522500038146973
1682999261025056500,19.039056396484376,2.109299898147583,-0.9753999710083008,9.527299880981445
1682999261045058000,19.05905810546875,2.1057000160217285,-0.9763999581336975,9.527899742126465
1682999261065058000,19.07905810546875,2.111299991607666,-0.9878000020980835,9.52549934387207
1682999261085058000,19.09905810546875,2.1064000129699707,-0.9937999844551086,9.526000022888184
1682999261105058000,19.11905810546875,2.088899850845337,-0.9953999519348145,9.529699325561523
1682999261125056500,19.139056396484374,2.069499969482422,-0.9967999458312988,9.53380012512207
1682999261145058000,19.15905810546875,2.0566999912261963,-0.9989999532699585,9.536299705505371
1682999261165058000,19.17905810546875,2.0521998405456543,-0.990399956703186,9.538199424743652
1682999261185058000,19.19905810546875,2.059000015258789,-0.9726999998092651,9.53849983215332
1682999261205059600,19.2190595703125,2.0600998401641846,-0.9465000033378601,9.540900230407715
1682999261225058000,19.23905810546875,2.056999921798706,-0.9145999550819397,9.544699668884277
1682999261245056500,19.259056396484375,2.052799940109253,-0.8797000050544739,9.54889965057373
1682999261265059600,19.2790595703125,2.043299913406372,-0.8504999876022339,9.55359935760498
1682999261285058000,19.29905810546875,2.0295000076293945,-0.8281999826431274,9.558499336242676
1682999261305058000,19.31905810546875,2.006700038909912,-0.812999963760376,9.564599990844727
1682999261325058000,19.33905810546875,1.9754999876022339,-0.8037999868392944,9.5718994140625
1682999261345058000,19.35905810546875,1.941100001335144,-0.7936999797821045,9.579699516296387
1682999261365058000,19.37905810546875,1.9262999296188354,-0.7741000056266785,9.58430004119873
1682999261385056500,19.399056396484376,1.9230999946594238,-0.7538999915122986,9.586599349975586
1682999261405058000,19.41905810546875,1.916599988937378,-0.7373999953269958,9.589200019836426
1682999261425058000,19.43905810546875,1.8925999402999878,-0.7163000106811523,9.595499992370605
1682999261445058000,19.45905810546875,1.8567999601364136,-0.6899999976158142,9.604499816894531
1682999261465058000,19.47905810546875,1.8366999626159668,-0.6577999591827393,9.610599517822266
1682999261485058000,19.49905810546875,1.8435999155044556,-0.6225000023841858,9.611599922180176
1682999261505058000,19.51905810546875,1.878600001335144,-0.5730000138282776,9.60789966583252
1682999261525056500,19.539056396484376,1.9505999088287354,-0.5045999884605408,9.597399711608887
1682999261545058000,19.55905810546875,1.9134999513626099,-0.44909998774528503,9.607600212097168
1682999261565058000,19.57905810546875,1.8321999311447144,-0.4397999942302704,9.623899459838867
1682999261585058000,19.59905810546875,1.8792999982833862,-0.405599981546402,9.616299629211426
1682999261605058000,19.61905810546875,1.9804999828338623,-0.3545999825000763,9.597999572753906
1682999261625056500,19.639056396484374,2.0669000148773193,-0.3343999981880188,9.580499649047852
1682999261645058000,19.65905810546875,2.075700044631958,-0.344899982213974,9.57819938659668
1682999261665058000,19.67905810546875,2.0183000564575195,-0.3791999816894531,9.589200019836426
1682999261685058000,19.69905810546875,1.9575999975204468,-0.4129999876022339,9.600299835205078
1682999261705058000,19.71905810546875,1.9526000022888184,-0.42639997601509094,9.600799560546875
1682999261725058000,19.73905810546875,1.9982999563217163,-0.431799978017807,9.591099739074707
1682999261745056500,19.759056396484375,2.0485000610351562,-0.43539997935295105,9.580299377441406
1682999261765058000,19.77905810546875,2.0676000118255615,-0.4462999999523163,9.575799942016602
1682999261785058000,19.79905810546875,2.0590999126434326,-0.46699997782707214,9.576600074768066
1682999261805058000,19.81905810546875,2.051100015640259,-0.4966999888420105,9.576799392700195
1682999261825058000,19.83905810546875,2.052500009536743,-0.5266000032424927,9.574899673461914
1682999261845058000,19.85905810546875,2.061800003051758,-0.5532000064849854,9.571399688720703
1682999261865058000,19.87905810546875,2.067199945449829,-0.5751000046730042,9.568999290466309
1682999261885058000,19.89905810546875,2.057800054550171,-0.5960999727249146,9.56969928741455
1682999261905058000,19.91905810546875,2.043799877166748,-0.6244999766349792,9.570899963378906
1682999261925058000,19.93905810546875,2.03629994392395,-0.6505999565124512,9.570799827575684
1682999261945058000,19.95905810546875,2.0302999019622803,-0.6608999967575073,9.57129955291748
1682999261965059600,19.9790595703125,2.0257999897003174,-0.6513999700546265,9.57289981842041
1682999261985058000,19.99905810546875,2.0279998779296875,-0.6304999589920044,9.57390022277832
1682999262005058000,20.01905810546875,2.0321998596191406,-0.6060999631881714,9.57450008392334
1682999262025056500,20.039056396484376,2.029099941253662,-0.5740000009536743,9.577199935913086
1682999262045058000,20.05905810546875,2.009999990463257,-0.5392000079154968,9.583199501037598
1682999262065058000,20.07905810546875,1.990799903869629,-0.5067999958992004,9.58899974822998
1682999262085058000,20.09905810546875,1.9799998998641968,-0.45579999685287476,9.593799591064453
1682999262105058000,20.11905810546875,1.979699969291687,-0.38499999046325684,9.597000122070312
1682999262125056500,20.139056396484374,1.979099988937378,-0.319599986076355,9.599499702453613
1682999262145058000,20.15905810546875,1.9433999061584473,-0.2825999855995178,9.607999801635742
1682999262165058000,20.17905810546875,1.928999900817871,-0.24889999628067017,9.611800193786621
1682999262185058000,20.19905810546875,1.9118999242782593,-0.202799990773201,9.616299629211426
1682999262205058000,20.21905810546875,1.9114999771118164,-0.1753000020980835,9.616899490356445
1682999262225058000,20.23905810546875,1.9387999773025513,-0.1793999969959259,9.61139965057373
1682999262245056500,20.259056396484375,1.952799916267395,-0.21699999272823334,9.607699394226074
1682999262265058000,20.27905810546875,1.9463999271392822,-0.27079999446868896,9.607699394226074
1682999262285058000,20.29905810546875,1.9405999183654785,-0.3109000027179718,9.607600212097168
1682999262305058000,20.31905810546875,1.9510999917984009,-0.33789998292922974,9.604599952697754
1682999262325058000,20.33905810546875,1.9800999164581299,-0.35179999470710754,9.598199844360352
1682999262345058000,20.35905810546875,1.990399956703186,-0.36249998211860657,9.595600128173828
1682999262365058000,20.37905810546875,1.9681999683380127,-0.3702999949455261,9.599899291992188
1682999262385058000,20.39905810546875,1.9291999340057373,-0.36879998445510864,9.60789966583252
1682999262405058000,20.41905810546875,1.9006999731063843,-0.35199999809265137,9.6141996383667
1682999262425058000,20.43905810546875,1.8978999853134155,-0.33079999685287476,9.615499496459961
1682999262445058000,20.45905810546875,1.9024999141693115,-0.3206000030040741,9.614899635314941
1682999262465058000,20.47905810546875,1.8874999284744263,-0.3222000002861023,9.617799758911133
1682999262485058000,20.49905810546875,1.854699969291687,-0.32569998502731323,9.624099731445312
1682999262505058000,20.51905810546875,1.8238999843597412,-0.32749998569488525,9.629899978637695
1682999262525056500,20.539056396484376,1.817199945449829,-0.33139997720718384,9.631099700927734
1682999262545058000,20.55905810546875,1.8361999988555908,-0.3351999819278717,9.627299308776855
1682999262565056500,20.579056396484376,1.868299961090088,-0.335099995136261,9.621099472045898
1682999262585058000,20.59905810546875,1.8937000036239624,-0.337799996137619,9.61609935760498
1682999262605058000,20.61905810546875,1.902999997138977,-0.3443000018596649,9.613999366760254
1682999262625056500,20.639056396484374,1.8964999914169312,-0.352400004863739,9.614999771118164
1682999262645059600,20.6590595703125,1.8880999088287354,-0.35589998960494995,9.616499900817871
1682999262665058000,20.67905810546875,1.8654999732971191,-0.3626999855041504,9.620699882507324
1682999262685058000,20.69905810546875,1.827699899673462,-0.3691999912261963,9.627699851989746
1682999262705056500,20.719056396484376,1.7989000082015991,-0.3604999780654907,9.633399963378906
1682999262725058000,20.73905810546875,1.781999945640564,-0.31540000438690186,9.638199806213379
1682999262745056500,20.759056396484375,1.7764999866485596,-0.2565000057220459,9.640899658203125
1682999262765058000,20.77905810546875,1.778899908065796,-0.18850000202655792,9.642099380493164
1682999262785058000,20.79905810546875,1.7380999326705933,-0.12629999220371246,9.65049934387207
1682999262805058000,20.81905810546875,1.7146999835968018,-0.07599999755620956,9.655200004577637
1682999262825058000,20.83905810546875,1.7736999988555908,0.007599999662488699,9.644899368286133
1682999262845056500,20.859056396484377,1.8809999227523804,0.10109999775886536,9.62399959564209
1682999262865058000,20.87905810546875,1.9860999584197998,0.1768999993801117,9.601699829101562
1682999262885056500,20.899056396484376,2.0140998363494873,0.22029998898506165,9.594999313354492
1682999262905058000,20.91905810546875,1.955299973487854,0.22360000014305115,9.607099533081055
1682999262925058000,20.93905810546875,1.886799931526184,0.19909998774528503,9.621299743652344
1682999262945058000,20.95905810546875,1.8602999448776245,0.15850000083446503,9.62720012664795
1682999262965058000,20.97905810546875,1.8769999742507935,0.12049999833106995,9.624499320983887
1682999262985058000,20.99905810546875,1.9025999307632446,0.09719999879598618,9.619799613952637
1682999263005058000,21.01905810546875,1.903999924659729,0.08609999716281891,9.619599342346191
1682999263025056500,21.039056396484376,1.8901000022888184,0.07899999618530273,9.62239933013916
1682999263045058000,21.05905810546875,1.8707000017166138,0.07079999893903732,9.626199722290039
1682999263065056500,21.079056396484376,1.8607999086380005,0.06539999693632126,9.628199577331543
1682999263085058000,21.09905810546875,1.8608999252319336,0.0648999959230423,9.628199577331543
1682999263105058000,21.11905810546875,1.8680999279022217,0.07119999825954437,9.626799583435059
1682999263125056500,21.139056396484374,1.876599907875061,0.07039999961853027,9.625100135803223
1682999263145058000,21.15905810546875,1.8829998970031738,0.05119999870657921,9.62399959564209
1682999263165058000,21.17905810546875,1.8775999546051025,0.02029999904334545,9.625100135803223
1682999263185056500,21.199056396484377,1.8629999160766602,-0.013799999840557575,9.627999305725098
1682999263205056500,21.219056396484376,1.8481999635696411,-0.04690000042319298,9.63070011138916
1682999263225058000,21.23905810546875,1.8407999277114868,-0.06780000030994415,9.631999969482422
1682999263245056500,21.259056396484375,1.8442999124526978,-0.0771000012755394,9.63129997253418
1682999263265058000,21.27905810546875,1.8579999208450317,-0.07039999961853027,9.62869930267334
1682999263285058000,21.29905810546875,1.869399905204773,-0.05929999798536301,9.626599311828613
1682999263305058000,21.31905810546875,1.8806999921798706,-0.051500000059604645,9.62440013885498
1682999263325058000,21.33905810546875,1.8690999746322632,-0.058799996972084045,9.626599311828613
1682999263345058000,21.35905810546875,1.8202999830245972,-0.10029999911785126,9.635700225830078
1682999263365058000,21.37905810546875,1.7568999528884888,-0.1437000036239624,9.646900177001953
1682999263385058000,21.39905810546875,1.7168999910354614,-0.15969999134540558,9.653800010681152
1682999263405058000,21.41905810546875,1.7207999229431152,-0.1542000025510788,9.653200149536133
1682999263425058000,21.43905810546875,1.774399995803833,-0.1348000019788742,9.643799781799316
1682999263445058000,21.45905810546875,1.8252999782562256,-0.10700000077486038,9.634599685668945
1682999263465058000,21.47905810546875,1.851599931716919,-0.07809999585151672,9.629899978637695
1682999263485058000,21.49905810546875,1.848699927330017,-0.060499999672174454,9.630599975585938
1682999263505058000,21.51905810546875,1.8341999053955078,-0.07159999758005142,9.633299827575684
1682999263525056500,21.539056396484376,1.842099905014038,-0.0908999964594841,9.631599426269531
1682999263545058000,21.55905810546875,1.8703999519348145,-0.10249999910593033,9.625999450683594
1682999263565056500,21.579056396484376,1.9072999954223633,-0.10649999976158142,9.61870002746582
1682999263585058000,21.59905810546875,1.944000005722046,-0.10539999604225159,9.61139965057373
1682999263605058000,21.61905810546875,1.9668999910354614,-0.11259999871253967,9.60669994354248
1682999263625056500,21.639056396484374,1.9763000011444092,-0.1378999948501587,9.604399681091309
1682999263645058000,21.65905810546875,1.9738999605178833,-0.17389999330043793,9.604299545288086
1682999263665058000,21.67905810546875,1.962899923324585,-0.2078000009059906,9.605899810791016
1682999263685058000,21.69905810546875,1.9474999904632568,-0.22989998757839203,9.608499526977539
1682999263705058000,21.71905810546875,1.9213999509811401,-0.24479998648166656,9.613399505615234
1682999263725058000,21.73905810546875,1.8946999311447144,-0.2624000012874603,9.618199348449707
1682999263745056500,21.759056396484375,1.8715999126434326,-0.27799999713897705,9.622300148010254
1682999263765056500,21.779056396484375,1.8443999290466309,-0.2856999933719635,9.627299308776855
1682999263785058000,21.79905810546875,1.820599913597107,-0.28519999980926514,9.6318998336792
1682999263805058000,21.81905810546875,1.799299955368042,-0.2782999873161316,9.636099815368652
1682999263825059600,21.8390595703125,1.793199896812439,-0.2744999825954437,9.637299537658691
1682999263845058000,21.85905810546875,1.7990999221801758,-0.2732999920845032,9.636300086975098
1682999263865058000,21.87905810546875,1.803999900817871,-0.273499995470047,9.63539981842041
1682999263885058000,21.89905810546875,1.8000999689102173,-0.274399995803833,9.636099815368652
1682999263905058000,21.91905810546875,1.789599895477295,-0.2818000018596649,9.637800216674805
1682999263925058000,21.93905810546875,1.7810999155044556,-0.30149999260902405,9.638799667358398
1682999263945058000,21.95905810546875,1.7777999639511108,-0.3262999951839447,9.638599395751953
1682999263965058000,21.97905810546875,1.7588999271392822,-0.3441999852657318,9.641399383544922
1682999263985058000,21.99905810546875,1.705399990081787,-0.35920000076293945,9.65049934387207
1682999264005058000,22.01905810546875,1.6288999319076538,-0.38099998235702515,9.662799835205078
1682999264025058000,22.03905810546875,1.5621999502182007,-0.38760000467300415,9.673600196838379
1682999264045058000,22.05905810546875,1.5511000156402588,-0.3425000011920929,9.67710018157959
1682999264065058000,22.07905810546875,1.6060999631881714,-0.2549000084400177,9.67080020904541
1682999264085058000,22.09905810546875,1.70989990234375,-0.1551000028848648,9.655099868774414
1682999264105058000,22.11905810546875,1.7556999921798706,-0.07779999822378159,9.647799491882324
1682999264125056500,22.139056396484374,1.7506999969482422,-0.06830000132322311,9.648799896240234
1682999264145058000,22.15905810546875,1.739300012588501,-0.062199998646974564,9.650899887084961
1682999264165058000,22.17905810546875,1.744399905204773,-0.06309999525547028,9.649999618530273
1682999264185058000,22.19905810546875,1.786099910736084,-0.07180000096559525,9.64229965209961
1682999264205056500,22.219056396484376,1.8158999681472778,-0.08799999952316284,9.63659954071045
1682999264225058000,22.23905810546875,1.8025999069213867,-0.11589999496936798,9.638799667358398
1682999264245056500,22.259056396484375,1.7680000066757202,-0.14980000257492065,9.644700050354004
1682999264265058000,22.27905810546875,1.7486000061035156,-0.1824999898672104,9.647699356079102
1682999264285058000,22.29905810546875,1.7483999729156494,-0.21389999985694885,9.647099494934082
1682999264305058000,22.31905810546875,1.7596999406814575,-0.23879998922348022,9.644499778747559
1682999264325056500,22.339056396484374,1.7640999555587769,-0.2644999921321869,9.642999649047852
1682999264345058000,22.35905810546875,1.761299967765808,-0.2985999882221222,9.642499923706055
1682999264365058000,22.37905810546875,1.7585999965667725,-0.3407000005245209,9.641599655151367
1682999264385058000,22.39905810546875,1.7613999843597412,-0.38109999895095825,9.639599800109863
1682999264405058000,22.41905810546875,1.7644999027252197,-0.41849997639656067,9.637499809265137
1682999264425058000,22.43905810546875,1.7702999114990234,-0.4520999789237976,9.634900093078613
1682999264445058000,22.45905810546875,1.7851999998092651,-0.4846999943256378,9.630499839782715
1682999264465056500,22.479056396484374,1.802299976348877,-0.5187000036239624,9.62559986114502
1682999264485058000,22.49905810546875,1.8141999244689941,-0.5482999682426453,9.621699333190918
1682999264505058000,22.51905810546875,1.8192999362945557,-0.5830000042915344,9.61870002746582
1682999264525056500,22.539056396484376,1.8246999979019165,-0.6194999814033508,9.615399360656738
1682999264545058000,22.55905810546875,1.8329999446868896,-0.6471999883651733,9.61199951171875
1682999264565056500,22.579056396484376,1.8432999849319458,-0.6588999629020691,9.609199523925781
1682999264585058000,22.59905810546875,1.8567999601364136,-0.6520000100135803,9.607099533081055
1682999264605058000,22.61905810546875,1.8705999851226807,-0.633899986743927,9.605599403381348
1682999264625056500,22.639056396484374,1.8765000104904175,-0.6207999587059021,9.605299949645996
1682999264645059600,22.6590595703125,1.8655999898910522,-0.6193999648094177,9.607600212097168
1682999264665058000,22.67905810546875,1.820599913597107,-0.6265999674797058,9.615699768066406
1682999264685058000,22.69905810546875,1.7547999620437622,-0.6323999762535095,9.627599716186523
1682999264705058000,22.71905810546875,1.7141000032424927,-0.6189000010490417,9.635799407958984
1682999264725058000,22.73905810546875,1.737399935722351,-0.571399986743927,9.634499549865723
1682999264745056500,22.759056396484375,1.806399941444397,-0.49789997935295105,9.625899314880371
1682999264765058000,22.77905810546875,1.8467999696731567,-0.4342999756336212,9.621299743652344
1682999264785058000,22.79905810546875,1.8394999504089355,-0.4052000045776367,9.62399959564209
1682999264805058000,22.81905810546875,1.8359999656677246,-0.3880999982357025,9.625399589538574
1682999264825056500,22.839056396484374,1.8484998941421509,-0.3667999804019928,9.623799324035645
1682999264845058000,22.85905810546875,1.8981999158859253,-0.35510000586509705,9.61460018157959
1682999264865058000,22.87905810546875,1.9650999307632446,-0.36229997873306274,9.600899696350098
1682999264885058000,22.89905810546875,1.9996999502182007,-0.39249998331069946,9.592499732971191
1682999264905058000,22.91905810546875,1.9928998947143555,-0.43039998412132263,9.592299461364746
1682999264925058000,22.93905810546875,1.9774999618530273,-0.4616999924182892,9.593999862670898
1682999264945058000,22.95905810546875,1.9723999500274658,-0.4919999837875366,9.593599319458008
1682999264965058000,22.97905810546875,1.9797999858856201,-0.5205000042915344,9.59060001373291
1682999264985056500,22.999056396484374,1.9822999238967896,-0.5390999913215637,9.58899974822998
1682999265005058000,23.01905810546875,1.9649999141693115,-0.5440999865531921,9.592299461364746
1682999265025058000,23.03905810546875,1.937399983406067,-0.5415999889373779,9.597999572753906
1682999265045058000,23.05905810546875,1.9185999631881714,-0.5414000153541565,9.601799964904785
1682999265065058000,23.07905810546875,1.9023000001907349,-0.5435000061988831,9.604899406433105
1682999265085058000,23.09905810546875,1.8868999481201172,-0.5439000129699707,9.607999801635742
1682999265105058000,23.11905810546875,1.8691999912261963,-0.536899983882904,9.611800193786621
1682999265125056500,23.139056396484374,1.8588999509811401,-0.5224999785423279,9.61460018157959
1682999265145058000,23.15905810546875,1.865399956703186,-0.5123999714851379,9.613900184631348
1682999265165058000,23.17905810546875,1.8819999694824219,-0.5112000107765198,9.610699653625488
1682999265185058000,23.19905810546875,1.8960999250411987,-0.5119999647140503,9.60789966583252
1682999265205058000,23.21905810546875,1.9031999111175537,-0.5159000158309937,9.60629940032959
1682999265225058000,23.23905810546875,1.9088000059127808,-0.5252999663352966,9.604700088500977
1682999265245056500,23.259056396484375,1.9118999242782593,-0.5336999893188477,9.603599548339844
1682999265265058000,23.27905810546875,1.9157999753952026,-0.5351999998092651,9.602700233459473
1682999265285058000,23.29905810546875,1.910099983215332,-0.5304999947547913,9.604100227355957
1682999265305058000,23.31905810546875,1.882200002670288,-0.5281000137329102,9.6097993850708
1682999265325056500,23.339056396484374,1.8385999202728271,-0.5188999772071838,9.61870002746582
1682999265345058000,23.35905810546875,1.824199914932251,-0.491599977016449,9.622900009155273
1682999265365058000,23.37905810546875,1.872399926185608,-0.45409998297691345,9.615499496459961
1682999265385058000,23.39905810546875,1.9574999809265137,-0.41019999980926514,9.600500106811523
1682999265405058000,23.41905810546875,2.016700029373169,-0.3691999912261963,9.589900016784668
1682999265425058000,23.43905810546875,1.9853999614715576,-0.36059999465942383,9.596699714660645
1682999265445058000,23.45905810546875,1.9569998979568481,-0.36569997668266296,9.602399826049805
1682999265465058000,23.47905810546875,1.9950000047683716,-0.343999981880188,9.595399856567383
1682999265485058000,23.49905810546875,2.094399929046631,-0.3166999816894531,9.57509994506836
1682999265505058000,23.51905810546875,2.2019999027252197,-0.3125,9.55109977722168
1682999265525056500,23.539056396484376,2.2430999279022217,-0.3346000015735626,9.54069995880127
1682999265545058000,23.55905810546875,2.1956000328063965,-0.38499999046325684,9.54990005493164
1682999265565056500,23.579056396484376,2.1117000579833984,-0.4364999830722809,9.56659984588623
1682999265585058000,23.59905810546875,2.049099922180176,-0.46389999985694885,9.578899383544922
1682999265605058000,23.61905810546875,2.0532000064849854,-0.4576999843120575,9.578299522399902
1682999265625056500,23.639056396484374,2.097599983215332,-0.42809998989105225,9.570099830627441
1682999265645058000,23.65905810546875,2.1384999752044678,-0.3983999788761139,9.562299728393555
1682999265665058000,23.67905810546875,2.148900032043457,-0.38279998302459717,9.560599327087402
1682999265685058000,23.69905810546875,2.1347999572753906,-0.37700000405311584,9.564000129699707
1682999265705058000,23.71905810546875,2.1120998859405518,-0.3887999951839447,9.568499565124512
1682999265725058000,23.73905810546875,2.0936999320983887,-0.40860000252723694,9.571800231933594
1682999265745056500,23.759056396484375,2.085700035095215,-0.42289999127388,9.57289981842041
1682999265765058000,23.77905810546875,2.083099842071533,-0.43050000071525574,9.573100090026855
1682999265785058000,23.79905810546875,2.0771000385284424,-0.4325999915599823,9.574299812316895
1682999265805058000,23.81905810546875,2.070199966430664,-0.4324999749660492,9.575799942016602
1682999265825056500,23.839056396484374,2.0765998363494873,-0.4333999752998352,9.574399948120117
1682999265845058000,23.85905810546875,2.093600034713745,-0.438400000333786,9.570499420166016
1682999265865058000,23.87905810546875,2.114300012588501,-0.44359999895095825,9.565699577331543
1682999265885056500,23.899056396484376,2.1308000087738037,-0.44829997420310974,9.561800003051758
1682999265905058000,23.91905810546875,2.1157000064849854,-0.4658999741077423,9.564299583435059
1682999265925058000,23.93905810546875,2.0743000507354736,-0.48909997940063477,9.572199821472168
1682999265945058000,23.95905810546875,2.0190000534057617,-0.5037999749183655,9.58329963684082
1682999265965058000,23.97905810546875,2.017199993133545,-0.48159998655319214,9.584799766540527
1682999265985058000,23.99905810546875,2.0564000606536865,-0.4310999810695648,9.578899383544922
1682999266005058000,24.01905810546875,2.1217000484466553,-0.3822000026702881,9.566699981689453
1682999266025056500,24.039056396484376,2.149399995803833,-0.33139997720718384,9.562399864196777
1682999266045058000,24.05905810546875,2.1282999515533447,-0.29319998621940613,9.568399429321289
1682999266065058000,24.07905810546875,2.1015000343322754,-0.24939998984336853,9.575499534606934
1682999266085058000,24.09905810546875,2.113999843597412,-0.19709999859333038,9.573999404907227
1682999266105058000,24.11905810546875,2.164099931716919,-0.1678999960422516,9.563399314880371
1682999266125056500,24.139056396484374,2.229099988937378,-0.15369999408721924,9.548600196838379
1682999266145058000,24.15905810546875,2.258999824523926,-0.15709999203681946,9.541600227355957
1682999266165058000,24.17905810546875,2.2465999126434326,-0.16759999096393585,9.544300079345703
1682999266185058000,24.19905810546875,2.2209999561309814,-0.1891999989748001,9.54990005493164
1682999266205056500,24.219056396484376,2.2063000202178955,-0.21849998831748962,9.55270004272461
1682999266225058000,24.23905810546875,2.2029998302459717,-0.2409999966621399,9.552899360656738
1682999266245056500,24.259056396484375,2.2002999782562256,-0.24489998817443848,9.553400039672852
1682999266265058000,24.27905810546875,2.196699857711792,-0.23149999976158142,9.55459976196289
1682999266285058000,24.29905810546875,2.1915998458862305,-0.21809999644756317,9.556099891662598
1682999266305058000,24.31905810546875,2.184999942779541,-0.2150999903678894,9.557700157165527
1682999266325056500,24.339056396484374,2.1678998470306396,-0.22659999132156372,9.561299324035645
1682999266345058000,24.35905810546875,2.1424999237060547,-0.24009999632835388,9.566699981689453
1682999266365058000,24.37905810546875,2.1266000270843506,-0.24729999899864197,9.569999694824219
1682999266385058000,24.39905810546875,2.1220998764038086,-0.25130000710487366,9.570899963378906
1682999266405058000,24.41905810546875,2.1211998462677,-0.2597000002861023,9.570899963378906
1682999266425058000,24.43905810546875,2.1046998500823975,-0.2742999792098999,9.57409954071045
1682999266445058000,24.45905810546875,2.07669997215271,-0.28949999809265137,9.57979965209961
1682999266465058000,24.47905810546875,2.0623998641967773,-0.30159997940063477,9.582499504089355
1682999266485058000,24.49905810546875,2.065199851989746,-0.31119999289512634,9.581600189208984
1682999266505058000,24.51905810546875,2.075399875640869,-0.3310999870300293,9.578700065612793
1682999266525056500,24.539056396484376,2.053499937057495,-0.3540000021457672,9.582599639892578
1682999266545058000,24.55905810546875,1.9864000082015991,-0.37539997696876526,9.595999717712402
1682999266565056500,24.579056396484376,1.9019999504089355,-0.38580000400543213,9.61259937286377
1682999266585058000,24.59905810546875,1.8398000001907349,-0.3798999786376953,9.625
1682999266605058000,24.61905810546875,1.8435999155044556,-0.35670000314712524,9.625100135803223
1682999266625056500,24.639056396484374,1.913599967956543,-0.30959999561309814,9.613100051879883
1682999266645058000,24.65905810546875,2.007200002670288,-0.24979999661445618,9.595699310302734
1682999266665058000,24.67905810546875,2.0179998874664307,-0.18949998915195465,9.594799995422363
1682999266685058000,24.69905810546875,1.9572999477386475,-0.1485999971628189,9.608099937438965
1682999266705058000,24.71905810546875,1.9312999248504639,-0.1021999940276146,9.613999366760254
1682999266725058000,24.73905810546875,1.9672999382019043,-0.06229999661445618,9.606999397277832
1682999266745056500,24.759056396484375,2.032899856567383,-0.058399997651576996,9.593400001525879
1682999266765058000,24.77905810546875,2.092099905014038,-0.07440000027418137,9.580499649047852
1682999266785058000,24.79905810546875,2.097899913787842,-0.10639999806880951,9.578999519348145
1682999266805058000,24.81905810546875,2.062199831008911,-0.14469999074935913,9.586199760437012
1682999266825056500,24.839056396484374,2.0283000469207764,-0.18639999628067017,9.592700004577637
1682999266845058000,24.85905810546875,2.029099941253662,-0.21949999034404755,9.591899871826172
1682999266865058000,24.87905810546875,2.043099880218506,-0.23649999499320984,9.588500022888184
1682999266885058000,24.89905810546875,2.052500009536743,-0.23959998786449432,9.586400032043457
1682999266905058000,24.91905810546875,2.0546998977661133,-0.2465999871492386,9.585800170898438
1682999266925058000,24.93905810546875,2.044299840927124,-0.26899999380111694,9.58739948272705
1682999266945058000,24.95905810546875,2.0267999172210693,-0.29649999737739563,9.590299606323242
1682999266965058000,24.97905810546875,2.0157999992370605,-0.32269999384880066,9.591699600219727
1682999266985058000,24.99905810546875,2.0127999782562256,-0.3432999849319458,9.591699600219727
1682999267005058000,25.01905810546875,2.019899845123291,-0.3562999963760376,9.589699745178223
1682999267025056500,25.039056396484376,2.0344998836517334,-0.368399977684021,9.586099624633789
1682999267045058000,25.05905810546875,2.0476999282836914,-0.3872999846935272,9.582599639892578
1682999267065058000,25.07905810546875,2.0565998554229736,-0.4107999801635742,9.579699516296387
1682999267085058000,25.09905810546875,2.0611000061035156,-0.43059998750686646,9.577899932861328
1682999267105058000,25.11905810546875,2.065999984741211,-0.4488999843597412,9.576000213623047
1682999267125056500,25.139056396484374,2.0804998874664307,-0.46320000290870667,9.572199821472168
1682999267145058000,25.15905810546875,2.0957000255584717,-0.47349998354911804,9.568299293518066
1682999267165058000,25.17905810546875,2.1081998348236084,-0.47450000047683716,9.565499305725098
1682999267185058000,25.19905810546875,2.123800039291382,-0.46609997749328613,9.5625
1682999267205058000,25.21905810546875,2.1289000511169434,-0.4509999752044678,9.56209945678711
1682999267225058000,25.23905810546875,2.109799861907959,-0.44519999623298645,9.56659984588623
1682999267245056500,25.259056396484375,2.072999954223633,-0.444599986076355,9.574699401855469
1682999267265056500,25.279056396484375,2.041599988937378,-0.43059998750686646,9.582099914550781
1682999267285058000,25.29905810546875,2.0332999229431152,-0.398499995470047,9.585199356079102
1682999267305058000,25.31905810546875,2.07099986076355,-0.35199999809265137,9.578999519348145
1682999267325056500,25.339056396484374,2.091899871826172,-0.30480000376701355,9.576000213623047
1682999267345058000,25.35905810546875,2.06850004196167,-0.2818000018596649,9.581799507141113
1682999267365058000,25.37905810546875,2.0355000495910645,-0.27709999680519104,9.58899974822998
1682999267385058000,25.39905810546875,2.034299850463867,-0.2636999785900116,9.589599609375
1682999267405058000,25.41905810546875,2.060299873352051,-0.2425999939441681,9.584699630737305
1682999267425058000,25.43905810546875,2.0881998538970947,-0.23489999771118164,9.578800201416016
1682999267445058000,25.45905810546875,2.099400043487549,-0.24319998919963837,9.576099395751953
