time,seconds_elapsed,z,y,x,,,z,y,x,,,t,z,y,x
1.683E+18,0.039056396,-0.193999991,0.289399981,0.560099959,,,-0.855199993,-0.907299995,9.726999283,,,1,-1.049199983,-0.617900014,10.28709924
1.683E+18,0.059056396,-0.193999991,0.289399981,0.560099959,,,-0.855199993,-0.907299995,9.726999283,,,2,-1.049199983,-0.617900014,10.28709924
1.683E+18,0.079058105,-0.193999991,0.289399981,0.560099959,,,-0.855199993,-0.907299995,9.726999283,,,3,-1.049199983,-0.617900014,10.28709924
1.683E+18,0.099058105,0.039999999,-0.0126,0.142800003,,,2.637099981,-0.83069998,9.408800125,,,4,2.67709998,-0.84329998,9.551600128
1.683E+18,0.119058105,0.0117,-0.0222,0.201399997,,,2.635999918,-0.830899954,9.408999443,,,5,2.647699918,-0.853099953,9.61039944
1.683E+18,0.139056396,-0.099299997,-0.0034,0.307300001,,,2.629400015,-0.8301,9.410999298,,,6,2.530100018,-0.8335,9.718299299
1.683E+18,0.159058105,-0.077799998,0.013599999,0.176399991,,,2.617699862,-0.827499986,9.414500237,,,7,2.539899863,-0.813899986,9.590900227
1.683E+18,0.17905957,-0.043299999,0.049399998,0.092599995,,,2.602799892,-0.814300001,9.419699669,,,8,2.559499893,-0.764900003,9.512299664
1.683E+18,0.199058105,0.0004,0.092999995,0.059,,,2.59829998,-0.779500008,9.423899651,,,9,2.59869998,-0.686500013,9.482899651
1.683E+18,0.219058105,-0.020099999,0.175599992,0.122399993,,,2.589400053,-0.744399965,9.429200172,,,10,2.569300054,-0.568799973,9.551600166
1.683E+18,0.239058105,-0.030499998,0.182899997,0.225999996,,,2.580299854,-0.722299993,9.433400154,,,11,2.549799856,-0.539399996,9.65940015
1.683E+18,0.259058105,-0.167099997,0.315200001,0.32979998,,,2.628599882,-0.86439997,9.408100128,,,12,2.461499885,-0.549199969,9.737900108
1.683E+18,0.279056396,-0.107899994,0.391599983,0.238699988,,,2.608599901,-0.783800006,9.420700073,,,13,2.500699908,-0.392200023,9.659400061
1.683E+18,0.299058105,0.0537,0.671700001,0.060699999,,,2.60379982,-0.652099967,9.432099342,,,14,2.65749982,0.019600034,9.492799342
1.683E+18,0.319058105,0.1338,-0.142999992,0.126199991,,,2.602200031,-0.612100005,9.435199738,,,15,2.736000031,-0.755099997,9.561399728
1.683E+18,0.339056396,-0.0251,-0.454400003,0.221599996,,,2.594399929,-0.604600012,9.437799454,,,16,2.569299929,-1.059000015,9.65939945
1.683E+18,0.359058105,-0.120199993,-0.123999998,-0.0022,,,2.571799994,-0.5722,9.446000099,,,17,2.4516,-0.696199998,9.443800099
1.683E+18,0.379058105,0.0198,-0.0276,-0.118499994,,,2.549399853,-0.531300008,9.454500198,,,18,2.569199853,-0.558900008,9.336000204
1.683E+18,0.399056396,0.144799992,-0.185299993,0.150199994,,,2.532299995,-0.510899961,9.460199356,,,19,2.677099988,-0.696199954,9.610399351
1.683E+18,0.419056396,0.198599994,-0.091199994,0.013499999,,,2.537400007,-0.497099996,9.459599495,,,20,2.736000001,-0.58829999,9.473099494
1.683E+18,0.439058105,-0.030099999,0.126000002,-0.035999998,,,2.540599823,-0.469300002,9.460100174,,,21,2.510499824,-0.3433,9.424100175
1.683E+18,0.459058105,-0.080799997,-0.011299999,-0.174199998,,,2.542299986,-0.439699978,9.461099625,,,22,2.461499989,-0.450999977,9.286899626
1.683E+18,0.479056396,-0.129500002,0.0016,-0.263699979,,,2.54189992,-0.413499981,9.462399483,,,23,2.412399918,-0.411899981,9.198699504
1.683E+18,0.499058105,-0.0014,0.048299998,-0.411899984,,,2.541399956,-0.391499996,9.463500023,,,24,2.539999956,-0.343199998,9.051600039
1.683E+18,0.519058105,0.004,0.095799997,-0.256999999,,,2.535899878,-0.380199999,9.465399742,,,25,2.539899877,-0.284400001,9.208399743
1.683E+18,0.539056396,0.0286,0.149800003,-0.042399999,,,2.530900002,-0.385199994,9.466499329,,,26,2.559500001,-0.235399991,9.42409933
1.683E+18,0.559056396,0.022599999,0.184299991,-0.148000002,,,2.536799908,-0.400099993,9.464300156,,,27,2.559399907,-0.215800002,9.316300154
1.683E+18,0.579058105,-0.199299991,0.064599998,-0.106299996,,,2.54309988,-0.417599976,9.461899757,,,28,2.343799889,-0.352999978,9.355599761
1.683E+18,0.599058105,-0.203299999,0.1875,-0.134499997,,,2.547099829,-0.422899991,9.460599899,,,29,2.343799829,-0.235399991,9.326099902
1.683E+18,0.619058105,-0.170000002,0.326900005,-0.123399995,,,2.552999973,-0.415099978,9.459300041,,,30,2.382999972,-0.088199973,9.335900046
1.683E+18,0.639056396,-0.1884,0.2016,0.219099998,,,2.551800013,-0.407499999,9.460000038,,,31,2.363400012,-0.205899999,9.679100037
1.683E+18,0.659058105,0.130799994,0.0276,0.102299996,,,2.556200027,-0.400299996,9.45909977,,,32,2.687000021,-0.372699996,9.561399765
1.683E+18,0.679058105,0.522000015,0.243799999,0.190399989,,,2.557199955,-0.390899986,9.459199905,,,33,3.07919997,-0.147099987,9.649599895
1.683E+18,0.699058105,0.708999991,0.045599997,0.445499986,,,2.556599855,-0.398599982,9.45909977,,,34,3.265599847,-0.352999985,9.904599756
1.683E+18,0.719058105,0.31279999,-0.179899991,0.629799962,,,2.540899992,-0.447699994,9.461099625,,,35,2.853699982,-0.627599984,10.09089959
1.683E+18,0.739056396,-0.048899997,-0.398099989,0.536899984,,,2.549599886,-0.504000008,9.455900192,,,36,2.500699889,-0.902099997,9.992800176
1.683E+18,0.759056396,0.0458,0.105399996,0.436499983,,,2.57249999,-0.527099967,9.44849968,,,37,2.618299991,-0.421699971,9.884999663
1.683E+18,0.779056396,0.432099998,0.433099985,0.523400009,,,2.568599939,-0.521299958,9.449899673,,,38,3.000699937,-0.088199973,9.973299682
1.683E+18,0.799058105,0.730399966,0.341800004,0.784799993,,,2.554699898,-0.528100014,9.453199387,,,39,3.285099864,-0.186300009,10.23799938
1.683E+18,0.819058105,0.892499983,0.375799984,0.732599974,,,2.539799929,-0.542499959,9.456399918,,,40,3.432299912,-0.166699976,10.18899989
1.683E+18,0.839056396,0.89319998,0.403400004,0.428799987,,,2.539000034,-0.550499976,9.456199646,,,41,3.432200015,-0.147099972,9.884999633
1.683E+18,0.859058105,0.65990001,0.3935,-0.142299995,,,2.566400051,-0.550399959,9.448800087,,,42,3.226300061,-0.156899959,9.306500092
1.683E+18,0.879058105,0.055099998,0.449000001,-0.545099974,,,2.602399826,-0.537299991,9.439700127,,,43,2.657499824,-0.08829999,8.894600153
1.683E+18,0.899056396,-0.325599998,0.411300004,-0.79339999,,,2.630199909,-0.519199967,9.432999611,,,44,2.304599911,-0.107899964,8.639599621
1.683E+18,0.919056396,-0.569700003,0.316599995,-0.955799997,,,2.648699999,-0.502900004,9.428699493,,,45,2.078999996,-0.186300009,8.472899497
1.683E+18,0.939058105,-0.513899982,0.267100006,-0.991899967,,,2.661599874,-0.492699981,9.425600052,,,46,2.147699893,-0.225599974,8.433700085
1.683E+18,0.959058105,-0.134599999,0.331200004,-0.69659996,,,2.664700031,-0.497899979,9.424499512,,,47,2.530100033,-0.166699976,8.727899551
1.683E+18,0.979058105,0.028199999,0.250499994,-0.366599977,,,2.648900032,-0.515299976,9.427999496,,,48,2.677100031,-0.264799982,9.061399519
1.683E+18,0.999058105,0.130899996,0.294,-0.500100017,,,2.624699831,-0.529399991,9.434000015,,,49,2.755599827,-0.235399991,8.933899999
1.683E+18,1.019058105,0.021699999,0.3204,-0.504799962,,,2.606400013,-0.536199987,9.438699722,,,50,2.628100011,-0.215799987,8.93389976
1.683E+18,1.039056396,0.250400007,0.3759,-0.422399998,,,2.583600044,-0.542599976,9.444499969,,,51,2.834000051,-0.166699976,9.022099972
1.683E+18,1.059058105,0.360499978,0.605599999,-0.349700004,,,2.561800003,-0.546799958,9.450300217,,,52,2.922299981,0.058800042,9.100600213
1.683E+18,1.079058105,0.096000001,0.672199965,-0.406800002,,,2.532099962,-0.544699967,9.458399773,,,53,2.628099963,0.127499998,9.051599771
1.683E+18,1.099058105,-0.294999987,0.672599971,-1.040599942,,,2.511299849,-0.535299957,9.464499474,,,54,2.216299862,0.137300014,8.423899531
1.683E+18,1.119058105,-0.468599975,0.625899971,-1.418099999,,,2.498600006,-0.50819999,9.469299316,,,55,2.030000031,0.117699981,8.051199317
1.683E+18,1.139056396,-0.437899977,0.380699992,-1.530399919,,,2.487400055,-0.478799999,9.473799706,,,56,2.049500078,-0.098100007,7.943399787
1.683E+18,1.159058105,-0.32099998,0.236599997,-1.543900013,,,2.478399992,-0.452299982,9.477399826,,,57,2.157400012,-0.215699986,7.933499813
1.683E+18,1.179058105,-0.252499998,0.0185,-1.707299948,,,2.458999872,-0.420599997,9.484000206,,,58,2.206499875,-0.402099997,7.776700258
1.683E+18,1.199058105,0.021399999,0.0176,-1.850799918,,,2.440000057,-0.390199989,9.490200043,,,59,2.461400056,-0.372599989,7.639400125
1.683E+18,1.219058105,0.352200001,0.178399995,-1.755199909,,,2.432800055,-0.374499977,9.492599487,,,60,2.785000056,-0.196099982,7.737399578
1.683E+18,1.239058105,0.457499981,0.117299996,-1.345299959,,,2.425499916,-0.372299999,9.494599342,,,61,2.882999897,-0.255000003,8.149299383
1.683E+18,1.259058105,0.280000001,0.225599989,-1.007099986,,,2.406899929,-0.362899989,9.499699593,,,62,2.68689993,-0.1373,8.492599607
1.683E+18,1.279056396,0.228199989,0.355699986,-0.877499998,,,2.380300045,-0.336099982,9.507399559,,,63,2.608500034,0.019600004,8.629899561
1.683E+18,1.299058105,0.298999995,0.294999987,-0.65109998,,,2.348599911,-0.304800004,9.516300201,,,64,2.647599906,-0.009800017,8.865200222
1.683E+18,1.319058105,0.433899999,0.1866,-0.685599983,,,2.331500053,-0.274899989,9.521399498,,,65,2.765400052,-0.08829999,8.835799515
1.683E+18,1.339056396,0.320600003,0.217099994,-0.584599972,,,2.346699953,-0.2465,9.518499374,,,66,2.667299956,-0.029400006,8.933899403
1.683E+18,1.359058105,0.26699999,0.160699993,-0.0372,,,2.380699873,-0.229299992,9.510399818,,,67,2.647699863,-0.068599999,9.473199818
1.683E+18,1.379058105,0.49939999,-0.0039,1.311699986,,,2.403300047,-0.221499994,9.505000114,,,68,2.902700037,-0.225399994,10.8167001
1.683E+18,1.399058105,0.951599956,-0.2016,3.69659996,,,2.372699976,-0.210199997,9.512899399,,,69,3.324299932,-0.411799997,13.20949936
1.683E+18,1.419058105,1.4375,-0.539099991,5.325799942,,,2.298699856,-0.206100002,9.531099319,,,70,3.736199856,-0.745199993,14.85689926
1.683E+18,1.439058105,1.455699921,-0.67019999,4.625599861,,,2.241299868,-0.202500001,9.54489994,,,71,3.696999788,-0.872699991,14.1704998
1.683E+18,1.459058105,1.299799919,-0.339299977,2.716899872,,,2.259899855,-0.160699993,9.54129982,,,72,3.559699774,-0.49999997,12.25819969
1.683E+18,1.479056396,1.410300016,-0.611000001,2.741799831,,,2.325899839,-0.104800001,9.526199341,,,73,3.736199856,-0.715800002,12.26799917
1.683E+18,1.49905957,1.528800011,-1.191399932,3.847100019,,,2.354500055,-0.093199998,9.519299507,,,74,3.883300066,-1.28459993,13.36639953
1.683E+18,1.519058105,1.395900011,-1.067799926,3.745599985,,,2.340299845,-0.099100001,9.522699356,,,75,3.736199856,-1.166899927,13.26829934
1.683E+18,1.539056396,0.402999997,-0.798299968,2.495699883,,,2.323099852,-0.0744,9.527199745,,,76,2.726099849,-0.872699969,12.02289963
1.683E+18,1.559058105,-0.790299952,-0.834899962,0.729399979,,,2.359400034,-0.027999999,9.518499374,,,77,1.569100082,-0.862899961,10.24789935
1.683E+18,1.579058105,-1.548200011,-0.464699984,-0.934300005,,,2.450399876,0.013599999,9.495499611,,,78,0.902199864,-0.451099984,8.561199605
1.683E+18,1.599058105,-1.655399919,-0.819899976,-1.68599999,,,2.537999868,0.0059,9.472499847,,,79,0.88259995,-0.813999976,7.786499858
1.683E+18,1.619058105,-1.309499979,-1.245700002,-0.913499951,,,2.564699888,-0.078099996,9.464900017,,,80,1.255199909,-1.323799998,8.551400065
1.683E+18,1.639056396,-0.725699961,-0.983500004,-0.46329999,,,2.520299911,-0.173500001,9.475599289,,,81,1.79459995,-1.157000005,9.012299299
1.683E+18,1.659058105,-0.134199992,-0.553499997,-0.102600001,,,2.468199968,-0.25059998,9.487599373,,,82,2.333999977,-0.804099977,9.384999372
1.683E+18,1.679058105,-0.179299995,-0.1479,0.152400002,,,2.424999952,-0.30309999,9.497200012,,,83,2.245699957,-0.45099999,9.649600014
1.683E+18,1.699058105,-0.562599957,-0.0858,0.342799991,,,2.396399975,-0.345599979,9.502999306,,,84,1.833800018,-0.431399979,9.845799297
1.683E+18,1.719058105,-0.801400006,-0.469300002,0.54369998,,,2.370499849,-0.3838,9.50799942,,,85,1.569099844,-0.853100002,10.0516994
1.683E+18,1.739058105,-1.158299923,-0.499499977,-0.106199995,,,2.35469985,-0.412399977,9.510799408,,,86,1.196399927,-0.911899954,9.404599413
1.683E+18,1.759058105,-1.061699986,-0.379700005,-1.282099962,,,2.356099844,-0.424299985,9.509900093,,,87,1.294399858,-0.80399999,8.227800131
1.683E+18,1.779058105,-1.084800005,-0.052899998,-2.153899908,,,2.359699965,-0.427599996,9.508899689,,,88,1.27489996,-0.480499994,7.354999781
1.683E+18,1.799058105,-1.121399999,0.035,-2.484599829,,,2.366799831,-0.44689998,9.506199837,,,89,1.245399833,-0.41189998,7.021600008
1.683E+18,1.819058105,-0.938299954,0.174400002,-2.494499922,,,2.360299826,-0.478399992,9.506299973,,,90,1.421999872,-0.30399999,7.011800051
1.683E+18,1.839056396,-0.818599999,0.418300003,-1.973099947,,,2.319000006,-0.516299963,9.514499664,,,91,1.500400007,-0.09799996,7.541399717
1.683E+18,1.859058105,-0.850699961,0.727899969,-1.611499906,,,2.262899876,-0.561199963,9.525400162,,,92,1.412199914,0.166700006,7.913900256
1.683E+18,1.879058105,-0.683499992,1.059199929,-1.919199944,,,2.242799997,-0.578700006,9.529099464,,,93,1.559300005,0.480499923,7.609899521
1.683E+18,1.899058105,-1.217800021,1.277699947,-1.874599934,,,2.227900028,-0.56189996,9.533599854,,,94,1.010100007,0.715799987,7.65899992
1.683E+18,1.919058105,-1.423399925,1.190699935,-1.800199986,,,2.217700005,-0.533599973,9.537599564,,,95,0.794300079,0.657099962,7.737399578
1.683E+18,1.939058105,-1.664299965,1.095399976,-1.745999932,,,2.203699827,-0.506999969,9.542300224,,,96,0.539399862,0.588400006,7.796300292
1.683E+18,1.959058105,-1.455199957,0.875499964,-1.694099903,,,2.180899858,-0.473399997,9.549300194,,,97,0.725699902,0.402099967,7.855200291
1.683E+18,1.979058105,-1.288900018,0.73089999,-2.072900057,,,2.16170001,-0.436699986,9.555399895,,,98,0.872799993,0.294200003,7.482499838
1.683E+18,1.999058105,-0.811199963,0.426099986,-2.571499825,,,2.174299955,-0.406499982,9.553899765,,,99,1.363099992,0.019600004,6.98239994
1.683E+18,2.019058105,-0.560799956,0.389899999,-2.49090004,,,2.188699961,-0.380099982,9.551699638,,,100,1.627900004,0.009800017,7.060799599
1.683E+18,2.039056396,-0.068799995,0.218899995,-1.40139997,,,2.196799994,-0.35619998,9.550700188,,,101,2.127999999,-0.137299985,8.149300218
1.683E+18,2.059058105,0.725299954,-0.454099983,1.096099973,,,2.187199831,-0.330300003,9.553899765,,,102,2.912499785,-0.784399986,10.64999974
1.683E+18,2.079058105,1.571999907,-0.984200001,3.923399925,,,2.115200043,-0.319900006,9.570399284,,,103,3.68719995,-1.304100007,13.49379921
1.683E+18,2.099058105,2.488699913,-1.072299957,5.14109993,,,2.032099962,-0.32009998,9.588399887,,,104,4.520799875,-1.392399937,14.72949982
1.683E+18,2.119058105,2.403100014,-1.051499963,5.217899799,,,1.98029995,-0.301699996,9.59980011,,,105,4.383399963,-1.353199959,14.81769991
1.683E+18,2.139056396,1.785099983,-1.091699958,4.018599987,,,1.970799923,-0.271400005,9.602700233,,,106,3.755899906,-1.363099962,13.62130022
1.683E+18,2.159058105,1.504499912,-1.709100008,3.691299915,,,2.006199837,-0.222800002,9.596599579,,,107,3.510699749,-1.93190001,13.28789949
1.683E+18,2.179056396,1.621999979,-2.26609993,4.64139986,,,2.00639987,-0.16579999,9.597700119,,,108,3.628399849,-2.43189992,14.23909998
1.683E+18,2.199058105,1.692299962,-2.338099957,4.897099972,,,1.965499997,-0.123299994,9.606800079,,,109,3.657799959,-2.46139995,14.50390005
1.683E+18,2.219058105,1.368600011,-2.127300024,3.245299816,,,1.94599998,-0.0889,9.611199379,,,110,3.314599991,-2.216200024,12.8564992
1.683E+18,2.239058105,0.84739995,-1.956900001,0.915299952,,,1.967000008,-0.053299997,9.607099533,,,111,2.814399958,-2.010199998,10.52239949
1.683E+18,2.259058105,0.734399974,-1.712000012,-0.371999979,,,2.001600027,-0.043299999,9.600099564,,,112,2.736000001,-1.755300011,9.228099585
1.683E+18,2.279056396,0.621899962,-0.998999953,-0.613900006,,,2.016000032,-0.079599999,9.59679985,,,113,2.637899995,-1.078599952,8.982899845
1.683E+18,2.299058105,0.357600003,-0.337799996,-0.340599984,,,2.005699873,-0.152400002,9.598099709,,,114,2.363299876,-0.490199998,9.257499725
1.683E+18,2.319058105,-0.142299995,0.385499984,-0.39199999,,,1.985999942,-0.238399997,9.600399971,,,115,1.843699947,0.147099987,9.208399981
1.683E+18,2.339056396,-0.571999967,0.728599966,-0.372500002,,,1.974399924,-0.316699982,9.600599289,,,116,1.402399957,0.411899984,9.228099287
1.683E+18,2.359058105,-0.729399979,0.787599981,-0.529199958,,,1.965099931,-0.375699997,9.600299835,,,117,1.235699952,0.411899984,9.071099877
1.683E+18,2.379058105,-0.65200001,0.531799972,-0.578399956,,,1.956299901,-0.414099991,9.600500107,,,118,1.304299891,0.117699981,9.022100151
1.683E+18,2.399058105,-0.413399994,0.500199974,-0.724999964,,,1.953099966,-0.441399992,9.599999428,,,119,1.539699972,0.058799982,8.874999464
1.683E+18,2.419058105,-0.36679998,0.064899996,-0.460500002,,,1.945599914,-0.466999978,9.600299835,,,120,1.578799933,-0.402099982,9.139799833
1.683E+18,2.439058105,-0.176200002,0.0175,-0.540699959,,,1.931599975,-0.488199979,9.602099419,,,121,1.755399972,-0.470699979,9.06139946
1.683E+18,2.459058105,-0.161499992,0.0106,-1.129999995,,,1.926699996,-0.491099983,9.602899551,,,122,1.765200004,-0.480499984,8.472899556
1.683E+18,2.479058105,-0.135700002,-0.134599999,-1.553299904,,,1.920499921,-0.483099997,9.604599953,,,123,1.784799919,-0.617699996,8.051300049
1.683E+18,2.499056396,0.020099999,-0.12969999,-1.790699959,,,1.91170001,-0.478199989,9.606599808,,,124,1.93180001,-0.607899979,7.815899849
1.683E+18,2.519058105,0.214900002,0.0262,-1.842899919,,,1.893399954,-0.487099975,9.609700203,,,125,2.108299956,-0.460899975,7.766800284
1.683E+18,2.539056396,0.47209999,0.252200007,-1.671499968,,,1.861799955,-0.507200003,9.614899635,,,126,2.333899945,-0.254999995,7.943399668
1.683E+18,2.559058105,0.572699964,0.522700012,-1.638899922,,,1.819999933,-0.532499969,9.621500015,,,127,2.392699897,-0.009799957,7.982600093
1.683E+18,2.579058105,0.574400008,0.745099962,-1.682399988,,,1.788899899,-0.558799982,9.625800133,,,128,2.363299906,0.18629998,7.943400145
1.683E+18,2.599058105,0.30399999,0.713799953,-1.938399911,,,1.77489996,-0.586299956,9.626799583,,,129,2.07889995,0.127499998,7.688399673
1.683E+18,2.619058105,0.323399991,0.741099954,-2.268899918,,,1.78489995,-0.603799999,9.62389946,,,130,2.108299941,0.137299955,7.354999542
1.683E+18,2.639056396,0.4542,0.657299995,-2.125799894,,,1.81099999,-0.618099988,9.618100166,,,131,2.265199989,0.039200008,7.492300272
1.683E+18,2.659058105,0.404599994,0.640199959,-2.077499866,,,1.850899935,-0.640199959,9.609000206,,,132,2.255499929,0,7.53150034
1.683E+18,2.679058105,0.28549999,0.867999971,-2.100199938,,,1.88169992,-0.6523,9.602199554,,,133,2.16719991,0.215699971,7.501999617
1.683E+18,2.699058105,-0.031300001,0.894899964,-2.107599974,,,1.894599915,-0.649699986,9.599899292,,,134,1.863299914,0.245199978,7.492299318
1.683E+18,2.719058105,-0.092999995,0.556299984,-1.621699929,,,1.926799893,-0.6347,9.594499588,,,135,1.833799899,-0.078400016,7.972799659
1.683E+18,2.739058105,0.238999993,0.361200005,-0.1162,,,1.957599998,-0.61619997,9.589399338,,,136,2.19659999,-0.254999965,9.473199338
1.683E+18,2.759058105,0.590900004,-0.305799991,2.528300047,,,1.939099908,-0.625699997,9.592599869,,,137,2.529999912,-0.931499988,12.12089992
1.683E+18,2.779058105,1.16170001,-0.933399975,4.401099682,,,1.878199935,-0.655200005,9.602700233,,,138,3.039899945,-1.58859998,14.00379992
1.683E+18,2.799058105,1.07099998,-1.524099946,4.963299751,,,1.841399908,-0.662699997,9.60929966,,,139,2.912399888,-2.186799943,14.57259941
1.683E+18,2.819058105,0.322299987,-1.005800009,3.318799973,,,1.864499927,-0.641600013,9.6062994,,,140,2.186799914,-1.647400022,12.92509937
1.683E+18,2.839056396,-0.171999991,-1.466899991,1.98999989,,,1.995999932,-0.612100005,9.581799507,,,141,1.823999941,-2.078999996,11.5717994
1.683E+18,2.859058105,0.3116,-1.870099902,3.382599831,,,2.130199909,-0.620700002,9.5522995,,,142,2.441799909,-2.490799904,12.93489933
1.683E+18,2.879058105,0.827399969,-1.352599978,4.376599789,,,2.143899918,-0.628199995,9.548699379,,,143,2.971299887,-1.980799973,13.92529917
1.683E+18,2.899058105,0.670599997,-1.217800021,3.916599989,,,2.104599953,-0.625699997,9.557600021,,,144,2.77519995,-1.843500018,13.47420001
1.683E+18,2.919058105,0.308999985,-1.005800009,2.342399836,,,2.093600035,-0.582700014,9.562799454,,,145,2.40260002,-1.588500023,11.90519929
1.683E+18,2.939058105,0.020399999,-1.083099961,0.858599961,,,2.136999846,-0.53490001,9.555999756,,,146,2.157399844,-1.617999971,10.41459972
1.683E+18,2.959058105,-0.172399998,-1.052899957,0.215399995,,,2.202399969,-0.515999973,9.542099953,,,147,2.029999971,-1.56889993,9.757499948
1.683E+18,2.979058105,-0.306699991,-0.683399975,0.25939998,,,2.218999863,-0.532499969,9.537399292,,,148,1.912299871,-1.215899944,9.796799272
1.683E+18,2.999058105,-0.674199998,-0.322999984,0.574899971,,,2.174599886,-0.569299996,9.545499802,,,149,1.500399888,-0.89229998,10.12039977
1.683E+18,3.019058105,-0.938399971,0.120199993,-0.015,,,2.115200043,-0.600799978,9.556900024,,,150,1.176800072,-0.480599985,9.541900025
1.683E+18,3.039056396,-1.005800009,0.189099997,-0.432399988,,,2.084499836,-0.620599985,9.562399864,,,151,1.078699827,-0.431499988,9.129999876
1.683E+18,3.059058105,-0.742299974,0.20979999,-0.717199981,,,2.075999975,-0.641299963,9.562799454,,,152,1.333700001,-0.431499973,8.845599473
1.683E+18,3.079058105,-0.702399969,0.257699996,-0.902499974,,,2.075299978,-0.659799993,9.561699867,,,153,1.372900009,-0.402099997,8.659199893
1.683E+18,3.099058105,-0.700999975,0.326199979,-0.903499961,,,2.064100027,-0.679199994,9.562799454,,,154,1.363100052,-0.353000015,8.659299493
1.683E+18,3.119058105,-0.728799999,0.363000005,-0.906799972,,,2.042899847,-0.696399987,9.566100121,,,155,1.314099848,-0.333399981,8.659300148
1.683E+18,3.139056396,-0.819499969,0.305299997,-1.20389998,,,2.025699854,-0.707399964,9.56899929,,,156,1.206199884,-0.402099967,8.365099311
1.683E+18,3.159058105,-0.92869997,0.307599992,-1.627200007,,,2.017299891,-0.709699988,9.570599556,,,157,1.08859992,-0.402099997,7.943399549
1.683E+18,3.179056396,-0.784500003,0.398799986,-1.885499954,,,2.000499964,-0.712599993,9.573900223,,,158,1.215999961,-0.313800007,7.688400269
1.683E+18,3.199056396,-0.607899964,0.466999978,-1.755599976,,,1.961199999,-0.721899986,9.581299782,,,159,1.353300035,-0.254900008,7.825699806
1.683E+18,3.219058105,-0.516299963,0.583799958,-1.763599992,,,1.918599963,-0.73089999,9.589300156,,,160,1.4023,-0.147100031,7.825700164
1.683E+18,3.239058105,-0.444799989,0.685499966,-1.562999964,,,1.886399984,-0.744300008,9.594599724,,,161,1.441599995,-0.058800042,8.03159976
1.683E+18,3.259056396,-0.52579999,0.878199995,-1.780799985,,,1.869399905,-0.760599971,9.596699715,,,162,1.343599916,0.117600024,7.81589973
1.683E+18,3.279058105,-0.685499966,0.809799969,-2.191299915,,,1.872099996,-0.770500004,9.595399857,,,163,1.186600029,0.039299965,7.404099941
1.683E+18,3.299058105,-0.767699957,0.774100006,-2.033400059,,,1.875899911,-0.774100006,9.594299316,,,164,1.108199954,0,7.560899258
1.683E+18,3.319058105,-0.60710001,0.801599979,-1.348899961,,,1.862399936,-0.782000005,9.596300125,,,165,1.255299926,0.019599974,8.247400165
1.683E+18,3.339056396,-0.361099988,0.821500003,-0.61649996,,,1.841899991,-0.792099953,9.599399567,,,166,1.480800003,0.029400051,8.982899606
1.683E+18,3.359058105,-0.204999998,0.948300004,-0.063099995,,,1.813300014,-0.791399956,9.604899406,,,167,1.608300015,0.156900048,9.541799411
1.683E+18,3.379058105,-0.239500001,0.901899993,-0.343600005,,,1.788999915,-0.774399996,9.610899925,,,168,1.549499914,0.127499998,9.26729992
1.683E+18,3.399058105,-0.164099991,0.471699983,-0.881699979,,,1.81159997,-0.736499965,9.609600067,,,169,1.647499979,-0.264799982,8.727900088
1.683E+18,3.419058105,0.0092,-0.087399997,0.054299999,,,1.853899956,-0.68720001,9.605199814,,,170,1.863099956,-0.774600007,9.659499813
1.683E+18,3.439058105,0.57980001,-0.355399996,1.989199996,,,1.881500006,-0.654500008,9.602099419,,,171,2.461300015,-1.009900004,11.59129941
1.683E+18,3.459058105,1.090199947,-0.404799998,3.654999971,,,1.881099939,-0.634599984,9.603499413,,,172,2.971299887,-1.039399981,13.25849938
1.683E+18,3.479058105,1.129299998,-0.618399978,4.071099758,,,1.861699939,-0.607299984,9.609099388,,,173,2.990999937,-1.225699961,13.68019915
1.683E+18,3.499058105,0.99089998,-0.93599999,3.537199974,,,1.852899909,-0.564300001,9.613399506,,,174,2.843799889,-1.50029999,13.15059948
1.683E+18,3.519058105,1.06340003,-1.357900023,2.960799932,,,1.878499985,-0.515100002,9.611199379,,,175,2.941900015,-1.873000026,12.57199931
1.683E+18,3.539056396,1.231599927,-1.605499983,3.150499821,,,1.906399965,-0.473399997,9.60779953,,,176,3.137999892,-2.07889998,12.75829935
1.683E+18,3.559058105,1.303499937,-1.646699905,3.697999954,,,1.903199911,-0.451799989,9.609499931,,,177,3.206699848,-2.098499894,13.30749989
1.683E+18,3.579058105,1.09589994,-1.318300009,3.576499939,,,1.885199904,-0.446799994,9.61329937,,,178,2.981099844,-1.765100002,13.18979931
1.683E+18,3.599058105,0.730499983,-0.970899999,3.014400005,,,1.868199944,-0.450899988,9.616399765,,,179,2.598699927,-1.421799988,12.63079977
1.683E+18,3.619058105,0.4551,-0.700299978,1.975399971,,,1.868899941,-0.456799984,9.616000175,,,180,2.323999941,-1.157099962,11.59140015
1.683E+18,3.639056396,0.078499995,-0.561100006,1.007300019,,,1.882699966,-0.458700001,9.613200188,,,181,1.961199962,-1.019800007,10.62050021
1.683E+18,3.659058105,-0.197300002,-0.39379999,0.30339998,,,1.893799901,-0.459299982,9.611000061,,,182,1.696499899,-0.853099972,9.914400041
1.683E+18,3.679058105,-0.181299999,-0.282999992,-0.342899978,,,1.897499919,-0.462199986,9.610199928,,,183,1.71619992,-0.745199978,9.26729995
1.683E+18,3.699058105,-0.152199998,-0.251800001,-0.862499952,,,1.897799969,-0.463999987,9.609999657,,,184,1.74559997,-0.715799987,8.747499704
1.683E+18,3.719058105,-0.242799997,-0.164999992,-1.234300017,,,1.900099993,-0.472299993,9.609099388,,,185,1.657299995,-0.637299985,8.374799371
1.683E+18,3.739058105,-0.456499994,-0.054899998,-1.555699944,,,1.907899976,-0.484399974,9.606999397,,,186,1.451399982,-0.539299972,8.051299453
1.683E+18,3.759058105,-0.654799998,-0.078499995,-1.809999943,,,1.909999967,-0.490199983,9.6062994,,,187,1.255199969,-0.568699978,7.796299458
1.683E+18,3.779058105,-0.755800009,-0.155599996,-1.744599938,,,1.893399954,-0.491599977,9.609499931,,,188,1.137599945,-0.647199973,7.864899993
1.683E+18,3.799058105,-0.557599962,-0.268700004,-1.74909997,,,1.871699929,-0.486299992,9.613999367,,,189,1.314099967,-0.754999995,7.864899397
1.683E+18,3.819058105,0.021599999,-0.357499987,-1.458799958,,,1.851399899,-0.485799998,9.618000031,,,190,1.872999897,-0.843299985,8.159200072
1.683E+18,3.839058105,0.620199978,-0.28459999,-1.36439991,,,1.831399918,-0.48999998,9.621600151,,,191,2.451599896,-0.774599969,8.257200241
1.683E+18,3.859058105,0.72179997,-0.335399985,-1.4375,,,1.808200002,-0.488299996,9.626099586,,,192,2.529999971,-0.823699981,8.188599586
1.683E+18,3.879058105,0.668799996,-0.344599992,-1.658499956,,,1.782799959,-0.479000002,9.631299973,,,193,2.451599956,-0.823599994,7.972800016
1.683E+18,3.899058105,0.61500001,-0.387899995,-1.653899908,,,1.758099914,-0.465199977,9.636499405,,,194,2.373099923,-0.853099972,7.982599497
1.683E+18,3.919058105,0.742899954,-0.276800007,-1.491099954,,,1.738099933,-0.458599985,9.640399933,,,195,2.480999887,-0.735399991,8.149299979
1.683E+18,3.939058105,0.779899955,-0.088799998,-1.42719996,,,1.710899949,-0.460199982,9.645199776,,,196,2.490799904,-0.54899998,8.217999816
1.683E+18,3.959058105,0.616999984,0.079899997,-1.501599908,,,1.677699924,-0.462300003,9.651000023,,,197,2.294699907,-0.382400006,8.149400115
1.683E+18,3.979058105,0.514699996,0.254900008,-1.712000012,,,1.652499914,-0.460799992,9.655399323,,,198,2.16719991,-0.205899984,7.94339931
1.683E+18,3.999056396,0.550999999,0.358999997,-1.569599986,,,1.625999928,-0.456999987,9.660099983,,,199,2.176999927,-0.09799999,8.090499997
1.683E+18,4.019058105,0.683399975,0.515100002,-1.748600006,,,1.611199975,-0.45629999,9.662599564,,,200,2.29459995,0.058800012,7.913999557
1.683E+18,4.039056396,0.346599996,0.757200003,-1.995000005,,,1.604799986,-0.453099996,9.663799286,,,201,1.951399982,0.304100007,7.668799281
1.683E+18,4.059058105,0.027199998,0.903699994,-2.142799854,,,1.600600004,-0.452600002,9.664499283,,,202,1.627800003,0.451099992,7.521699429
1.683E+18,4.079058105,-0.361900002,1.064899921,-1.926199913,,,1.60739994,-0.447099984,9.663599968,,,203,1.245499939,0.617799938,7.737400055
1.683E+18,4.099058105,-0.525099993,0.797399998,-0.248799995,,,1.613600016,-0.434499979,9.663199425,,,204,1.088500023,0.362900019,9.41439943
1.683E+18,4.119058105,-0.220199987,0.309199989,2.198600054,,,1.593099952,-0.417099983,9.667300224,,,205,1.372899964,-0.107899994,11.86590028
1.683E+18,4.139056396,0.059699997,0.201799989,3.720399857,,,1.548499942,-0.397899985,9.67539978,,,206,1.608199939,-0.196099997,13.39579964
1.683E+18,4.159058105,0.35769999,-0.297999978,4.072000027,,,1.54460001,-0.378499985,9.676799774,,,207,1.9023,-0.676499963,13.7487998
1.683E+18,4.179058105,0.886199951,-0.639400005,4.633299828,,,1.565400004,-0.350999981,9.674499512,,,208,2.451599956,-0.990399987,14.30779934
1.683E+18,4.199058105,0.914799988,-0.649599969,3.823299885,,,1.595600009,-0.321199983,9.670599937,,,209,2.510399997,-0.970799953,13.49389982
1.683E+18,4.219058105,0.609899998,-1.357299924,3.539499998,,,1.665199995,-0.280299991,9.660099983,,,210,2.275099993,-1.637599915,13.19959998
1.683E+18,4.239058105,0.318199992,-1.469699979,3.850299835,,,1.711599946,-0.226799995,9.653399467,,,211,2.029799938,-1.696499974,13.5036993
1.683E+18,4.259056396,0.141599998,-1.131099939,3.122099876,,,1.701999903,-0.192699999,9.655799866,,,212,1.843599901,-1.323799938,12.77789974
1.683E+18,4.279056396,-0.2359,-0.748699963,2.063499928,,,1.706900001,-0.172999993,9.655399323,,,213,1.471000001,-0.921699956,11.71889925
1.683E+18,4.299058105,-0.351899981,-0.648400009,1.878499985,,,1.714999914,-0.165399998,9.653999329,,,214,1.363099933,-0.813800007,11.53249931
1.683E+18,4.319058105,-0.325399995,-0.31189999,1.427899957,,,1.717999935,-0.168599993,9.653499603,,,215,1.39259994,-0.480499983,11.08139956
1.683E+18,4.339056396,-0.512600005,-0.086300001,0.820299983,,,1.718799949,-0.178299993,9.653100014,,,216,1.206199944,-0.264599994,10.4734
1.683E+18,4.359058105,-0.792299986,-0.080499999,-0.120099999,,,1.723899961,-0.184199989,9.652099609,,,217,0.931599975,-0.264699988,9.53199961
1.683E+18,4.379058105,-0.879499972,-0.140100002,-1.389799953,,,1.752299905,-0.18339999,9.646999359,,,218,0.872799933,-0.323499992,8.257199407
1.683E+18,4.399058105,-0.702199996,-0.239599988,-2.163499832,,,1.810299993,-0.191799998,9.636099815,,,219,1.108099997,-0.431399986,7.472599983
1.683E+18,4.419058105,-0.297999978,-0.092500001,-2.259899855,,,1.8671,-0.221199989,9.624699593,,,220,1.569100022,-0.313699991,7.364799738
1.683E+18,4.439058105,-0.153399989,0.074499995,-2.12680006,,,1.889199972,-0.270599991,9.619099617,,,221,1.735799983,-0.196099997,7.492299557
1.683E+18,4.459058105,-0.240499988,0.38349998,-1.980199933,,,1.878199935,-0.324699998,9.619599342,,,222,1.637699947,0.058799982,7.639399409
1.683E+18,4.479058105,-0.641900003,0.629599988,-1.650399923,,,1.848099947,-0.38439998,9.623199463,,,223,1.206199944,0.245200008,7.97279954
1.683E+18,4.499058105,-0.980599999,0.7755,-1.778100014,,,1.833799958,-0.442099988,9.62349987,,,224,0.853199959,0.333400011,7.845399857
1.683E+18,4.519058105,-1.077099919,0.824599981,-2.276200056,,,1.832199931,-0.4912,9.621399879,,,225,0.755100012,0.333399981,7.345199823
1.683E+18,4.539056396,-1.30369997,0.857499957,-2.862099886,,,1.833299994,-0.533899963,9.618899345,,,226,0.529600024,0.323599994,6.756799459
1.683E+18,4.559058105,-1.212899923,0.846699953,-3.162599802,,,1.840499997,-0.572099984,9.615300179,,,227,0.627600074,0.274599969,6.452700377
1.683E+18,4.579058105,-0.799899995,0.998699963,-3.020799875,,,1.84920001,-0.61619997,9.610899925,,,228,1.049300015,0.382499993,6.59010005
1.683E+18,4.599058105,-0.478100002,1.098099947,-2.371799946,,,1.841300011,-0.666700006,9.609099388,,,229,1.363200009,0.431399941,7.237299442
1.683E+18,4.619058105,-0.491599977,1.15170002,-1.685199976,,,1.825299978,-0.710399985,9.609000206,,,230,1.333700001,0.441300035,7.92380023
1.683E+18,4.639056396,-0.330599993,1.093199968,-1.244300008,,,1.811399937,-0.740199983,9.609399796,,,231,1.480799943,0.352999985,8.365099788
1.683E+18,4.659058105,-0.117699996,1.034399986,-0.879399955,,,1.814199924,-0.759799957,9.607299805,,,232,1.696499929,0.274600029,8.727899849
1.683E+18,4.679058105,-0.209199995,0.783100009,-0.717899978,,,1.83709991,-0.763399959,9.602700233,,,233,1.627899915,0.01970005,8.884800255
1.683E+18,4.699058105,-0.107499994,0.238299996,-0.070900001,,,1.89230001,-0.748199999,9.593099594,,,234,1.784800015,-0.509900004,9.522199593
1.683E+18,4.719058105,0.72420001,-0.224199995,2.144000053,,,1.943099976,-0.726899981,9.584599495,,,235,2.667299986,-0.951099977,11.72859955
1.683E+18,4.739058105,1.583699942,-0.125499994,4.803599834,,,1.956399918,-0.717700005,9.58259964,,,236,3.540099859,-0.843199998,14.38619947
1.683E+18,4.759056396,1.29279995,-0.119499996,5.920599937,,,1.953099966,-0.71389997,9.583600044,,,237,3.245899916,-0.833399966,15.50419998
1.683E+18,4.779058105,0.341099977,-0.273999989,4.356400013,,,1.992799997,-0.667299986,9.578800201,,,238,2.333899975,-0.941299975,13.93520021
1.683E+18,4.799058105,0.207999989,-1.201599956,2.995199919,,,2.076900005,-0.573300004,9.566999435,,,239,2.284899995,-1.77489996,12.56219935
1.683E+18,4.819058105,1.754799962,-2.61590004,4.250099659,,,2.187399864,-0.473099977,9.547800064,,,240,3.942199826,-3.089000016,13.79789972
1.683E+18,4.839056396,2.748100042,-1.773899913,5.452499866,,,2.223799944,-0.422699988,9.541799545,,,241,4.971899986,-2.196599901,14.99429941
1.683E+18,4.859058105,2.110199928,-1.555199981,5.170399666,,,2.184999943,-0.4551,9.549200058,,,242,4.295199871,-2.010299981,14.71959972
1.683E+18,4.879058105,0.176499993,-1.013299942,2.091199875,,,2.186800003,-0.447799981,9.549200058,,,243,2.363299996,-1.461099923,11.64039993
1.683E+18,4.899058105,-1.227299929,-0.751299977,-0.560699999,,,2.227599859,-0.35679999,9.543600082,,,244,1.000299931,-1.108099967,8.982900083
1.683E+18,4.919058105,-0.748399973,-1.159099936,-0.81099999,,,2.297899961,-0.292199999,9.529099464,,,245,1.549499989,-1.451299936,8.718099475
1.683E+18,4.939058105,-0.149299994,-0.978999972,-0.131699994,,,2.345999956,-0.315400004,9.516599655,,,246,2.196699962,-1.294399977,9.384899661
1.683E+18,4.959058105,0.047799997,-0.488999993,-0.112599999,,,2.335099936,-0.373899996,9.517199516,,,247,2.382899933,-0.862899989,9.404599518
1.683E+18,4.979058105,-0.178800002,0.097499996,-0.671899974,,,2.287199974,-0.411300004,9.527299881,,,248,2.108399972,-0.313800007,8.855399907
1.683E+18,4.999056396,-0.231199995,0.056199998,-1.309599996,,,2.241499901,-0.428900003,9.53730011,,,249,2.010299906,-0.372700006,8.227700114
1.683E+18,5.019058105,-0.190399989,-0.193499997,-1.542099953,,,2.210599899,-0.433999985,9.544300079,,,250,2.02019991,-0.627499983,8.002200127
1.683E+18,5.039056396,-0.249599993,-0.453099996,-1.381799936,,,2.181499958,-0.439199984,9.55079937,,,251,1.931899965,-0.89229998,8.168999434
1.683E+18,5.059058105,-0.257299989,-0.297899991,-1.273100019,,,2.1401999,-0.447299987,9.559700012,,,252,1.88289991,-0.745199978,8.286599994
1.683E+18,5.079058105,-1E-04,-0.102699995,-1.154399991,,,2.098799944,-0.456199974,9.568499565,,,253,2.098699944,-0.558899969,8.414099574
1.683E+18,5.099058105,0.272799999,0.0232,-1.599699974,,,2.080699921,-0.454699993,9.572500229,,,254,2.353499919,-0.431499993,7.972800255
1.683E+18,5.119058105,0.419799984,-0.074299999,-1.992399931,,,2.080800056,-0.445299983,9.572899818,,,255,2.50060004,-0.519599982,7.580499887
1.683E+18,5.139056396,0.662400007,-0.14379999,-1.864799976,,,2.083400011,-0.434699982,9.572899818,,,256,2.745800018,-0.578499973,7.708099842
1.683E+18,5.159058105,0.74180001,-0.034399997,-1.786999941,,,2.082399845,-0.426499993,9.573399544,,,257,2.824199855,-0.46089999,7.786399603
1.683E+18,5.179058105,0.8301,0.110299997,-1.708599925,,,2.082299948,-0.424099982,9.573599815,,,258,2.912399948,-0.313799985,7.86499989
1.683E+18,5.199058105,0.917899966,0.352099985,-1.806299925,,,2.082799911,-0.430599988,9.573200226,,,259,3.000699878,-0.078500003,7.766900301
1.683E+18,5.219058105,0.643299997,0.571200013,-1.921199918,,,2.092599869,-0.443699986,9.570399284,,,260,2.735899866,0.127500027,7.649199367
1.683E+18,5.239058105,0.095199995,0.737800002,-2.201099873,,,2.111199856,-0.453399986,9.565899849,,,261,2.206399851,0.284400016,7.364799976
1.683E+18,5.25905957,-0.2245,0.946799994,-2.870199919,,,2.146600008,-0.44659999,9.558300018,,,262,1.922100008,0.500200003,6.6881001
1.683E+18,5.279058105,-0.601599991,0.878999949,-3.027400017,,,2.190299988,-0.437700003,9.548799515,,,263,1.588699996,0.441299945,6.521399498
1.683E+18,5.29905957,-0.786399961,0.482799977,-2.05340004,,,2.208299875,-0.414199978,9.545700073,,,264,1.421899915,0.068599999,7.492300034
1.683E+18,5.319058105,-0.425300002,0.033,0.064300001,,,2.210099936,-0.395899981,9.546099663,,,265,1.784799933,-0.362899981,9.610399663
1.683E+18,5.339056396,0.741999984,-0.148900002,2.707299948,,,2.190099955,-0.390399992,9.550899506,,,266,2.932099938,-0.539299995,12.25819945
1.683E+18,5.359061035,2.321499825,-0.358199984,4.481100082,,,2.14049983,-0.396799982,9.561900139,,,267,4.461999655,-0.754999965,14.04300022
1.683E+18,5.379058105,2.895900011,-0.635899961,4.499700069,,,2.134799957,-0.403499991,9.56289959,,,268,5.030699968,-1.039399952,14.06259966
1.683E+18,5.399058105,2.404799938,-1.069000006,3.93599987,,,2.204200029,-0.382299989,9.547999382,,,269,4.608999968,-1.451299995,13.48399925
1.683E+18,5.419058105,1.442799926,-2.021699905,3.873999834,,,2.283599854,-0.321999997,9.531599998,,,270,3.726399779,-2.343699902,13.40559983
1.683E+18,5.439058105,0.543099999,-2.483999968,4.095999718,,,2.320299864,-0.2324,9.525300026,,,271,2.863399863,-2.716399968,13.62129974
1.683E+18,5.459058105,-0.0048,-2.121700048,3.444599867,,,2.309399843,-0.153399989,9.529500008,,,272,2.304599843,-2.275100037,12.97409987
1.683E+18,5.479058105,-0.699400008,-1.439599991,1.996899962,,,2.327299833,-0.109699994,9.525799751,,,273,1.627899826,-1.549299985,11.52269971
1.683E+18,5.499058105,-1.403800011,-0.933499992,0.757999957,,,2.394299984,-0.086300001,9.509399414,,,274,0.990499973,-1.019799992,10.26739937
1.683E+18,5.519058105,-1.33949995,-0.819099963,0.931099951,,,2.457499981,-0.082999997,9.493299484,,,275,1.118000031,-0.90209996,10.42439944
1.683E+18,5.539056396,-1.12379992,-0.648799956,1.375,,,2.467299938,-0.0964,9.490699768,,,276,1.343500018,-0.745199956,10.86569977
1.683E+18,5.559058105,-0.703599989,-0.223799989,1.328799963,,,2.439399958,-0.1193,9.497599602,,,277,1.735799968,-0.343099989,10.82639956
1.683E+18,5.579058105,-0.506500006,0.129999995,0.7773,,,2.428599834,-0.149599999,9.499899864,,,278,1.922099829,-0.019600004,10.27719986
1.683E+18,5.599058105,-0.829699993,0.178499997,-0.129299998,,,2.447799921,-0.168699995,9.494699478,,,279,1.618099928,0.009800002,9.36539948
1.683E+18,5.619058105,-1.180299997,0.121199995,-1.034199953,,,2.474699974,-0.179999992,9.487500191,,,280,1.294399977,-0.058799997,8.453300238
1.683E+18,5.639056396,-1.458899975,-0.042099997,-1.228999972,,,2.47879982,-0.193199992,9.486199379,,,281,1.019899845,-0.23529999,8.257199407
1.683E+18,5.659058105,-1.306800008,0.149700001,-0.815699995,,,2.444399834,-0.218400002,9.49450016,,,282,1.137599826,-0.068700001,8.678800166
1.683E+18,5.679056396,-1.066599965,0.345999986,-0.757499993,,,2.400300026,-0.247899994,9.505099297,,,283,1.333700061,0.098099992,8.747599304
1.683E+18,5.699058105,-0.900399983,0.494499981,-1.018899918,,,2.371399879,-0.278799981,9.511499405,,,284,1.470999897,0.215700001,8.492599487
1.683E+18,5.719058105,-0.895599961,0.370399982,-1.470499992,,,2.366600037,-0.301799983,9.512000084,,,285,1.471000075,0.068599999,8.041500092
1.683E+18,5.739058105,-0.813699961,0.210999995,-1.556599975,,,2.372999907,-0.318800002,9.509799957,,,286,1.559299946,-0.107800007,7.953199983
1.683E+18,5.759056396,-0.574899971,0.291199982,-1.488099933,,,2.369600058,-0.340199977,9.509900093,,,287,1.794700086,-0.048999995,8.02180016
1.683E+18,5.779058105,-0.368900001,0.5352,-1.518899918,,,2.359699965,-0.368499994,9.511300087,,,288,1.990799963,0.166700006,7.992400169
1.683E+18,5.799058105,-0.671799958,0.732199967,-1.736099958,,,2.348799944,-0.398799986,9.512800217,,,289,1.676999986,0.333399981,7.776700258
1.683E+18,5.819058105,-0.932199955,0.896099985,-2.174900055,,,2.354199886,-0.425399989,9.510299683,,,290,1.421999931,0.470699996,7.335399628
1.683E+18,5.839056396,-1.076399922,0.922099948,-2.355900049,,,2.370899916,-0.451399982,9.505000114,,,291,1.294499993,0.470699966,7.149100065
1.683E+18,5.859058105,-1.273699999,0.895099998,-2.567800045,,,2.381899834,-0.473399997,9.501099586,,,292,1.108199835,0.421700001,6.933299541
1.683E+18,5.879058105,-1.174600005,0.896399975,-2.446899891,,,2.390699863,-0.494299978,9.497900009,,,293,1.216099858,0.402099997,7.051000118
1.683E+18,5.899056396,-0.843299985,0.940199971,-1.878799915,,,2.3829,-0.51849997,9.49849987,,,294,1.539600015,0.421700001,7.619699955
1.683E+18,5.919058105,-0.329299986,1.143199921,-1.468899965,,,2.369099855,-0.5449,9.500499725,,,295,2.039799869,0.598299921,8.03159976
1.683E+18,5.939058105,-0.0052,1.214699984,-1.30339992,,,2.358799934,-0.567499995,9.501699448,,,296,2.353599934,0.647199988,8.198299527
1.683E+18,5.959058105,0.322799981,1.010299921,-0.997399986,,,2.364199877,-0.578799963,9.499699593,,,297,2.686999857,0.431499958,8.502299607
1.683E+18,5.979058105,0.564999998,0.72420001,0.51639998,,,2.376899958,-0.586899996,9.495999336,,,298,2.941899955,0.137300014,10.01239932
1.683E+18,5.999056396,1.09860003,0.555899978,2.621899843,,,2.362999916,-0.595099986,9.498999596,,,299,3.461599946,-0.039200008,12.12089944
1.683E+18,6.019058105,1.486799955,0.413399994,4.202199936,,,2.327899933,-0.599699974,9.507399559,,,300,3.814699888,-0.18629998,13.70959949
1.683E+18,6.039056396,1.33829999,0.31099999,4.427499771,,,2.289999962,-0.585599959,9.517499924,,,301,3.628299952,-0.274599969,13.94499969
1.683E+18,6.059058105,1.149099946,0.0096,3.624199867,,,2.302700043,-0.548999965,9.516599655,,,302,3.451799989,-0.539399966,13.14079952
1.683E+18,6.079058105,1.456599951,-0.877299964,3.546599865,,,2.35800004,-0.495499998,9.505999565,,,303,3.814599991,-1.372799963,13.05259943
1.683E+18,6.099058105,1.995299935,-1.676199913,4.720499992,,,2.398000002,-0.432099998,9.499099731,,,304,4.393299937,-2.108299911,14.21959972
1.683E+18,6.119058105,1.91960001,-1.640900016,4.80369997,,,2.385400057,-0.388999999,9.504099846,,,305,4.305000067,-2.029900014,14.30779982
1.683E+18,6.139056396,0.755599976,-1.393100023,2.720099926,,,2.37259984,-0.352400005,9.508699417,,,306,3.128199816,-1.745500028,12.22879934
1.683E+18,6.159058105,0.160300002,-1.600899935,1.251799941,,,2.38929987,-0.31129998,9.505999565,,,307,2.549599871,-1.912199914,10.75779951
1.683E+18,6.179058105,0.50150001,-1.583099961,0.629000008,,,2.411000013,-0.289900005,9.501199722,,,308,2.912500024,-1.872999966,10.13019973
1.683E+18,6.199058105,0.656799972,-1.271499991,0.007,,,2.432199955,-0.297499985,9.495499611,,,309,3.088999927,-1.568999976,9.502499611
1.683E+18,6.219058105,0.511299968,-1.022899985,-0.303799987,,,2.440399885,-0.320600003,9.492699623,,,310,2.951699853,-1.343499988,9.188899636
1.683E+18,6.239056396,0.333199978,-0.762999952,-0.392999977,,,2.432199955,-0.354799986,9.493599892,,,311,2.765399933,-1.117799938,9.100599915
1.683E+18,6.259056396,0.118699998,-0.486499995,-0.597599983,,,2.430899858,-0.395999998,9.492300034,,,312,2.549599856,-0.882499993,8.89470005
1.683E+18,6.279058105,-0.235399991,-0.206900001,-0.673799992,,,2.432100058,-0.440200001,9.489999771,,,313,2.196700066,-0.647100002,8.81619978
1.683E+18,6.299058105,-0.823300004,-0.2236,-0.907799959,,,2.431599855,-0.472599983,9.488599777,,,314,1.608299851,-0.696199983,8.580799818
1.683E+18,6.319058105,-0.916099966,-0.394600004,-1.290799975,,,2.426300049,-0.487899989,9.489199638,,,315,1.510200083,-0.882499993,8.198399663
1.683E+18,6.339056396,-0.338099986,-0.401199996,-1.495899916,,,2.42689991,-0.500899971,9.48829937,,,316,2.088799924,-0.902099967,7.992399454
1.683E+18,6.359058105,0.113899998,-0.212599993,-1.318499923,,,2.425899982,-0.522799969,9.487400055,,,317,2.539799981,-0.735399961,8.168900132
1.683E+18,6.379058105,0.036699999,-0.007999999,-1.320299983,,,2.414899826,-0.541099966,9.489199638,,,318,2.451599825,-0.549099965,8.168899655
1.683E+18,6.399058105,-0.135299996,0.038399998,-1.656899929,,,2.400599957,-0.548299968,9.492400169,,,319,2.265299961,-0.50989997,7.83550024
1.683E+18,6.419058105,0.0021,0.0139,-1.727800012,,,2.390699863,-0.553299963,9.494599342,,,320,2.392799863,-0.539399964,7.766799331
1.683E+18,6.439058105,0.46449998,0.163800001,-1.416000009,,,2.379299879,-0.565800011,9.496699333,,,321,2.843799859,-0.40200001,8.080699325
1.683E+18,6.459058105,0.485100001,0.48269999,-1.400699973,,,2.358700037,-0.580799997,9.500999451,,,322,2.843800038,-0.098100007,8.100299478
1.683E+18,6.479058105,0.175699994,0.619099975,-1.690499902,,,2.334699869,-0.589699984,9.506400108,,,323,2.510399863,0.029399991,7.815900207
1.683E+18,6.499058105,-0.2051,0.7676,-2.097599983,,,2.313499928,-0.591099977,9.511400223,,,324,2.108399928,0.176500022,7.41380024
1.683E+18,6.519058105,-0.463999987,0.842799962,-2.667999983,,,2.307600021,-0.587899983,9.51309967,,,325,1.843600035,0.254899979,6.845099688
1.683E+18,6.539056396,-0.639800012,0.846499979,-3.136899948,,,2.316699982,-0.581699967,9.511199951,,,326,1.67689997,0.264800012,6.374300003
1.683E+18,6.559058105,-0.704099953,0.851499975,-3.027999878,,,2.32220006,-0.576900005,9.510199547,,,327,1.618100107,0.274599969,6.482199669
1.683E+18,6.579058105,-0.582199991,0.791000009,-2.364699841,,,2.308199883,-0.575199962,9.513699532,,,328,1.725999892,0.215800047,7.148999691
1.683E+18,6.599058105,0.180999994,0.610499978,-0.665300012,,,2.280299902,-0.571200013,9.520699501,,,329,2.461299896,0.039299965,8.855399489
1.683E+18,6.619058105,1.292699933,0.207199991,2.246799946,,,2.237499952,-0.569999993,9.530900002,,,330,3.530199885,-0.362800002,11.77769995
1.683E+18,6.639056396,2.424700022,-0.138300002,5.046599865,,,2.174499989,-0.567699969,9.545599937,,,331,4.59920001,-0.70599997,14.5921998
1.683E+18,6.659058105,2.909099817,-0.190699995,5.853399754,,,2.101999998,-0.554499984,9.562600136,,,332,5.011099815,-0.745199978,15.41599989
1.683E+18,6.679058105,2.199599981,-0.241999999,3.684499979,,,2.105399847,-0.513000011,9.564199448,,,333,4.304999828,-0.75500001,13.24869943
1.683E+18,6.699058105,0.859600008,-0.771299958,1.720799923,,,2.239199877,-0.444700003,9.537099838,,,334,3.098799884,-1.215999961,11.25789976
1.683E+18,6.719058105,-0.044,-2.123699903,2.349799871,,,2.41719985,-0.376899987,9.496500015,,,335,2.37319985,-2.500599891,11.84629989
1.683E+18,6.739058105,-0.331,-2.400699854,4.621900082,,,2.48849988,-0.325399995,9.479999542,,,336,2.15749988,-2.726099849,14.10189962
1.683E+18,6.759056396,-0.569299996,-1.441499949,4.803100109,,,2.432499886,-0.313799977,9.49489975,,,337,1.86319989,-1.755299926,14.29799986
1.683E+18,6.779058105,-1.403100014,-0.822600007,2.791999817,,,2.393599987,-0.295300007,9.505399704,,,338,0.990499973,-1.117900014,12.29739952
1.683E+18,6.799058105,-1.319999933,-0.901299953,0.67689997,,,2.447700024,-0.265599996,9.492499352,,,339,1.12770009,-1.166899949,10.16939932
1.683E+18,6.819058105,-1.227699995,-0.936399996,-0.413699985,,,2.551599979,-0.259900004,9.465199471,,,340,1.323899984,-1.1963,9.051499486
1.683E+18,6.839056396,-1.474799991,-0.871899962,-0.475099981,,,2.612399817,-0.275399983,9.448200226,,,341,1.137599826,-1.147299945,8.973100245
1.683E+18,6.859058105,-1.286299944,-0.410400003,0.301899999,,,2.580799818,-0.315200001,9.455599785,,,342,1.294499874,-0.725600004,9.757499784
1.683E+18,6.879058105,-0.732299984,0.332399994,0.604799986,,,2.497499943,-0.361799985,9.476299286,,,343,1.765199959,-0.029399991,10.08109927
1.683E+18,6.899058105,-0.170900002,0.817099988,0.323799998,,,2.426499844,-0.414999992,9.492599487,,,344,2.255599841,0.402099997,9.816399485
1.683E+18,6.919058105,0.034699999,0.919699967,-0.539499998,,,2.41689992,-0.458799988,9.493000031,,,345,2.451599918,0.460899979,8.953500032
1.683E+18,6.939058105,-0.170900002,0.773000002,-1.10439992,,,2.426399946,-0.488599986,9.489099503,,,346,2.255499944,0.284400016,8.384699583
1.683E+18,6.959058105,-0.691699982,0.676800013,-1.311499953,,,2.417700052,-0.510100007,9.490200043,,,347,1.726000071,0.166700006,8.178700089
1.683E+18,6.979058105,-1.145299911,0.662799954,-1.180099964,,,2.390799999,-0.5255,9.496199608,,,348,1.245500088,0.137299955,8.316099644
1.683E+18,6.999058105,-1.148800015,0.652899981,-1.01880002,,,2.364799976,-0.544999957,9.501599312,,,349,1.215999961,0.107900023,8.482799292
1.683E+18,7.019058105,-0.78490001,0.70480001,-1.110899925,,,2.344099998,-0.567499995,9.505399704,,,350,1.559199989,0.137300014,8.394499779
1.683E+18,7.039056396,-0.511299968,0.739099979,-1.33949995,,,2.325599909,-0.592000008,9.508399963,,,351,1.814299941,0.147099972,8.168900013
1.683E+18,7.059058105,-0.539799988,0.75150001,-1.441200018,,,2.304999828,-0.614199996,9.512000084,,,352,1.76519984,0.137300014,8.070800066
1.683E+18,7.079058105,-0.691100001,0.932699978,-1.445599914,,,2.279799938,-0.638499975,9.516499519,,,353,1.588699937,0.294200003,8.070899606
1.683E+18,7.099058105,-0.742199957,1.118600011,-1.234399915,,,2.252500057,-0.667499959,9.520999908,,,354,1.5103001,0.451100051,8.286599994
1.683E+18,7.119058105,-0.978699982,1.223099947,-1.303300023,,,2.243700027,-0.693599999,9.52120018,,,355,1.265000045,0.529499948,8.217900157
1.683E+18,7.139056396,-1.317299962,1.268199921,-1.663699985,,,2.248899937,-0.709199965,9.518899918,,,356,0.931599975,0.558999956,7.855199933
1.683E+18,7.159058105,-1.53489995,1.165599942,-2.042999983,,,2.260599852,-0.71450001,9.515699387,,,357,0.725699902,0.451099932,7.472699404
1.683E+18,7.179058105,-1.672999978,1.045599937,-2.28579998,,,2.271199942,-0.712099969,9.513299942,,,358,0.598199964,0.333499968,7.227499962
1.683E+18,7.199058105,-1.354300022,0.992199957,-2.363399982,,,2.276200056,-0.707799971,9.512499809,,,359,0.921900034,0.284399986,7.149099827
1.683E+18,7.219058105,-0.963099957,1.110700011,-1.727999926,,,2.267400026,-0.708599985,9.514499664,,,360,1.30430007,0.402100027,7.786499739
1.683E+18,7.239058105,-0.514999986,0.965699971,-1.055199981,,,2.250799894,-0.710699975,9.518300056,,,361,1.735799909,0.254999995,8.463100076
1.683E+18,7.259056396,0.162599996,0.489499986,0.431699991,,,2.24000001,-0.6954,9.521999359,,,362,2.402600005,-0.205900013,9.95369935
1.683E+18,7.279058105,0.948499978,0.012,2.720299959,,,2.218899965,-0.678900003,9.528100014,,,363,3.167399943,-0.666900003,12.24839997
1.683E+18,7.299058105,1.777499914,-0.291500002,4.304800034,,,2.20389986,-0.669499993,9.53219986,,,364,3.981399775,-0.960999995,13.83699989
1.683E+18,7.319058105,2.066299915,-0.582599998,4.90019989,,,2.199499846,-0.643099964,9.535099983,,,365,4.265799761,-1.225699961,14.43529987
1.683E+18,7.339056396,1.995299935,-0.913499951,4.525099754,,,2.20179987,-0.596700013,9.537599564,,,366,4.197099805,-1.510199964,14.06269932
1.683E+18,7.359058105,1.502900004,-1.15839994,3.256299973,,,2.243099928,-0.538100004,9.531399727,,,367,3.745999932,-1.696499944,12.7876997
1.683E+18,7.379058105,0.794499993,-1.410599947,1.85769999,,,2.314100027,-0.472199976,9.517899513,,,368,3.10860002,-1.882799923,11.3755995
1.683E+18,7.399058105,-0.144699991,-1.558899999,0.537599981,,,2.380599976,-0.412200004,9.504300117,,,369,2.235899985,-1.971100003,10.0419001
1.683E+18,7.419058105,0.092900001,-1.923299909,1.5898,,,2.437099934,-0.371399999,9.491700172,,,370,2.529999934,-2.294699907,11.08150017
1.683E+18,7.439058105,0.561699986,-1.531599998,3.987799883,,,2.419399977,-0.370799989,9.496199608,,,371,2.981099963,-1.902399987,13.48399949
1.683E+18,7.459058105,0.606400013,-0.820899963,3.737699986,,,2.355200052,-0.404899985,9.51099968,,,372,2.961600065,-1.225799948,13.24869967
1.683E+18,7.479058105,0.048999999,-0.421599984,1.507099986,,,2.333899975,-0.421700001,9.515500069,,,373,2.382899974,-0.843299985,11.02260005
1.683E+18,7.499058105,-0.177499995,-0.520099998,-0.0077,,,2.354599953,-0.421299994,9.510399818,,,374,2.177099958,-0.941399992,9.502699818
1.683E+18,7.519058105,-0.0513,-0.498999983,-0.460500002,,,2.385200024,-0.432499975,9.502200127,,,375,2.333900023,-0.931499958,9.041700125
1.683E+18,7.539056396,-0.360699981,-0.420599997,-0.406699985,,,2.400399923,-0.452099979,9.497499466,,,376,2.039699942,-0.872699976,9.090799481
1.683E+18,7.559058105,-0.679899991,-0.302599996,-0.576099992,,,2.386199951,-0.472000003,9.500100136,,,377,1.706299961,-0.774599999,8.924000144
1.683E+18,7.579058105,-0.627900004,-0.163299993,-0.943499982,,,2.363699913,-0.493599981,9.504699707,,,378,1.735799909,-0.656899974,8.561199725
1.683E+18,7.599058105,-0.448599994,-0.099100001,-1.376699924,,,2.351099968,-0.518599987,9.50649929,,,379,1.902499974,-0.617699988,8.129799366
1.683E+18,7.619058105,-0.354299992,-0.251499981,-1.658800006,,,2.354899883,-0.542699993,9.504199982,,,380,2.000599891,-0.794199973,7.845399976
1.683E+18,7.639056396,-0.56309998,-0.253800005,-1.806699991,,,2.34800005,-0.560000002,9.504899979,,,381,1.784900069,-0.813800007,7.698199987
1.683E+18,7.659058105,-0.662299991,-0.229999989,-1.587199926,,,2.319599867,-0.574000001,9.51099968,,,382,1.657299876,-0.80399999,7.923799753
1.683E+18,7.679058105,-0.630699992,-0.057999998,-1.262899995,,,2.278199911,-0.589100003,9.52009964,,,383,1.647499919,-0.647100002,8.257199645
1.683E+18,7.699056396,-0.453099996,0.043499999,-1.046000004,,,2.237900019,-0.602400005,9.528800011,,,384,1.784800023,-0.558900006,8.482800007
1.683E+18,7.719058105,-0.469699979,0.137099996,-1.188300014,,,2.215299845,-0.607800007,9.533699989,,,385,1.745599866,-0.470700011,8.345399976
1.683E+18,7.739058105,-0.368699998,0.1426,-1.211099982,,,2.202600002,-0.603500009,9.536999702,,,386,1.833900005,-0.460900009,8.32589972
1.683E+18,7.759056396,-0.046099998,0.2183,-1.291800022,,,2.193799973,-0.600799978,9.539199829,,,387,2.147699974,-0.382499978,8.247399807
1.683E+18,7.779056396,0.26699999,0.405499995,-1.158800006,,,2.174700022,-0.601700008,9.543499947,,,388,2.441700011,-0.196200013,8.384699941
1.683E+18,7.799058105,0.568799973,0.674899995,-1.125399947,,,2.147599936,-0.60619998,9.549300194,,,389,2.716399908,0.068700016,8.423900247
1.683E+18,7.819058105,0.612500012,0.78429997,-1.228799939,,,2.123399973,-0.607800007,9.554599762,,,390,2.735899985,0.176499963,8.325799823
1.683E+18,7.839056396,0.635699987,0.729399979,-1.349799991,,,2.110100031,-0.601899981,9.557999611,,,391,2.745800018,0.127499998,8.20819962
1.683E+18,7.859058105,0.591300011,0.591099977,-1.417999983,,,2.115200043,-0.591099977,9.557499886,,,392,2.706500053,0,8.139499903
1.683E+18,7.879058105,0.195500001,0.580500007,-1.464699984,,,2.128599882,-0.580500007,9.555199623,,,393,2.324099883,0,8.09049964
1.683E+18,7.899058105,-0.235799998,0.440099984,-1.09829998,,,2.148099899,-0.567600012,9.551599503,,,394,1.912299901,-0.127500027,8.453299522
1.683E+18,7.91905957,-0.176200002,-0.098999999,0.6602,,,2.167000055,-0.548200011,9.548399925,,,395,1.990800053,-0.647200011,10.20859993
1.683E+18,7.939058105,0.269699991,-0.644299984,3.048799992,,,2.152400017,-0.532400012,9.552599907,,,396,2.422100008,-1.176699996,12.6013999
1.683E+18,7.959058105,0.58039999,-0.872299969,4.511099815,,,2.116400003,-0.520200014,9.56139946,,,397,2.696799994,-1.392499983,14.07249928
1.683E+18,7.979058105,0.595099986,-1.130399942,4.543699741,,,2.091799974,-0.497399986,9.56799984,,,398,2.68689996,-1.627799928,14.11169958
1.683E+18,7.999058105,0.406599998,-1.319999933,3.730700016,,,2.103800058,-0.464699984,9.566999435,,,399,2.510400057,-1.784699917,13.29769945
1.683E+18,8.019058105,0.0594,-1.602299929,3.101599932,,,2.146999836,-0.437399983,9.558699608,,,400,2.206399836,-2.039699912,12.66029954
1.683E+18,8.039056396,-0.315400004,-1.812099934,2.962899923,,,2.18840003,-0.413899988,9.550299644,,,401,1.873000026,-2.225999922,12.51319957
1.683E+18,8.059058105,-0.726099968,-1.711699963,2.816999912,,,2.197099924,-0.396599978,9.549099922,,,402,1.470999956,-2.108299941,12.36609983
1.683E+18,8.079058105,-1.253700018,-1.472000003,1.884699941,,,2.195199966,-0.391099989,9.549699783,,,403,0.941499949,-1.863099992,11.43439972
1.683E+18,8.099058105,-1.531599998,-1.322999954,0.909399986,,,2.217999935,-0.393099993,9.544400215,,,404,0.686399937,-1.716099948,10.4538002
1.683E+18,8.119058105,-1.448499918,-1.250100017,0.692600012,,,2.252699852,-0.407099992,9.535699844,,,405,0.804199934,-1.657200009,10.22829986
1.683E+18,8.139056396,-1.217800021,-0.93629998,1.099399924,,,2.267099857,-0.436499983,9.530900002,,,406,1.049299836,-1.372799963,10.63029993
1.683E+18,8.159058105,-1.165400028,-0.571200013,1.615199924,,,2.244099855,-0.468199998,9.534899712,,,407,1.078699827,-1.039400011,11.15009964
1.683E+18,8.179058105,-1.076599956,-0.421599984,1.479499936,,,2.204400063,-0.4903,9.543000221,,,408,1.127800107,-0.911899984,11.02250016
1.683E+18,8.199058105,-0.878699958,-0.45539999,0.602099955,,,2.182999849,-0.495700002,9.547699928,,,409,1.304299891,-0.951099992,10.14979988
1.683E+18,8.219058105,-0.812099993,-0.528100014,-0.493599981,,,2.1947999,-0.491699994,9.545199394,,,410,1.382699907,-1.019800007,9.051599413
1.683E+18,8.239058105,-0.931099951,-0.421199977,-1.290699959,,,2.225600004,-0.490699977,9.538099289,,,411,1.294500053,-0.911899954,8.24739933
1.683E+18,8.259056396,-1.133299947,-0.285899997,-1.803999901,,,2.251299858,-0.49849999,9.531700134,,,412,1.117999911,-0.784399986,7.727700233
1.683E+18,8.279058105,-1.393999934,-0.054399997,-1.958699942,,,2.256999969,-0.514299989,9.529500008,,,413,0.863000035,-0.568699986,7.570800066
1.683E+18,8.299058105,-1.428499937,0.044599999,-1.725699902,,,2.242399931,-0.53490001,9.531799316,,,414,0.813899994,-0.490300011,7.806099415
1.683E+18,8.319058105,-0.993599951,0.1131,-0.937299967,,,2.209699869,-0.564199984,9.537699699,,,415,1.216099918,-0.451099984,8.600399733
1.683E+18,8.339058105,-0.32009998,0.419699997,-0.276199996,,,2.173599958,-0.606000006,9.543499947,,,416,1.853499979,-0.186300009,9.26729995
1.683E+18,8.359058105,0.101199999,0.811800003,-0.22829999,,,2.154199839,-0.654899955,9.544599533,,,417,2.255399838,0.156900048,9.316299543
1.683E+18,8.379058105,0.359400004,1.141299963,-0.544999957,,,2.170599937,-0.699999988,9.537699699,,,418,2.529999942,0.441299975,8.992699742
1.683E+18,8.399058105,0.142700002,1.370100021,-0.289700001,,,2.200999975,-0.742500007,9.527500153,,,419,2.343699977,0.627600014,9.237800151
1.683E+18,8.419056396,-0.398199975,1.549600005,0.346199989,,,2.222199917,-0.78459996,9.519199371,,,420,1.823999941,0.765000045,9.865399361
1.683E+18,8.439061035,-1.004400015,1.575099945,0.939399958,,,2.23029995,-0.819999993,9.514299393,,,421,1.225899935,0.755099952,10.45369935
1.683E+18,8.459061035,-1.32919991,1.485700011,1.128499985,,,2.231400013,-0.84829998,9.511599541,,,422,0.902200103,0.637400031,10.64009953
1.683E+18,8.47905957,-1.074599981,1.512699962,1.297799945,,,2.231799841,-0.87529999,9.50909996,,,423,1.15719986,0.637399971,10.80689991
1.683E+18,8.499058105,-0.633700013,1.532199979,1.565400004,,,2.232199907,-0.904599965,9.506199837,,,424,1.598499894,0.627600014,11.07159984
1.683E+18,8.519058105,-0.233999997,1.464900017,1.832699895,,,2.234599829,-0.925599992,9.503600121,,,425,2.000599831,0.539300025,11.33630002
1.683E+18,8.539058105,-0.115399994,1.154099941,1.776299953,,,2.243399858,-0.928499997,9.501299858,,,426,2.127999865,0.225599945,11.27759981
1.683E+18,8.559058105,-0.122499995,0.725399971,1.592299938,,,2.260400057,-0.911699951,9.49889946,,,427,2.137900062,-0.18629998,11.0911994
1.683E+18,8.579058105,-0.279799998,0.247799993,1.396099925,,,2.270499945,-0.885199964,9.498999596,,,428,1.990699947,-0.637399971,10.89509952
1.683E+18,8.599058105,-0.113499999,-0.151600003,1.437699914,,,2.290499926,-0.858399987,9.496600151,,,429,2.176999927,-1.00999999,10.93430007
1.683E+18,8.619058105,-0.015799999,-0.214999989,1.985699892,,,2.290899992,-0.843999982,9.497799873,,,430,2.275099993,-1.058999971,11.48349977
1.683E+18,8.639056396,-0.100199997,-0.15079999,1.582299948,,,2.286999941,-0.839599967,9.499099731,,,431,2.186799943,-0.990399957,11.08139968
1.683E+18,8.659058105,-0.631900012,-0.361699998,0.308200002,,,2.299099922,-0.814999998,9.498399734,,,432,1.66719991,-1.176699996,9.806599736
1.683E+18,8.679058105,-0.787499964,-0.939099967,-0.502799988,,,2.327100039,-0.767199993,9.495499611,,,433,1.539600074,-1.706299961,8.992699623
1.683E+18,8.699058105,-0.616699994,-1.385499954,-0.373299986,,,2.352499962,-0.713,9.493499756,,,434,1.735799968,-2.098499954,9.12019977
1.683E+18,8.719058105,-0.828499973,-1.718099952,0.0266,,,2.358399868,-0.664799988,9.495499611,,,435,1.529899895,-2.38289994,9.52209961
1.683E+18,8.739058105,-1.004999995,-1.835500002,0.118999995,,,2.348599911,-0.616100013,9.501299858,,,436,1.343599916,-2.451600015,9.620299853
1.683E+18,8.759056396,-0.761699975,-1.862499952,0.226999998,,,2.320999861,-0.569499969,9.510899544,,,437,1.559299886,-2.431999922,9.737899542
1.683E+18,8.779058105,-0.283199996,-1.7421,0.17899999,,,2.293599844,-0.532899976,9.51970005,,,438,2.010399848,-2.274999976,9.698700041
1.683E+18,8.799058105,0.298799992,-1.463400006,0.135199994,,,2.280299902,-0.507600009,9.524299622,,,439,2.579099894,-1.971000016,9.659499615
1.683E+18,8.819058105,0.525200009,-1.405399919,0.386500001,,,2.269599915,-0.487199992,9.527899742,,,440,2.794799924,-1.89259991,9.914399743
1.683E+18,8.839056396,-0.0275,-1.506799936,0.3125,,,2.253599882,-0.454400003,9.533299446,,,441,2.226099882,-1.961199939,9.845799446
1.683E+18,8.859058105,-0.555400014,-1.617900014,-0.25849998,,,2.251999855,-0.411899984,9.535599709,,,442,1.696599841,-2.029799998,9.277099729
1.683E+18,8.879058105,-0.701099992,-1.557199955,-0.885699987,,,2.260400057,-0.374599993,9.535200119,,,443,1.559300065,-1.931799948,8.649500132
1.683E+18,8.899058105,-0.599399984,-1.371899962,-1.147499919,,,2.276299953,-0.353899986,9.53219986,,,444,1.67689997,-1.725799948,8.384699941
1.683E+18,8.919058105,-0.4824,-1.250999928,-0.978499949,,,2.286799908,-0.34739998,9.529899597,,,445,1.804399908,-1.598399907,8.551399648
1.683E+18,8.939058105,-0.298999995,-1.164199948,-0.538899958,,,2.279999971,-0.345899999,9.531599998,,,446,1.980999976,-1.510099947,8.99270004
1.683E+18,8.959058105,-0.091199994,-1.183799982,-0.181199998,,,2.258499861,-0.345999986,9.536699295,,,447,2.167299867,-1.529799968,9.355499297
1.683E+18,8.979058105,0.215999991,-1.011999965,-0.088299997,,,2.235499859,-0.350999981,9.541899681,,,448,2.45149985,-1.362999946,9.453599684
1.683E+18,8.999058105,0.548200011,-0.848499954,-0.148499995,,,2.226999998,-0.367499977,9.543299675,,,449,2.775200009,-1.215999931,9.39479968
1.683E+18,9.019058105,0.578199983,-0.519899964,-0.390599996,,,2.236199856,-0.39199999,9.540200233,,,450,2.814399838,-0.911899954,9.149600238
1.683E+18,9.039056396,0.319299996,-0.217399999,-0.562699974,,,2.249899864,-0.4199,9.53579998,,,451,2.56919986,-0.6373,8.973100007
1.683E+18,9.059058105,0.181299999,0.0722,-0.460500002,,,2.260499954,-0.454599977,9.531700134,,,452,2.441799954,-0.382399976,9.071200132
1.683E+18,9.079058105,0.0024,0.355800003,-0.310900003,,,2.262899876,-0.493099988,9.5291996,,,453,2.265299876,-0.137299985,9.218299598
1.683E+18,9.099058105,0.060699999,0.566599965,-0.269199997,,,2.263399839,-0.537199974,9.52670002,,,454,2.324099839,0.029399991,9.257500023
1.683E+18,9.119058105,0.299400002,0.959699988,-0.0023,,,2.25999999,-0.587099969,9.524499893,,,455,2.559399992,0.372600019,9.522199893
1.683E+18,9.139056396,0.51819998,1.165899992,0.301699996,,,2.247200012,-0.636399984,9.524399757,,,456,2.765399992,0.529500008,9.826099753
1.683E+18,9.159058105,0.498899996,1.223999977,0.419699997,,,2.237099886,-0.674799979,9.52409935,,,457,2.735999882,0.549199998,9.943799347
1.683E+18,9.179056396,0.537699997,1.254699945,0.520099998,,,2.237499952,-0.705500007,9.521800041,,,458,2.77519995,0.549199939,10.04190004
1.683E+18,9.199058105,0.465399981,1.131099939,0.748299956,,,2.241099834,-0.728999972,9.519199371,,,459,2.706499815,0.402099967,10.26749933
1.683E+18,9.219058105,0.270700008,0.907299995,0.74879998,,,2.239699841,-0.74059999,9.51859951,,,460,2.510399848,0.166700006,10.26739949
1.683E+18,9.239058105,0.1963,0.605499983,0.394999981,,,2.235599995,-0.742799997,9.519399643,,,461,2.431899995,-0.137300014,9.914399624
1.683E+18,9.259056396,0.359699994,0.4208,-0.074699998,,,2.238999844,-0.744399965,9.518499374,,,462,2.598699838,-0.323599964,9.443799376
1.683E+18,9.279058105,0.538599968,0.243000001,-0.658399999,,,2.256199837,-0.752999961,9.513799667,,,463,2.794799805,-0.509999961,8.855399668
1.683E+18,9.299058105,0.782899976,0.143899992,-0.426399976,,,2.276599884,-0.771499991,9.507399559,,,464,3.05949986,-0.627599999,9.080999583
1.683E+18,9.319058105,1.109399915,0.232999995,0.357499987,,,2.263999939,-0.801799953,9.507899284,,,465,3.373399854,-0.568799958,9.865399271
1.683E+18,9.339056396,1.461399913,0.598800004,1.067999959,,,2.225800037,-0.843899965,9.513299942,,,466,3.68719995,-0.245099962,10.5812999
1.683E+18,9.359056396,1.345600009,0.834699988,2.22239995,,,2.194499969,-0.89349997,9.515999794,,,467,3.540099978,-0.058799982,11.73839974
1.683E+18,9.379056396,0.667899966,0.779899955,2.348899841,,,2.175899982,-0.926999986,9.51709938,,,468,2.843799949,-0.147100031,11.86599922
1.683E+18,9.399056396,0.0081,0.382099986,1.714699984,,,2.188499928,-0.931299984,9.513799667,,,469,2.196599928,-0.549199998,11.22849965
1.683E+18,9.419056396,-0.114799999,0.082099997,0.789599955,,,2.22329998,-0.915600002,9.507299423,,,470,2.108499981,-0.833500005,10.29689938
1.683E+18,9.439056396,-0.237599999,-0.272499979,0.025699999,,,2.277400017,-0.894400001,9.496500015,,,471,2.039800018,-1.166899979,9.522200014
1.683E+18,9.459056396,-0.526799977,-0.562099993,-0.569000006,,,2.340999842,-0.869599998,9.483300209,,,472,1.814199865,-1.431699991,8.914300203
1.683E+18,9.479056396,-0.870899975,-0.763999999,-0.490199983,,,2.391000032,-0.844199955,9.473099709,,,473,1.520100057,-1.608199954,8.982899725
1.683E+18,9.499056396,-1.04279995,-0.741699994,-0.034299999,,,2.415699959,-0.827299953,9.468299866,,,474,1.372900009,-1.568999946,9.433999866
1.683E+18,9.519056396,-0.807099998,-0.502900004,0.352400005,,,2.434999943,-0.820899963,9.463899612,,,475,1.627899945,-1.323799968,9.816299617
1.683E+18,9.539056396,-0.798699975,-0.406800002,0.54399997,,,2.455999851,-0.818899989,9.45870018,,,476,1.657299876,-1.225699991,10.00270015
1.683E+18,9.559056396,-0.787199974,-0.222899988,0.609899998,,,2.483700037,-0.816500008,9.451600075,,,477,1.696500063,-1.039399996,10.06150007
1.683E+18,9.579056396,-0.992899954,0.035799999,0.529699981,,,2.513000011,-0.820299983,9.443599701,,,478,1.520100057,-0.784499984,9.973299682
1.683E+18,9.599056396,-1.44509995,0.333700001,0.204699993,,,2.543400049,-0.824000001,9.435099602,,,479,1.098300099,-0.4903,9.639799595
1.683E+18,9.619056396,-1.885299921,0.381599993,-0.111199997,,,2.571799994,-0.822899997,9.427499771,,,480,0.686500072,-0.441300005,9.316299774
1.683E+18,9.639056396,-2.120100021,0.375399977,-0.371299982,,,2.590800047,-0.816699982,9.422800064,,,481,0.470700026,-0.441300005,9.051500082
1.683E+18,9.659056396,-1.80219996,0.427399993,-0.258899987,,,2.606400013,-0.819599986,9.418299675,,,482,0.804200053,-0.392199993,9.159399688
1.683E+18,9.679056396,-1.569499969,0.536000013,-0.146599993,,,2.618799925,-0.830199957,9.413899422,,,483,1.049299955,-0.294199944,9.267299429
1.683E+18,9.699056396,-1.621799946,0.505199969,-0.103,,,2.631899834,-0.83859998,9.409500122,,,484,1.010099888,-0.333400011,9.306500122
1.683E+18,9.719056396,-1.711599946,0.438799977,-0.158500001,,,2.643199921,-0.840900004,9.406099319,,,485,0.931599975,-0.402100027,9.247599319
1.683E+18,9.739056396,-1.581599951,0.381999999,-0.195500001,,,2.650499821,-0.842899978,9.403900146,,,486,1.06889987,-0.460899979,9.208400145
1.683E+18,9.759056396,-1.29279995,0.468400002,-0.202999994,,,2.655900002,-0.850799978,9.40170002,,,487,1.363100052,-0.382399976,9.198700026
1.683E+18,9.779056396,-1.116599917,0.650599957,0.249499992,,,2.656299829,-0.866299987,9.40019989,,,488,1.539699912,-0.21570003,9.649699882
1.683E+18,9.799056396,-0.959599972,0.783599973,0.483499974,,,2.646399975,-0.881599963,9.401499748,,,489,1.686800003,-0.09799999,9.884999722
1.683E+18,9.819056396,-0.760100007,0.849799991,0.451099992,,,2.63319993,-0.889099956,9.404500008,,,490,1.873099923,-0.039299965,9.855599999
1.683E+18,9.839056396,-0.716699958,0.801999986,0.293099999,,,2.628900051,-0.890199959,9.405599594,,,491,1.912200093,-0.088199973,9.698699594
1.683E+18,9.859056396,-0.728799999,0.772300005,0.12969999,,,2.64109993,-0.889999986,9.402199745,,,492,1.912299931,-0.117699981,9.531899735
1.683E+18,9.879056396,-0.610700011,0.88229996,0.289499998,,,2.650499821,-0.892099977,9.399399757,,,493,2.039799809,-0.009800017,9.688899755
1.683E+18,9.899056396,-0.565999985,0.917199969,0.553299963,,,2.644999981,-0.897599995,9.400400162,,,494,2.078999996,0.019599974,9.953700125
1.683E+18,9.919056396,-0.879700005,0.877799988,0.383699983,,,2.635099888,-0.897399962,9.40320015,,,495,1.755399883,-0.019599974,9.786900133
1.683E+18,9.939056396,-0.995099962,0.873600006,0.176799998,,,2.6329,-0.89319998,9.4041996,,,496,1.637800038,-0.019599974,9.580999598
1.683E+18,9.959056396,-0.699000001,0.775399983,0.401799977,,,2.631000042,-0.893099964,9.404799461,,,497,1.932000041,-0.117699981,9.806599438
1.683E+18,9.979056396,-0.34739998,0.549699962,0.693599999,,,2.622499943,-0.89289999,9.407099724,,,498,2.275099963,-0.343200028,10.10069972
1.683E+18,9.999056396,-0.118000001,0.136600003,0.790499985,,,2.618700027,-0.89169997,9.408299446,,,499,2.500700027,-0.755099967,10.19879943
1.683E+18,10.0190564,0.280099988,-0.393700004,1.242599964,,,2.62259984,-0.890899956,9.407299995,,,500,2.902699828,-1.28459996,10.64989996
1.683E+18,10.0390564,0.999799967,-0.515699983,1.850999951,,,2.618799925,-0.906199992,9.406899452,,,501,3.618599892,-1.421899974,11.2578994
1.683E+18,10.05905957,0.983299971,-0.30309999,2.000799894,,,2.615700006,-0.942200005,9.4041996,,,502,3.598999977,-1.245299995,11.40499949
1.683E+18,10.07905811,-0.085099995,0.061699998,1.01609993,,,2.625,-0.973699987,9.398399353,,,503,2.539900005,-0.911999989,10.41449928
1.683E+18,10.09906104,-1.227800012,0.176200002,-0.132299989,,,2.649699926,-0.990199983,9.389800072,,,504,1.421899915,-0.813999981,9.257500082
1.683E+18,10.11905811,-1.538399935,0.187099993,-0.486499995,,,2.67599988,-1.001099944,9.381199837,,,505,1.137599945,-0.813999951,8.894699842
1.683E+18,10.1390564,-1.296700001,-0.0116,0.28669998,,,2.699100018,-1.018000007,9.372699738,,,506,1.402400017,-1.029600007,9.659399718
1.683E+18,10.15905811,-0.874300003,-0.235100001,1.544199944,,,2.698299885,-1.039600015,9.370499611,,,507,1.823999882,-1.274700016,10.91469955
1.683E+18,10.17905811,-0.475899994,-0.209099993,1.862199903,,,2.672600031,-1.055899978,9.376099586,,,508,2.196700037,-1.264999971,11.23829949
1.683E+18,10.19905811,-0.032899998,-0.229699999,1.373899937,,,2.641499996,-1.064700007,9.383899689,,,509,2.608599998,-1.294400007,10.75779963
1.683E+18,10.21905811,0.16929999,-0.306999981,0.381799996,,,2.635299921,-1.065799952,9.385499954,,,510,2.804599911,-1.372799933,9.76729995
1.683E+18,10.23905811,0.198299989,-0.477200001,0.141900003,,,2.655299902,-1.062399983,9.380299568,,,511,2.853599891,-1.539599985,9.522199571
1.683E+18,10.2590564,0.122699998,-0.468899995,0.290800005,,,2.662299871,-1.060799956,9.378499985,,,512,2.78499987,-1.529699951,9.66929999
1.683E+18,10.27905811,-0.400099993,-0.377900004,0.206900001,,,2.645799875,-1.05369997,9.383899689,,,513,2.245699883,-1.431599975,9.590799689
1.683E+18,10.29905811,-0.826499999,-0.0319,-0.104699999,,,2.621099949,-1.046800017,9.391599655,,,514,1.79459995,-1.078700017,9.286899656
1.683E+18,10.31905811,-1.066299915,0.2042,-0.520799994,,,2.605900049,-1.047500014,9.395799637,,,515,1.539600134,-0.843300015,8.874999642
1.683E+18,10.3390564,-1.126099944,0.265300006,-0.902700007,,,2.606899977,-1.049899936,9.395299911,,,516,1.480800033,-0.78459993,8.492599905
1.683E+18,10.3590564,-1.200299978,0.194099993,-1.178799987,,,2.602599859,-1.047299981,9.396699905,,,517,1.402299881,-0.853199989,8.217899919
1.683E+18,10.37905957,-0.96329999,0.157199994,-1.067799926,,,2.581399918,-1.039799929,9.403399467,,,518,1.618099928,-0.882599935,8.335599542
1.683E+18,10.39905957,-0.581900001,0.179899991,-0.794499993,,,2.543200016,-1.033100009,9.414599419,,,519,1.961300015,-0.853200018,8.620099425
1.683E+18,10.41905957,-0.266099989,0.192900002,-0.639499962,,,2.501999855,-1.026499987,9.426300049,,,520,2.235899866,-0.833599985,8.786800086
1.683E+18,10.43905957,-0.067299999,0.140799999,-0.678799987,,,2.469899893,-1.013599992,9.436200142,,,521,2.402599894,-0.872799993,8.757400155
1.683E+18,10.45905957,0.0178,0.024499999,-0.792999983,,,2.453399897,-0.995299995,9.442399979,,,522,2.471199896,-0.970799996,8.649399996
1.683E+18,10.47905811,-0.106399998,-0.021499999,-1.004999995,,,2.440399885,-0.968799949,9.44849968,,,523,2.333999887,-0.990299948,8.443499684
1.683E+18,10.49905957,-0.332299978,-0.0244,-1.268199921,,,2.421099901,-0.93659997,9.456799507,,,524,2.088799924,-0.960999969,8.188599586
1.683E+18,10.51905957,-0.471199989,-0.091600001,-1.766799927,,,2.403100014,-0.898799956,9.465000153,,,525,1.931900024,-0.990399957,7.698200226
1.683E+18,10.5390564,-0.589100003,-0.207099989,-2.341500044,,,2.393499851,-0.861699998,9.470899582,,,526,1.804399848,-1.068799987,7.129399538
1.683E+18,10.55905957,-0.406599998,-0.159899995,-2.630100012,,,2.387500048,-0.83039999,9.475199699,,,527,1.980900049,-0.990299985,6.845099688
1.683E+18,10.57905957,-0.164199993,-0.0069,-2.370800018,,,2.370699883,-0.816799998,9.480599403,,,528,2.206499889,-0.823699998,7.109799385
1.683E+18,10.59905811,-0.034600001,0.304399997,-2.150899887,,,2.348899841,-0.814399958,9.486199379,,,529,2.31429984,-0.509999961,7.335299492
1.683E+18,10.61905957,-0.092199996,0.530399978,-2.195199966,,,2.328099966,-0.814799964,9.491299629,,,530,2.23589997,-0.284399986,7.296099663
1.683E+18,10.63905957,-0.204999998,0.547800004,-2.287199974,,,2.313499928,-0.812599957,9.495100021,,,531,2.108499929,-0.264799953,7.207900047
1.683E+18,10.65905957,-0.304699987,0.484899998,-2.122799873,,,2.305199862,-0.808499992,9.49739933,,,532,2.000499874,-0.323599994,7.374599457
1.683E+18,10.67905957,-0.255799979,0.4833,-1.742799997,,,2.295599937,-0.806899965,9.499899864,,,533,2.039799958,-0.323599964,7.757099867
1.683E+18,10.69905811,-0.240199998,0.562999964,-1.256199956,,,2.279899836,-0.808200002,9.503600121,,,534,2.039699838,-0.245200038,8.247400165
1.683E+18,10.71905811,-0.323699981,0.543299973,-0.426099986,,,2.265399933,-0.807999969,9.507100105,,,535,1.941699952,-0.264699996,9.081000119
1.683E+18,10.73905811,0.051399998,0.334899992,1.188799977,,,2.253000021,-0.805599988,9.510199547,,,536,2.304400019,-0.470699996,10.69899952
1.683E+18,10.75905957,0.726399958,-0.070599996,3.457099915,,,2.225299835,-0.802100003,9.517000198,,,537,2.951699793,-0.872699998,12.97410011
1.683E+18,10.77905957,1.449800014,-0.777700007,5.114699841,,,2.188299894,-0.791299999,9.526499748,,,538,3.638099909,-1.569000006,14.64119959
1.683E+18,10.79905957,1.411799908,-0.953299999,5.309099674,,,2.147899866,-0.762799978,9.538000107,,,539,3.559699774,-1.716099977,14.84709978
1.683E+18,10.81905811,0.930199981,-0.533999979,4.441699982,,,2.139199972,-0.731000006,9.542499542,,,540,3.069399953,-1.264999986,13.98419952
1.683E+18,10.83905811,0.316699982,-0.408299983,3.314899921,,,2.193699837,-0.709599972,9.531700134,,,541,2.510399818,-1.117899954,12.84660006
1.683E+18,10.85905811,0.170699999,-0.828599989,4.451299667,,,2.280900002,-0.681499958,9.513299942,,,542,2.4516,-1.510099947,13.96459961
1.683E+18,10.87906104,0.207800001,-0.785899997,5.911200047,,,2.282999992,-0.655499995,9.5145998,,,543,2.490799993,-1.441399992,15.42579985
1.683E+18,10.89905957,-0.135399997,-0.208399996,4.257599831,,,2.263399839,-0.634799957,9.520699501,,,544,2.127999842,-0.843199953,13.77829933
1.683E+18,10.91905811,-1.014599919,-0.048799999,1.429700017,,,2.299200058,-0.59829998,9.514399529,,,545,1.284600139,-0.647099979,10.94409955
1.683E+18,10.93906104,-1.169799924,-0.085900001,-0.460999995,,,2.395599842,-0.561199963,9.492899895,,,546,1.225799918,-0.647099964,9.031899899
1.683E+18,10.95906104,-1.199699998,-0.033500001,-1.152400017,,,2.494199991,-0.544999957,9.468400002,,,547,1.294499993,-0.578499958,8.315999985
1.683E+18,10.97905811,-1.623699903,0.1866,-1.190099955,,,2.535699844,-0.549399972,9.457099915,,,548,0.911999941,-0.362799972,8.26699996
1.683E+18,10.99905811,-1.686999917,0.51789999,-1.007399917,,,2.520599842,-0.557099998,9.460700035,,,549,0.833599925,-0.039200008,8.453300118
1.683E+18,11.01905957,-1.665099978,0.678200006,-0.939099967,,,2.479099989,-0.570299983,9.470899582,,,550,0.81400001,0.107900023,8.531799614
1.683E+18,11.03905957,-1.221599936,0.580500007,-1.101099968,,,2.457299948,-0.580500007,9.475999832,,,551,1.235700011,0,8.374899864
1.683E+18,11.05905957,-0.662599981,0.334600002,-1.414299965,,,2.45720005,-0.589599967,9.475399971,,,552,1.79460007,-0.254999965,8.061100006
1.683E+18,11.07906104,-0.345400006,0.17369999,-1.814399958,,,2.46359992,-0.595299959,9.473400116,,,553,2.118199915,-0.421599969,7.659000158
1.683E+18,11.09906104,-0.515699983,0.199900001,-2.129400015,,,2.457399845,-0.601999998,9.474599838,,,554,1.941699862,-0.402099997,7.345199823
1.683E+18,11.11905957,-1.094099998,0.403899997,-2.415899992,,,2.447399855,-0.609899998,9.476699829,,,555,1.353299856,-0.206,7.060799837
1.683E+18,11.13905811,-1.557999969,0.491599977,-2.309200048,,,2.440599918,-0.619099975,9.477799416,,,556,0.88259995,-0.127499998,7.168599367
1.683E+18,11.15905811,-1.562799931,0.631799996,-1.870799899,,,2.425799847,-0.631799996,9.480799675,,,557,0.862999916,0,7.609999776
1.683E+18,11.17905811,-1.265999913,0.903099954,-1.738099933,,,2.403599977,-0.648099959,9.4854002,,,558,1.137600064,0.254999995,7.747300267
1.683E+18,11.19905957,-1.155099988,1.033900023,-1.733099937,,,2.381000042,-0.661300004,9.490099907,,,559,1.225900054,0.372600019,7.756999969
1.683E+18,11.21905957,-1.056100011,1.094900012,-2.118099928,,,2.370199919,-0.663399994,9.492699623,,,560,1.314099908,0.431500018,7.374599695
1.683E+18,11.23905811,-1.142099977,0.958599985,-2.499300003,,,2.377799988,-0.654599965,9.491399765,,,561,1.235700011,0.30400002,6.992099762
1.683E+18,11.2590564,-1.20480001,0.894999981,-2.820499897,,,2.39139986,-0.639999986,9.488999367,,,562,1.186599851,0.254999995,6.66849947
1.683E+18,11.27905811,-1.287899971,0.950899959,-3.315999985,,,2.415599823,-0.617500007,9.48429966,,,563,1.127699852,0.333399951,6.168299675
1.683E+18,11.29905811,-1.176900029,0.666700006,-2.997200012,,,2.441999912,-0.588199973,9.479399681,,,564,1.265099883,0.078500032,6.482199669
1.683E+18,11.31905811,-0.827899992,0.309199989,-1.034399986,,,2.455800056,-0.554399967,9.477899551,,,565,1.627900064,-0.245199978,8.443499565
1.683E+18,11.3390564,0.178199992,-0.098099999,2.576200008,,,2.430299997,-0.529399991,9.485899925,,,566,2.608499989,-0.62749999,12.06209993
1.683E+18,11.3590564,1.354699969,-0.238099992,5.306499958,,,2.371700048,-0.516900003,9.501399994,,,567,3.726400018,-0.754999995,14.80789995
1.683E+18,11.37905811,2.27579999,-0.57889998,6.254699707,,,2.323499918,-0.49969998,9.514200211,,,568,4.599299908,-1.07859996,15.76889992
1.683E+18,11.39905811,2.401599884,-1.083899975,5.610300064,,,2.305500031,-0.445899993,9.521299362,,,569,4.707099915,-1.529799968,15.13159943
1.683E+18,11.41905811,2.751999855,-1.827799916,5.632799625,,,2.327800035,-0.388399988,9.518400192,,,570,5.079799891,-2.216199905,15.15119982
1.683E+18,11.43905811,2.597599983,-2.066099882,6.657299995,,,2.35469985,-0.336499989,9.513699532,,,571,4.952299833,-2.402599871,16.17099953
1.683E+18,11.45905811,1.968799949,-1.429299951,6.249700069,,,2.336199999,-0.306400001,9.519299507,,,572,4.304999948,-1.735699952,15.76899958
1.683E+18,11.47905811,0.647700012,-0.935799956,3.852999926,,,2.323600054,-0.280099988,9.523200035,,,573,2.971300066,-1.215899944,13.37619996
1.683E+18,11.4990564,0.140000001,-0.90109998,1.531799912,,,2.340999842,-0.236399993,9.52009964,,,574,2.480999842,-1.137499973,11.05189955
1.683E+18,11.51905957,0.492899984,-0.885800004,-0.277999997,,,2.39989996,-0.212499991,9.505999565,,,575,2.892799944,-1.098299995,9.227999568
1.683E+18,11.53905957,0.438899994,-0.493799984,-1.553299904,,,2.473599911,-0.221999988,9.486899376,,,576,2.912499905,-0.715799972,7.933599472
1.683E+18,11.55905957,-0.226999998,-0.019399999,-1.62349999,,,2.502099991,-0.255099982,9.478599548,,,577,2.275099993,-0.274499981,7.855099559
1.683E+18,11.57905957,-0.595699966,0.377599984,-0.905200005,,,2.468799829,-0.299199998,9.486000061,,,578,1.873099864,0.078399986,8.580800056
1.683E+18,11.59905957,-0.844699979,0.768000007,-0.51819998,,,2.404000044,-0.346300006,9.501099586,,,579,1.559300065,0.421700001,8.982899606
1.683E+18,11.61905957,-0.921899974,0.948399961,-0.872699976,,,2.353699923,-0.379700005,9.512399673,,,580,1.431799948,0.568699956,8.639699697
1.683E+18,11.6390564,-0.702099979,0.736599982,-1.682099938,,,2.329999924,-0.393399984,9.51760006,,,581,1.627899945,0.343199998,7.835500121
1.683E+18,11.65905957,-0.261599988,0.460199982,-2.086499929,,,2.320999861,-0.391499996,9.519899368,,,582,2.059399873,0.068699986,7.433399439
1.683E+18,11.67905811,-0.006,0.3495,-2.197399855,,,2.310499907,-0.378899992,9.522999763,,,583,2.304499906,-0.029399991,7.325599909
1.683E+18,11.69905811,-0.0744,0.131699994,-2.154000044,,,2.290699959,-0.357299984,9.528599739,,,584,2.216299959,-0.225599989,7.374599695
1.683E+18,11.71905957,-0.0165,0.024599999,-2.191299915,,,2.262199879,-0.328599989,9.536399841,,,585,2.245699879,-0.30399999,7.345099926
1.683E+18,11.73905957,0.150299996,-0.103199996,-2.346299887,,,2.232599974,-0.298799992,9.544400215,,,586,2.38289997,-0.401999988,7.198100328
1.683E+18,11.75905957,0.365799993,-0.217399999,-2.567299843,,,2.21329999,-0.272799999,9.549699783,,,587,2.579099983,-0.490199998,6.98239994
1.683E+18,11.77905957,0.201099992,-0.259599984,-2.60010004,,,2.201400042,-0.250200003,9.552999496,,,588,2.402500033,-0.509799987,6.952899456
1.683E+18,11.79905957,-0.059299998,-0.32979998,-2.317199945,,,2.19720006,-0.229099989,9.554499626,,,589,2.137900062,-0.558899969,7.237299681
1.683E+18,11.81905957,0.090700001,-0.286199987,-1.791000009,,,2.184399843,-0.2139,9.557799339,,,590,2.275099844,-0.500099987,7.766799331
1.683E+18,11.83905957,0.295699984,0.026099999,-1.775599957,,,2.165699959,-0.212399989,9.562099457,,,591,2.461399943,-0.186299991,7.7864995
1.683E+18,11.85905957,0.037799999,0.352699995,-2.483199835,,,2.158799887,-0.215399995,9.563599586,,,592,2.196599886,0.1373,7.080399752
1.683E+18,11.87905957,-0.443399996,0.542699993,-2.549399853,,,2.169399977,-0.218999997,9.561100006,,,593,1.725999981,0.323699996,7.011700153
1.683E+18,11.89905811,-0.289599985,0.437700003,-1.506899953,,,2.182199955,-0.221999988,9.558099747,,,594,1.89259997,0.215700015,8.051199794
1.683E+18,11.91905811,0.380999982,0.25909999,0.804499984,,,2.168599844,-0.229699999,9.56099987,,,595,2.549599826,0.029399991,10.36549985
1.683E+18,11.93905811,1.022300005,0.027899999,3.528999805,,,2.115700006,-0.243699998,9.572500229,,,596,3.138000011,-0.215799998,13.10150003
1.683E+18,11.95905811,1.501099944,-0.133000001,5.799900055,,,2.048799992,-0.259200007,9.586699486,,,597,3.549899936,-0.392200008,15.38659954
1.683E+18,11.97905811,1.791599989,-0.190599993,6.006000042,,,2.003399849,-0.260399997,9.596199989,,,598,3.794999838,-0.45099999,15.60220003
1.683E+18,11.99905811,1.538499951,-0.2949,4.013000011,,,2.040799856,-0.244299993,9.588799477,,,599,3.579299808,-0.539199993,13.60179949
1.683E+18,12.01905811,1.342199922,-0.886699975,3.690399885,,,2.139099836,-0.211499989,9.568099976,,,600,3.481299758,-1.098199964,13.25849986
1.683E+18,12.0390564,0.673299968,-1.322999954,4.529500008,,,2.209800005,-0.177299991,9.552700043,,,601,2.883099973,-1.500299945,14.08220005
1.683E+18,12.05905811,-0.393899977,-1.206900001,3.58949995,,,2.217900038,-0.146300003,9.551400185,,,602,1.824000061,-1.353200004,13.14090014
1.683E+18,12.07905811,-1.40899992,-1.032699943,2.226999998,,,2.222899914,-0.114599995,9.550600052,,,603,0.813899994,-1.147299938,11.77760005
1.683E+18,12.09905811,-1.368699908,-0.763700008,1.407499909,,,2.241499901,-0.099199995,9.546500206,,,604,0.872799993,-0.862900004,10.95400012
1.683E+18,12.11905957,-1.228399992,-0.428000003,0.562999964,,,2.277799845,-0.111299999,9.537699699,,,605,1.049399853,-0.539300002,10.10069966
1.683E+18,12.13905957,-1.262199998,-0.0004,0.235699996,,,2.301699877,-0.136799991,9.531700134,,,606,1.039499879,-0.137199991,9.767400131
1.683E+18,12.15905957,-1.402799964,0.254799992,0.251800001,,,2.285399914,-0.166500002,9.535099983,,,607,0.88259995,0.08829999,9.786899984
1.683E+18,12.17905811,-1.343899965,0.379599988,0.105699994,,,2.246099949,-0.193299994,9.543899536,,,608,0.902199984,0.186299995,9.64959953
1.683E+18,12.19905957,-1.024600029,0.555400014,-0.166500002,,,2.211199999,-0.221999988,9.551499367,,,609,1.18659997,0.333400026,9.384999365
1.683E+18,12.21905957,-0.69569999,0.683699965,-0.796899974,,,2.196099997,-0.252200007,9.554200172,,,610,1.500400007,0.431499958,8.757300198
1.683E+18,12.23905811,-0.657700002,0.589999974,-1.443099976,,,2.197399855,-0.276199996,9.553199768,,,611,1.539699852,0.313799977,8.110099792
1.683E+18,12.2590564,-0.897699952,0.478399992,-1.836099982,,,2.192199945,-0.292099983,9.553999901,,,612,1.294499993,0.186300009,7.717899919
1.683E+18,12.27905811,-1.081699967,0.473999977,-2.230700016,,,2.180099964,-0.307300001,9.556300163,,,613,1.098399997,0.166699976,7.325600147
1.683E+18,12.29905957,-1.114499927,0.531499982,-2.390699863,,,2.163800001,-0.325499982,9.559399605,,,614,1.049300075,0.206,7.168699741
1.683E+18,12.31905957,-0.994199991,0.562099993,-2.306699991,,,2.141599894,-0.346300006,9.563599586,,,615,1.147399902,0.215799987,7.256899595
1.683E+18,12.3390564,-0.742799997,0.431400001,-2.164700031,,,2.115700006,-0.362800002,9.568799973,,,616,1.372900009,0.068599999,7.404099941
1.683E+18,12.3590564,-0.319900006,0.401199996,-1.817699909,,,2.085099936,-0.381599993,9.574699402,,,617,1.765199929,0.019600004,7.756999493
1.683E+18,12.37905811,-0.114599995,0.650999963,-1.734699965,,,2.056299925,-0.405900002,9.579999924,,,618,1.94169993,0.245099962,7.845299959
1.683E+18,12.39905811,-0.314599991,0.963999987,-1.979900002,,,2.050299883,-0.434399992,9.579999924,,,619,1.735699892,0.529599994,7.600099921
1.683E+18,12.41905811,-0.937399983,0.949399948,-2.574199915,,,2.065199852,-0.449199975,9.576099396,,,620,1.127799869,0.500199974,7.001899481
1.683E+18,12.43905811,-1.281199932,0.682699978,-3.087499857,,,2.095200062,-0.447299987,9.569699287,,,621,0.81400013,0.235399991,6.48219943
1.683E+18,12.45905811,-1.268399954,0.413999975,-3.030699968,,,2.13139987,-0.443399996,9.561900139,,,622,0.862999916,-0.029400021,6.531200171
1.683E+18,12.47905811,-0.989199996,0.393999994,-2.681900024,,,2.156199932,-0.443099976,9.556300163,,,623,1.166999936,-0.049099982,6.874400139
1.683E+18,12.49905811,-0.854099989,0.479000002,-2.586099863,,,2.187799931,-0.449599981,9.548799515,,,624,1.333699942,0.029400021,6.962699652
1.683E+18,12.51905811,-0.907199979,0.484399974,-2.661799908,,,2.24090004,-0.454899997,9.536299706,,,625,1.333700061,0.029499978,6.874499798
1.683E+18,12.5390564,-0.245199993,0.0148,-1.57069993,,,2.294800043,-0.4463,9.523900032,,,626,2.04960005,-0.4315,7.953200102
1.683E+18,12.55905957,1.027899981,-0.7421,1.785299897,,,2.306299925,-0.434599996,9.52159977,,,627,3.334199905,-1.176699996,11.30689967
1.683E+18,12.57905811,2.231099844,-0.791199982,5.427499771,,,2.240599871,-0.434499979,9.53730011,,,628,4.471699715,-1.225699961,14.96479988
1.683E+18,12.59905811,2.349699974,-0.567399979,7.136600018,,,2.122099876,-0.442599982,9.56400013,,,629,4.47179985,-1.009999961,16.70060015
1.683E+18,12.61905811,1.513000011,-0.206,6.503599644,,,2.056599855,-0.421499997,9.579299927,,,630,3.569599867,-0.627499998,16.08289957
1.683E+18,12.6390564,1.503499985,-0.563600004,4.805999756,,,2.10529995,-0.377700001,9.57049942,,,631,3.608799934,-0.941300005,14.37649918
1.683E+18,12.65905957,2.719499826,-1.424099922,6.183899879,,,2.22300005,-0.321399987,9.545899391,,,632,4.942499876,-1.745499909,15.72979927
1.683E+18,12.6790564,2.417599916,-1.539699912,6.379799843,,,2.269899845,-0.274399996,9.536299706,,,633,4.687499762,-1.814099908,15.91609955
1.683E+18,12.69905811,1.037500024,-1.260999918,3.35469985,,,2.296700001,-0.229499996,9.531099319,,,634,3.334200025,-1.490499914,12.88579917
1.683E+18,12.71905811,-0.353899986,-1.14199996,1.163900018,,,2.325000048,-0.181799993,9.525300026,,,635,1.971100062,-1.323799953,10.68920004
1.683E+18,12.73905811,-0.049399998,-0.904599965,0.2588,,,2.353899956,-0.173999995,9.518300056,,,636,2.304499958,-1.07859996,9.777100056
1.683E+18,12.7590564,0.027199998,-0.217599988,0.566799998,,,2.404700041,-0.2236,9.504499435,,,637,2.431900039,-0.441199988,10.07129943
1.683E+18,12.77905811,-0.227599993,0.704899967,1.481299996,,,2.404700041,-0.312599987,9.501999855,,,638,2.177100047,0.39229998,10.98329985
1.683E+18,12.79905811,-0.921499968,1.430400014,1.530599952,,,2.353299856,-0.400700003,9.511599541,,,639,1.431799889,1.029700011,11.04219949
1.683E+18,12.81905811,-1.702299953,1.550499916,1.064199924,,,2.280900002,-0.452199996,9.526899338,,,640,0.578600049,1.098299921,10.59109926
1.683E+18,12.8390564,-1.681800008,1.295099974,-0.023,,,2.240799904,-0.471399993,9.535499573,,,641,0.558999896,0.823699981,9.512499573
1.683E+18,12.85905811,-1.300199986,0.888899982,-1.349299908,,,2.271100044,-0.476999998,9.528100014,,,642,0.970900059,0.411899984,8.178800106
1.683E+18,12.87905811,-1.268000007,0.451399982,-2.125399828,,,2.307499886,-0.470999986,9.519599915,,,643,1.039499879,-0.019600004,7.394200087
1.683E+18,12.89905811,-1.581299901,0.0537,-2.692699909,,,2.316799879,-0.455799997,9.518099785,,,644,0.735499978,-0.402099997,6.825399876
1.683E+18,12.91905811,-1.483699918,-0.118899994,-2.786299944,,,2.297699928,-0.439999998,9.523499489,,,645,0.81400001,-0.558899991,6.737199545
1.683E+18,12.93906104,-1.049099922,-0.076699995,-2.951299906,,,2.2651999,-0.433099985,9.531599998,,,646,1.216099977,-0.50979998,6.580300093
1.683E+18,12.95905811,-0.311100006,-0.013499999,-2.80919981,,,2.243000031,-0.4375,9.536600113,,,647,1.931900024,-0.450999999,6.727400303
1.683E+18,12.97905811,0.145599991,0.019099999,-2.493700027,,,2.207900047,-0.440799981,9.544599533,,,648,2.353500038,-0.421699982,7.050899506
1.683E+18,12.99905811,0.467399985,0.023599999,-2.202899933,,,2.150899887,-0.435499996,9.557899475,,,649,2.618299872,-0.411899997,7.354999542
1.683E+18,13.01905811,0.532599986,-0.026999999,-2.196099997,,,2.095499992,-0.423999995,9.570699692,,,650,2.628099978,-0.450999994,7.374599695
1.683E+18,13.0390564,0.648699999,0.0074,-2.401000023,,,2.057800055,-0.409500003,9.579500198,,,651,2.706500053,-0.402100003,7.178500175
1.683E+18,13.05905811,0.776899993,0.092799999,-2.74909997,,,2.037499905,-0.396799982,9.584400177,,,652,2.814399898,-0.303999983,6.835300207
1.683E+18,13.07905811,0.330599993,0.147,-2.995899916,,,2.032799959,-0.382299989,9.585999489,,,653,2.363399953,-0.23529999,6.590099573
1.683E+18,13.09905811,-0.084699996,0.156199992,-3.1329,,,2.036200047,-0.371899992,9.585700035,,,654,1.951500051,-0.215700001,6.452800035
1.683E+18,13.11905811,0.307399988,0.026999999,-1.691399932,,,2.036200047,-0.370199978,9.585700035,,,655,2.343600035,-0.34319998,7.894300103
1.683E+18,13.1390564,1.174600005,-0.115999997,0.998899996,,,2.002699852,-0.384000003,9.592199326,,,656,3.177299857,-0.5,10.59109932
1.683E+18,13.15905811,1.857299924,-0.233599991,3.957700014,,,1.937799931,-0.403699994,9.604800224,,,657,3.795099854,-0.637299985,13.56250024
1.683E+18,13.17905811,2.047600031,-0.449299991,6.617199898,,,1.845499992,-0.413599998,9.622499466,,,658,3.893100023,-0.862899989,16.23969936
1.683E+18,13.19905811,1.603399992,-0.507699966,6.368700027,,,1.779799938,-0.394400001,9.635700226,,,659,3.38319993,-0.902099967,16.00440025
1.683E+18,13.21905811,1.282400012,-0.77759999,3.855000019,,,1.826200008,-0.340199977,9.62899971,,,660,3.10860002,-1.117799968,13.48399973
1.683E+18,13.23905811,0.900699973,-1.505899906,2.396800041,,,1.952899933,-0.268999994,9.606399536,,,661,2.853599906,-1.7748999,12.00319958
1.683E+18,13.2590564,0.148000002,-2.148499966,2.345199823,,,2.087800026,-0.204999998,9.57959938,,,662,2.235800028,-2.353499964,11.9247992
1.683E+18,13.27905811,-0.899100006,-2.098799944,2.390799999,,,2.164199829,-0.1664,9.563399315,,,663,1.265099823,-2.265199944,11.95419931
1.683E+18,13.29905811,-1.58099997,-1.836499929,2.953199863,,,2.179199934,-0.163900003,9.559999466,,,664,0.598199964,-2.000399932,12.51319933
1.683E+18,13.31905811,-1.657099962,-1.096899986,2.774199963,,,2.167000055,-0.1778,9.5625,,,665,0.509900093,-1.274699986,12.33669996
1.683E+18,13.3390564,-1.6049999,-0.412399977,1.67809999,,,2.173799992,-0.21509999,9.560199738,,,666,0.568800092,-0.627499968,11.23829973
1.683E+18,13.35905811,-1.53489995,0.0081,0.326900005,,,2.221400023,-0.253299981,9.548299789,,,667,0.686500072,-0.245199981,9.875199795
1.683E+18,13.37905811,-1.773499966,0.2139,-0.269899994,,,2.263900042,-0.292400002,9.537199974,,,668,0.490400076,-0.078500003,9.26729998
1.683E+18,13.39905811,-2.126600027,0.368599981,-0.737100005,,,2.273699999,-0.329400003,9.533699989,,,669,0.147099972,0.039199978,8.796599984
1.683E+18,13.41905811,-2.300499916,0.58829999,-0.954599977,,,2.261299849,-0.362800002,9.535399437,,,670,-0.039200068,0.225499988,8.58079946
1.683E+18,13.43905811,-1.831200004,0.8125,-0.969500005,,,2.233299971,-0.400599986,9.540499687,,,671,0.402099967,0.411900014,8.570999682
1.683E+18,13.45905811,-0.979299963,0.926099956,-1.27579999,,,2.214900017,-0.445600003,9.54279995,,,672,1.235600054,0.480499953,8.26699996
1.683E+18,13.47906104,-0.475599974,0.918199956,-1.833599925,,,2.211400032,-0.486699998,9.541600227,,,673,1.735800058,0.431499958,7.708000302
1.683E+18,13.49905811,-0.1347,0.927299976,-2.095799923,,,2.213700056,-0.525200009,9.538999557,,,674,2.079000056,0.402099967,7.443199635
1.683E+18,13.51905811,-0.240099996,0.806199968,-2.113899946,,,2.211199999,-0.56099999,9.537499428,,,675,1.971100003,0.245199978,7.423599482
1.683E+18,13.5390564,-0.616100013,0.759299994,-2.14289999,,,2.204699993,-0.592599988,9.537099838,,,676,1.58859998,0.166700006,7.394199848
1.683E+18,13.55905957,-0.817599952,0.805399954,-1.83009994,,,2.190599918,-0.628899992,9.538099289,,,677,1.372999966,0.176499963,7.707999349
1.683E+18,13.57905811,-0.813999951,1.074699998,-1.489199996,,,2.167299986,-0.672699988,9.540399551,,,678,1.353300035,0.40200001,8.051199555
1.683E+18,13.59905811,-0.779299974,1.330899954,-1.361400008,,,2.152199984,-0.722899973,9.540100098,,,679,1.372900009,0.60799998,8.178700089
1.683E+18,13.6190564,-0.975199997,1.590199947,-1.301399946,,,2.142199993,-0.766499996,9.538999557,,,680,1.166999996,0.823699951,8.237599611
1.683E+18,13.6390564,-0.910899997,1.933499932,-0.781899989,,,2.126899958,-0.805700004,9.539199829,,,681,1.215999961,1.127799928,8.75729984
1.683E+18,13.65905811,-1.038699985,2.106999874,-0.609499991,,,2.097800016,-0.832099974,9.543399811,,,682,1.059100032,1.2748999,8.93389982
1.683E+18,13.67905811,-1.210299969,2.049000025,-1.357999921,,,2.083099842,-0.832899988,9.546500206,,,683,0.872799873,1.216100037,8.188500285
1.683E+18,13.69905811,-0.826599956,1.673599958,-2.434599876,,,2.101500034,-0.810599983,9.544400215,,,684,1.274900079,0.862999976,7.109800339
1.683E+18,13.71905811,-0.160899997,1.181100011,-2.918599844,,,2.141900063,-0.778999984,9.538099289,,,685,1.981000066,0.402100027,6.619499445
1.683E+18,13.73905811,0.437299997,0.538800001,-2.292399883,,,2.190799952,-0.744699955,9.529699326,,,686,2.628099948,-0.205899954,7.237299442
1.683E+18,13.7590564,0.919699967,-0.150999993,0.528899968,,,2.188899994,-0.711899996,9.532599449,,,687,3.108599961,-0.862899989,10.06149942
1.683E+18,13.77905811,1.461499929,-0.456599981,3.816099882,,,2.117799997,-0.690699995,9.550199509,,,688,3.579299927,-1.147299975,13.36629939
1.683E+18,13.79905811,1.57159996,-0.531799972,5.548699856,,,2.017499924,-0.674299955,9.57310009,,,689,3.589099884,-1.206099927,15.12179995
1.683E+18,13.81905811,1.36379993,-0.826399982,4.57310009,,,1.960599899,-0.6347,9.587599754,,,690,3.324399829,-1.461099982,14.16069984
1.683E+18,13.83905811,1.232200027,-1.389400005,2.945499897,,,1.984299898,-0.561999977,9.587299347,,,691,3.216499925,-1.951399982,12.53279924
1.683E+18,13.85905811,1.627099991,-2.247799873,3.043599844,,,2.050299883,-0.488199979,9.577400208,,,692,3.677399874,-2.735999852,12.62100005
1.683E+18,13.87905811,1.5273,-2.750799894,4.530399799,,,2.091300011,-0.426399976,9.571499825,,,693,3.618600011,-3.17719987,14.10189962
1.683E+18,13.89905811,1.08130002,-2.162999868,5.388799667,,,2.076400042,-0.396400005,9.576099396,,,694,3.157700062,-2.559399873,14.96489906
1.683E+18,13.91905811,0.465799987,-1.429399967,3.863600016,,,2.054399967,-0.384799987,9.581299782,,,695,2.520199955,-1.814199954,13.4448998
1.683E+18,13.93905811,0.029899999,-1.315799952,1.7572999,,,2.068599939,-0.361099988,9.579099655,,,696,2.098499939,-1.67689994,11.33639956
1.683E+18,13.95905811,0.112299994,-1.157599926,0.403299987,,,2.113699913,-0.342700005,9.569999695,,,697,2.225999907,-1.500299931,9.973299682
1.683E+18,13.97905811,0.22389999,-0.838,-0.407399982,,,2.168900013,-0.3583,9.55700016,,,698,2.392800003,-1.1963,9.149600178
1.683E+18,13.99905811,-0.112599999,-0.451700002,-0.761500001,,,2.201400042,-0.391599983,9.548299789,,,699,2.088800043,-0.843299985,8.786799788
1.683E+18,14.01905811,-0.630400002,-0.127299994,-0.681800008,,,2.199399948,-0.431599975,9.546999931,,,700,1.568999946,-0.558899969,8.865199924
1.683E+18,14.0390564,-0.862899959,0.338699996,-0.574699998,,,2.186800003,-0.475999981,9.547800064,,,701,1.323900044,-0.137299985,8.973100066
1.683E+18,14.05905811,-1.001099944,0.688499987,-0.564599991,,,2.177899837,-0.521799982,9.547399521,,,702,1.176799893,0.166700006,8.98279953
1.683E+18,14.07905811,-0.996999979,0.667499959,-1.014999986,,,2.173799992,-0.549799979,9.54679966,,,703,1.176800013,0.117699981,8.531799674
1.683E+18,14.09905811,-1.057099938,0.297299981,-1.546399951,,,2.165299892,-0.552299976,9.548600197,,,704,1.108199954,-0.254999995,8.002200246
1.683E+18,14.11905811,-0.912799954,0.071999997,-1.89169991,,,2.158299923,-0.542699993,9.550700188,,,705,1.245499969,-0.470699996,7.659000278
1.683E+18,14.1390564,-0.531499982,-0.0046,-1.906199932,,,2.139799833,-0.534699976,9.555299759,,,706,1.608299851,-0.539299977,7.649099827
1.683E+18,14.15905811,-0.118599996,0.113799997,-1.89109993,,,2.119099855,-0.53549999,9.55989933,,,707,2.000499859,-0.421699993,7.6687994
1.683E+18,14.17905811,0.155000001,0.274699986,-1.799099922,,,2.090600014,-0.539499998,9.565899849,,,708,2.245600015,-0.264800012,7.766799927
1.683E+18,14.19905811,0.181099996,0.323799998,-1.630299926,,,2.054699898,-0.539499998,9.573699951,,,709,2.235799894,-0.215700001,7.943400025
1.683E+18,14.2190564,0.023799999,0.329899997,-1.715199947,,,2.025699854,-0.53579998,9.58010006,,,710,2.049499853,-0.205899984,7.864900112
1.683E+18,14.23905811,0.0222,0.283699989,-1.944899917,,,2.007699966,-0.528800011,9.584300041,,,711,2.029899966,-0.245100021,7.639400125
1.683E+18,14.2590564,0.159199998,0.318899989,-2.172699928,,,1.99819994,-0.524800003,9.586500168,,,712,2.157399938,-0.205900013,7.41380024
1.683E+18,14.27905811,0.206399992,0.525299966,-2.39989996,,,1.990199924,-0.525299966,9.58809948,,,713,2.196599916,0,7.18819952
1.683E+18,14.29905811,0.162100002,0.636799991,-2.6947999,,,1.985499978,-0.528899968,9.588899612,,,714,2.14759998,0.107900023,6.894099712
1.683E+18,14.31905811,0.063699998,0.757099986,-2.753499985,,,1.985799909,-0.531499982,9.588699341,,,715,2.049499907,0.225600004,6.835199356
1.683E+18,14.33905811,-0.012499999,0.593999982,-2.027999878,,,1.983699918,-0.535099983,9.588899612,,,716,1.971199919,0.058899999,7.560899734
1.683E+18,14.35905811,0.262299985,0.340900004,-0.313799977,,,1.973499894,-0.537099957,9.590899467,,,717,2.235799879,-0.196199954,9.27709949
1.683E+18,14.37905811,0.932899952,0.070299998,2.187999964,,,1.930599928,-0.541000009,9.599499702,,,718,2.86349988,-0.470700011,11.78749967
1.683E+18,14.39905811,1.490499973,-0.1052,4.302799702,,,1.863199949,-0.541999996,9.612699509,,,719,3.353699923,-0.647199996,13.91549921
1.683E+18,14.41905811,1.482800007,-0.045499999,4.477099895,,,1.802299976,-0.532999992,9.624799728,,,720,3.285099983,-0.578499991,14.10189962
1.683E+18,14.43905811,1.110999942,-0.065399997,2.898299932,,,1.81129992,-0.503300011,9.624699593,,,721,2.922299862,-0.568700008,12.52299953
1.683E+18,14.45905811,0.698099971,-0.644199967,2.324699879,,,1.900599957,-0.453999996,9.609899521,,,722,2.598699927,-1.098199964,11.9345994
1.683E+18,14.47905811,0.861000001,-1.741499901,4.334000111,,,2.002399921,-0.405999988,9.591400146,,,723,2.863399923,-2.147499889,13.92540026
1.683E+18,14.49905811,0.651199996,-1.589999914,6.392699718,,,2.006299973,-0.371199995,9.592000008,,,724,2.657499969,-1.961199909,15.98469973
1.683E+18,14.51905811,-0.0251,-0.560499966,5.10929966,,,1.966799974,-0.361200005,9.600500107,,,725,1.941699974,-0.921699971,14.70979977
1.683E+18,14.5390564,-1.125399947,-0.248199999,2.433399916,,,1.978599906,-0.330300003,9.599199295,,,726,0.853199959,-0.578500003,12.03259921
1.683E+18,14.55905957,-1.045300007,-0.382699996,0.574999988,,,2.055399895,-0.283999979,9.584599495,,,727,1.010099888,-0.666699976,10.15959948
1.683E+18,14.57905957,-0.748600006,-0.341600001,-0.262899995,,,2.170599937,-0.26639998,9.559599876,,,728,1.421999931,-0.60799998,9.296699882
1.683E+18,14.59905811,-1.058699965,-0.1215,-0.314199984,,,2.245300055,-0.270700008,9.542200089,,,729,1.186600089,-0.392200008,9.228000104
1.683E+18,14.61905811,-1.590999961,0.222199991,0.192000002,,,2.228399992,-0.280999988,9.545899391,,,730,0.637400031,-0.058799997,9.737899393
1.683E+18,14.6390564,-1.460199952,0.575399995,0.249199986,,,2.176100016,-0.300799996,9.55739975,,,731,0.715900064,0.274599999,9.806599736
1.683E+18,14.65905811,-1.023299932,0.82979995,-0.100899994,,,2.141199827,-0.329699993,9.564299583,,,732,1.117899895,0.500099957,9.463399589
1.683E+18,14.67905811,-0.647700012,0.7755,-1.079100013,,,2.148099899,-0.353799999,9.561900139,,,733,1.500399888,0.421700001,8.482800126
1.683E+18,14.69905957,-0.656099975,0.532700002,-2.190299988,,,2.176100016,-0.365999997,9.555099487,,,734,1.520000041,0.166700006,7.3647995
1.683E+18,14.7190564,-0.938600004,0.343699992,-2.803799868,,,2.193799973,-0.373199999,9.55079937,,,735,1.255199969,-0.029500008,6.746999502
1.683E+18,14.73905811,-1.164600015,0.390699983,-2.851999998,,,2.194299936,-0.390699983,9.549900055,,,736,1.029699922,0,6.697900057
1.683E+18,14.7590564,-1.180499911,0.520699978,-2.294800043,,,2.180799961,-0.422699988,9.551699638,,,737,1.00030005,0.09799999,7.256899595
1.683E+18,14.7790564,-1.062600017,0.666399956,-1.809399962,,,2.15109992,-0.460399985,9.556699753,,,738,1.088499904,0.20599997,7.74729979
1.683E+18,14.79905957,-1.030699968,0.698599994,-1.591499925,,,2.109400034,-0.492699981,9.564299583,,,739,1.078700066,0.205900013,7.972799659
1.683E+18,14.81905811,-0.86589998,0.735499978,-1.8118999,,,2.081899881,-0.519699991,9.568900108,,,740,1.215999901,0.215799987,7.757000208
1.683E+18,14.83905811,-0.571999967,0.886599958,-1.635499954,,,2.072399855,-0.55309999,9.569099426,,,741,1.500399888,0.333499968,7.933599472
1.683E+18,14.8590564,-0.369100004,1.120499969,-1.387499928,,,2.075399876,-0.590999961,9.566199303,,,742,1.706299871,0.529500008,8.178699374
1.683E+18,14.87905811,-0.51639998,1.319299936,-1.316699982,,,2.075700045,-0.623099983,9.564099312,,,743,1.559300065,0.696199954,8.24739933
1.683E+18,14.8990564,-0.808299959,1.260399938,-1.328499913,,,2.063600063,-0.632799983,9.566100121,,,744,1.255300105,0.627599955,8.237600207
1.683E+18,14.91905811,-0.906199992,1.031599998,-1.449199915,,,2.053499937,-0.619799972,9.569099426,,,745,1.147299945,0.411800027,8.119899511
1.683E+18,14.93905811,-0.740799963,0.887299955,-1.499599934,,,2.054899931,-0.593100011,9.57049942,,,746,1.314099967,0.294199944,8.070899487
1.683E+18,14.95905811,-0.360300004,0.524999976,-1.175199986,,,2.066599846,-0.564199984,9.569699287,,,747,1.706299841,-0.039200008,8.394499302
1.683E+18,14.97905811,0.233599991,0.0295,0.324000001,,,2.070899963,-0.529599965,9.570799828,,,748,2.304499954,-0.500099964,9.894799829
1.683E+18,14.99905811,0.919099987,-0.130400002,2.346600056,,,2.042399883,-0.506900012,9.578100204,,,749,2.96149987,-0.637300014,11.92470026
1.683E+18,15.01905811,1.251999974,-0.091199994,3.257799864,,,1.993899941,-0.497099996,9.588899612,,,750,3.245899916,-0.58829999,12.84669948
1.683E+18,15.0390564,1.408599973,-0.326000005,3.260599852,,,1.9648,-0.477999985,9.595799446,,,751,3.373399973,-0.80399999,12.8563993
1.683E+18,15.05905811,1.063899994,-0.487899989,2.698199987,,,1.956399918,-0.443699986,9.599199295,,,752,3.020299911,-0.931599975,12.29739928
1.683E+18,15.07905811,0.655699968,-0.785899997,2.533299923,,,1.972299933,-0.410400003,9.597399712,,,753,2.627999902,-1.1963,12.13069963
1.683E+18,15.09906104,0.882699966,-1.341499925,4.45359993,,,1.97089994,-0.374599993,9.599199295,,,754,2.853599906,-1.716099918,14.05279922
1.683E+18,15.11905811,0.727499962,-1.081499934,5.956599712,,,1.890799999,-0.350199997,9.616199493,,,755,2.618299961,-1.431699932,15.57279921
1.683E+18,15.1390564,0.318699986,-0.800300002,4.353300095,,,1.819000006,-0.327299982,9.630799294,,,756,2.137699991,-1.127599984,13.98409939
1.683E+18,15.15905811,0.270399988,-1.009500027,1.782199979,,,1.818300009,-0.275099993,9.632599831,,,757,2.088699996,-1.284600019,11.41479981
1.683E+18,15.17905811,0.844899952,-1.34920001,0.306400001,,,1.851799965,-0.219799995,9.627699852,,,758,2.696699917,-1.569000006,9.934099853
1.683E+18,15.19905811,1.49059999,-1.304700017,-0.339299977,,,1.912199974,-0.195599988,9.616399765,,,759,3.402799964,-1.500300005,9.277099788
1.683E+18,15.21905811,1.420699954,-0.808499992,0.149599999,,,1.9526999,-0.211300001,9.607899666,,,760,3.373399854,-1.019799992,9.757499665
1.683E+18,15.23905811,0.626999974,-0.072799996,0.511599958,,,1.942299962,-0.260600001,9.608799934,,,761,2.569299936,-0.333399996,10.12039989
1.683E+18,15.25905811,-0.249299988,0.619399965,0.213799998,,,1.916399956,-0.315400004,9.612299919,,,762,1.667099968,0.30399996,9.826099917
1.683E+18,15.27905811,-0.859899998,1.034799933,-0.2685,,,1.899399996,-0.358099997,9.614199638,,,763,1.039499998,0.676699936,9.345699638
1.683E+18,15.29905811,-0.82129997,0.986000001,-1.096899986,,,1.919699907,-0.387799978,9.609000206,,,764,1.098399937,0.598200023,8.51210022
1.683E+18,15.31905811,-0.20889999,0.704400003,-1.977299929,,,1.974099994,-0.4102,9.597099304,,,765,1.765200004,0.294200003,7.619799376
1.683E+18,15.33905811,0.28549999,0.486099988,-2.379099846,,,2.018899918,-0.42719999,9.586999893,,,766,2.304399908,0.058899999,7.207900047
1.683E+18,15.3590564,0.567999959,0.461799979,-2.287699938,,,2.030599833,-0.442199975,9.583899498,,,767,2.598599792,0.019600004,7.29619956
1.683E+18,15.37905811,0.664099991,0.556400001,-1.819899917,,,2.013099909,-0.458299994,9.586799622,,,768,2.6771999,0.098100007,7.766899705
1.683E+18,15.39905811,0.174899995,0.473099977,-1.83949995,,,2.011899948,-0.46329999,9.586799622,,,769,2.186799943,0.009799987,7.747299671
1.683E+18,15.41905811,-0.331499994,0.298399985,-2.117699862,,,1.998699903,-0.445499986,9.590399742,,,770,1.66719991,-0.147100002,7.472699881
1.683E+18,15.43905811,-0.537299991,0.0154,-2.631000042,,,1.988599896,-0.417400002,9.593799591,,,771,1.451299906,-0.402000003,6.962799549
1.683E+18,15.45905811,-0.33949998,-0.166599989,-2.967900038,,,1.977199912,-0.39229998,9.59719944,,,772,1.637699932,-0.558899969,6.629299402
1.683E+18,15.47905811,0.060799997,-0.095699996,-2.861999989,,,1.968999982,-0.3847,9.599199295,,,773,2.029799979,-0.480399996,6.737199306
1.683E+18,15.49905811,-0.026999999,0.20449999,-2.98149991,,,1.958899975,-0.390799999,9.600999832,,,774,1.931899976,-0.186300009,6.619499922
1.683E+18,15.51905811,-0.515299976,0.398699999,-3.101300001,,,1.947099924,-0.398699999,9.603099823,,,775,1.431799948,0,6.501799822
1.683E+18,15.53905957,-0.682699978,0.216199994,-2.230200052,,,1.937999964,-0.402500004,9.604800224,,,776,1.255299985,-0.186300009,7.374600172
1.683E+18,15.55905811,-0.137400001,-0.213799998,0.245799989,,,1.912400007,-0.403899997,9.609799385,,,777,1.775000006,-0.617699996,9.855599374
1.683E+18,15.57905811,0.541499972,-0.257299989,3.272199869,,,1.841399908,-0.409500003,9.623399734,,,778,2.38289988,-0.666799992,12.8955996
1.683E+18,15.59905811,0.55399996,-0.382099986,5.254099846,,,1.74059999,-0.412099987,9.64209938,,,779,2.29459995,-0.794199973,14.89619923
1.683E+18,15.61905811,0.421399981,-0.815099955,5.184499741,,,1.6868999,-0.381199986,9.652899742,,,780,2.108299881,-1.19629994,14.83739948
1.683E+18,15.6390564,0.82949996,-1.225899935,4.851299763,,,1.700500011,-0.323399991,9.652599335,,,781,2.529999971,-1.549299926,14.5038991
1.683E+18,15.65905811,0.828199983,-1.494399905,4.798099995,,,1.740999937,-0.270700008,9.646999359,,,782,2.56919992,-1.765099913,14.44509935
1.683E+18,15.67905811,0.242499992,-1.663100004,5.568599701,,,1.777599931,-0.229499996,9.641399384,,,783,2.020099923,-1.8926,15.20999908
1.683E+18,15.69905811,-0.3847,-1.3125,5.70510006,,,1.7773,-0.197699994,9.642199516,,,784,1.3926,-1.510199994,15.34729958
1.683E+18,15.71905811,-1.349599957,-0.873299956,4.042500019,,,1.751599908,-0.166099995,9.647500038,,,785,0.40199995,-1.039399952,13.69000006
1.683E+18,15.73905811,-1.727999926,-0.571500003,1.710899949,,,1.767199993,-0.134399995,9.64509964,,,786,0.039200068,-0.705899999,11.35599959
1.683E+18,15.7590564,-1.055400014,-0.289199978,0.165099993,,,1.839899898,-0.122599997,9.631699562,,,787,0.784499884,-0.411799975,9.796799555
1.683E+18,15.77905811,-0.709299982,-0.112199999,-0.712300003,,,1.915499926,-0.132799998,9.616799355,,,788,1.206199944,-0.244999997,8.904499352
1.683E+18,15.79905811,-0.94749999,0.071899995,-1.203799963,,,1.957499981,-0.150399998,9.608099937,,,789,1.00999999,-0.078500003,8.404299974
1.683E+18,15.81905811,-1.300799966,0.378899992,-1.597599983,,,1.947999954,-0.172999993,9.609600067,,,790,0.647199988,0.205899999,8.012000084
1.683E+18,15.83905811,-1.150399923,0.824099958,-1.758399963,,,1.925099969,-0.20629999,9.613599777,,,791,0.774700046,0.617799968,7.855199814
1.683E+18,15.85905811,-0.818499982,1.132699966,-1.700199962,,,1.916799903,-0.250099987,9.614199638,,,792,1.098299921,0.88259998,7.913999677
1.683E+18,15.87905811,-0.775599957,1.173099995,-1.896199942,,,1.913199902,-0.280699998,9.614099503,,,793,1.137599945,0.892399997,7.717899561
1.683E+18,15.89905811,-0.938600004,0.925999999,-2.416499853,,,1.909399986,-0.288599998,9.614600182,,,794,0.970799983,0.637400001,7.198100328
1.683E+18,15.91905957,-0.893000007,0.544799984,-2.45720005,,,1.903099895,-0.280000001,9.616099358,,,795,1.010099888,0.264799982,7.158899307
1.683E+18,15.93905811,-0.655399978,0.369100004,-2.018599987,,,1.89109993,-0.270999998,9.618700027,,,796,1.235699952,0.098100007,7.60010004
1.683E+18,15.95905811,-0.437599987,0.420299977,-1.599099994,,,1.879199982,-0.273200005,9.620999336,,,797,1.441599995,0.147099972,8.021899343
1.683E+18,15.97905811,-0.522599995,0.5704,-2.129199982,,,1.875899911,-0.276199996,9.621500015,,,798,1.353299916,0.294200003,7.492300034
1.683E+18,15.99905811,-0.91869998,0.539999962,-3.0072999,,,1.899399996,-0.275299996,9.616999626,,,799,0.980700016,0.264699966,6.609699726
1.683E+18,16.01905811,-1.13319993,0.372199982,-2.715299845,,,1.937299967,-0.274199992,9.609399796,,,800,0.804100037,0.09799999,6.894099951
1.683E+18,16.0390564,-1.3398,0.449699998,-1.761699915,,,1.947799921,-0.282999992,9.606999397,,,801,0.607999921,0.166700006,7.845299482
1.683E+18,16.05905811,-1.228399992,0.89199996,-1.214599967,,,1.934399962,-0.303599983,9.609099388,,,802,0.70599997,0.588399976,8.394499421
1.683E+18,16.07905811,-1.453400016,1.264400005,-1.559299946,,,1.924199939,-0.322999984,9.610499382,,,803,0.470799923,0.941400021,8.051199436
1.683E+18,16.09905811,-1.519500017,1.095199943,-2.585599899,,,1.941199899,-0.320499986,9.607199669,,,804,0.421699882,0.774699956,7.02159977
1.683E+18,16.11905811,-1.139999986,0.64230001,-2.9993999,,,1.983399987,-0.299099982,9.599299431,,,805,0.843400002,0.343200028,6.59989953
1.683E+18,16.1390564,-0.307999998,0.1087,-1.608799934,,,2.024199963,-0.275399983,9.591499329,,,806,1.716199964,-0.166699983,7.982699394
1.683E+18,16.15905811,0.472299993,-0.084199995,1.547399998,,,2.018499851,-0.268700004,9.59280014,,,807,2.490799844,-0.352899998,11.14020014
1.683E+18,16.17905811,1.069499969,-0.0005,4.82310009,,,1.970499992,-0.283800006,9.602399826,,,808,3.039999962,-0.284300006,14.42549992
1.683E+18,16.19905811,1.394400001,0.0068,6.380199909,,,1.910399914,-0.291199982,9.614299774,,,809,3.304799914,-0.284399983,15.99449968
1.683E+18,16.21905811,1.317299962,-0.254299998,5.894799709,,,1.889400005,-0.265399992,9.619199753,,,810,3.206699967,-0.519699991,15.51399946
1.683E+18,16.23905811,1.298200011,-0.873600006,5.028199673,,,1.92809999,-0.204999998,9.612999916,,,811,3.226300001,-1.078600004,14.64119959
1.683E+18,16.2590564,1.49849999,-1.777099967,5.683300018,,,1.972899914,-0.135099992,9.605099678,,,812,3.471399903,-1.912199959,15.2883997
1.683E+18,16.27905811,1.025099993,-1.556999922,5.693099976,,,1.975699902,-0.080600001,9.605199814,,,813,3.000799894,-1.637599923,15.29829979
1.683E+18,16.29905811,0.31279999,-0.84679997,3.985799789,,,1.972000003,-0.055299997,9.606100082,,,814,2.284799993,-0.902099967,13.59189987
1.683E+18,16.31905811,0.0385,-0.613200009,2.253900051,,,1.991299987,-0.0339,9.602199554,,,815,2.029799987,-0.647100009,11.85609961
1.683E+18,16.33905811,0.526300013,-0.634299994,1.02699995,,,2.03309989,-0.022599999,9.593500137,,,816,2.559399903,-0.656899992,10.62050009
1.683E+18,16.35905811,0.409699976,-0.325399995,-0.147,,,2.090899944,-0.0374,9.580999374,,,817,2.500599921,-0.362799995,9.433999375
1.683E+18,16.37905811,-0.313799977,0.122099996,-0.844699979,,,2.128000021,-0.073100001,9.572599411,,,818,1.814200044,0.048999995,8.727899432
1.683E+18,16.39905811,-1.028900027,0.416299999,-1.168099999,,,2.127300024,-0.112299994,9.572400093,,,819,1.098399997,0.304000005,8.404300094
1.683E+18,16.41905811,-1.254799962,0.608999968,-1.250299931,,,2.10800004,-0.148100004,9.576199532,,,820,0.853200078,0.460899964,8.325899601
1.683E+18,16.43905811,-1.232299924,0.52759999,-1.321399927,,,2.095200062,-0.17459999,9.57859993,,,821,0.862900138,0.353,8.257200003
1.683E+18,16.45905811,-1.265299916,0.0854,-1.5970999,,,2.088999987,-0.183499992,9.579699516,,,822,0.82370007,-0.098099992,7.982599616
1.683E+18,16.47905811,-1.279500008,-0.446500003,-1.97329998,,,2.073799849,-0.171299994,9.583299637,,,823,0.794299841,-0.617799997,7.609999657
1.683E+18,16.49905811,-1.09829998,-0.909399986,-2.20449996,,,2.049499989,-0.149599999,9.588899612,,,824,0.951200008,-1.058999985,7.384399652
1.683E+18,16.51905811,-0.974999964,-1.23210001,-2.462999821,,,2.034100056,-0.130999997,9.592399597,,,825,1.059100091,-1.363100007,7.129399776
1.683E+18,16.5390564,-0.562599957,-1.245000005,-2.443500042,,,2.033599854,-0.127800003,9.592599869,,,826,1.470999897,-1.372800007,7.149099827
1.683E+18,16.55905811,-0.0198,-0.846300006,-1.788899899,,,2.020299911,-0.153799996,9.594999313,,,827,2.000499912,-1.000100002,7.806099415
1.683E+18,16.57905811,0.441699982,-0.380599976,-1.531599998,,,1.980399966,-0.197899997,9.602499962,,,828,2.422099948,-0.578499973,8.070899963
1.683E+18,16.59905811,0.422499985,0.090499997,-1.921000004,,,1.940799952,-0.247400001,9.609399796,,,829,2.363299936,-0.156900004,7.688399792
1.683E+18,16.61905811,0.397899985,0.3222,-2.530699968,,,1.926099896,-0.292799979,9.611100197,,,830,2.323999882,0.029400021,7.080400229
1.683E+18,16.6390564,0.51669997,0.597299993,-2.517499924,,,1.93479991,-0.342299998,9.607699394,,,831,2.451499879,0.254999995,7.090199471
1.683E+18,16.65905811,0.243099988,0.916499972,-2.229199886,,,1.943699956,-0.396799982,9.60379982,,,832,2.186799943,0.519699991,7.374599934
1.683E+18,16.67905811,-0.369299978,1.21209991,-2.324199915,,,1.948199987,-0.4472,9.600699425,,,833,1.578900009,0.764899909,7.27649951
1.683E+18,16.6990564,-0.79549998,1.272499919,-2.360999823,,,1.9526999,-0.478100002,9.59829998,,,834,1.157199919,0.794399917,7.237300158
1.683E+18,16.7190564,-0.410099983,0.475400001,-0.252299994,,,1.949799895,-0.494999975,9.597999573,,,835,1.539699912,-0.019599974,9.345699579
1.683E+18,16.73905811,1.239499927,-0.486499995,4.250799656,,,1.90839994,-0.503899992,9.605899811,,,836,3.147899866,-0.990399987,13.85669947
1.683E+18,16.7590564,1.85739994,-0.207399994,7.465600014,,,1.790599942,-0.527999997,9.627299309,,,837,3.647999883,-0.735399991,17.09289932
1.683E+18,16.77905811,2.090199947,-0.265699983,6.100800037,,,1.724499941,-0.538399994,9.638699532,,,838,3.814699888,-0.804099977,15.73949957
1.683E+18,16.79905811,1.746999979,-0.655200005,4.426499844,,,1.802899957,-0.501800001,9.626399994,,,839,3.549899936,-1.157000005,14.05289984
1.683E+18,16.81905811,1.675399899,-1.384199977,3.908799887,,,1.923499942,-0.469099998,9.604599953,,,840,3.598899841,-1.853299975,13.51339984
1.683E+18,16.83905811,0.619599998,-2.058099985,3.896099806,,,2.057499886,-0.442499995,9.578100204,,,841,2.677099884,-2.50059998,13.47420001
1.683E+18,16.85905811,-0.957499981,-1.793299913,3.615700006,,,2.124500036,-0.422899991,9.564399719,,,842,1.167000055,-2.216199905,13.18009973
1.683E+18,16.87905811,-2.19569993,-1.076900005,2.993000031,,,2.146699905,-0.423399985,9.559399605,,,843,-0.049000025,-1.50029999,12.55239964
1.683E+18,16.89905811,-3.002699852,-0.539399981,1.662499905,,,2.15929985,-0.431400001,9.556200027,,,844,-0.843400002,-0.970799983,11.21869993
1.683E+18,16.91905811,-2.785599947,-0.423299998,0.612399995,,,2.19720006,-0.439599991,9.547200203,,,845,-0.588399887,-0.862899989,10.1596002
1.683E+18,16.93905811,-2.224400043,-0.441199988,0.141000003,,,2.234200001,-0.451099992,9.538000107,,,846,0.009799957,-0.89229998,9.679000109
1.683E+18,16.95905811,-1.785099983,-0.422699988,0.174099997,,,2.246000051,-0.469599992,9.534399986,,,847,0.460900068,-0.89229998,9.708499983
1.683E+18,16.97905811,-1.411899924,-0.18599999,0.0528,,,2.225899935,-0.49059999,9.538000107,,,848,0.81400001,-0.676599979,9.590800107
1.683E+18,16.99905957,-1.126999974,-0.037900001,-0.315799981,,,2.195899963,-0.511200011,9.543899536,,,849,1.068899989,-0.549100012,9.228099555
1.683E+18,17.01905957,-0.835399985,0.0502,-0.504999995,,,2.178900003,-0.530799985,9.546699524,,,850,1.343500018,-0.480599985,9.041699529
1.683E+18,17.03905811,-0.528199971,0.060399998,-0.514400005,,,2.175699949,-0.550700009,9.546299934,,,851,1.647499979,-0.490300011,9.031899929
1.683E+18,17.05905811,-0.549300015,-0.1096,-0.768099964,,,2.177199841,-0.566900015,9.545000076,,,852,1.627899826,-0.676500015,8.776900113
1.683E+18,17.07905811,-0.765199959,-0.206399992,-1.247900009,,,2.177299976,-0.578000009,9.544300079,,,853,1.412100017,-0.784400001,8.29640007
1.683E+18,17.09905811,-0.862299979,-0.335799992,-1.590299964,,,2.176399946,-0.595699966,9.543499947,,,854,1.314099967,-0.931499958,7.953199983
1.683E+18,17.11905811,-0.987699986,-0.036800001,-1.549299955,,,2.174299955,-0.629899979,9.541699409,,,855,1.18659997,-0.666699979,7.992399454
1.683E+18,17.1390564,-1.141199946,0.379999995,-0.99939996,,,2.161099911,-0.683999956,9.540999413,,,856,1.019899964,-0.30399996,8.541599452
1.683E+18,17.15905811,-1.140900016,0.741299987,-0.51910001,,,2.14109993,-0.741299987,9.541199684,,,857,1.000199914,0,9.022099674
1.683E+18,17.17905811,-0.924299955,0.791700006,-0.137199998,,,2.120699883,-0.791700006,9.541699409,,,858,1.196399927,0,9.404499412
1.683E+18,17.19905811,-0.585999966,0.745499969,0.02,,,2.105999947,-0.833799958,9.541399956,,,859,1.519999981,-0.08829999,9.561399955
1.683E+18,17.2190564,-0.371199995,0.833899975,0.062899999,,,2.106999874,-0.873099983,9.537699699,,,860,1.735799879,-0.039200008,9.600599699
1.683E+18,17.23905811,-0.481699973,0.943899989,0.39319998,,,2.119400024,-0.914499998,9.531000137,,,861,1.637700051,0.029399991,9.924200118
1.683E+18,17.2590564,-0.553299963,1.130499959,0.838999987,,,2.122400045,-0.95389998,9.526499748,,,862,1.569100082,0.176599979,10.36549973
