time,seconds_elapsed,z,y,x
1683008633115399700,0.021399658203125,1.1251999139785767,-0.4391999840736389,1.5877000093460083
1683008633135402800,0.04140283203125,1.1251999139785767,-0.4391999840736389,1.5877000093460083
1683008633155407600,0.06140771484375,1.1251999139785767,-0.4391999840736389,1.5877000093460083
1683008633175399700,0.081399658203125,0.06030000001192093,-0.03319999948143959,0.5947999954223633
1683008633195402800,0.10140283203125,0.520799994468689,0.09200000017881393,0.19359999895095825
1683008633215402800,0.12140283203125,0.4764999747276306,0.07180000096559525,-0.1225999966263771
1683008633235399700,0.141399658203125,0.21629999577999115,-0.1266999989748001,-0.056599996984004974
1683008633255401200,0.161401123046875,0.17669999599456787,-0.06319999694824219,-0.08999999612569809
1683008633275399700,0.181399658203125,0.44919997453689575,0.014399999752640724,-0.19990000128746033
1683008633295399700,0.201399658203125,0.31919997930526733,0.08779999613761902,-0.15320000052452087
1683008633315399700,0.221399658203125,0.3414999842643738,0.07050000131130219,0.21279999613761902
1683008633335401200,0.241401123046875,0.412200003862381,0.23519998788833618,0.09259999543428421
1683008633355399700,0.261399658203125,0.0925000011920929,0.27969998121261597,-0.09799999743700027
1683008633375402800,0.28140283203125,-0.07809999585151672,0.2141999900341034,-0.006599999964237213
1683008633395399700,0.301399658203125,0.2466999888420105,0.1946999877691269,-0.04209999740123749
1683008633415401200,0.321401123046875,0.4147000014781952,0.21209999918937683,0.13529999554157257
1683008633435402800,0.34140283203125,0.5440999865531921,0.3861999809741974,0.3912999927997589
1683008633455402800,0.36140283203125,0.4391999840736389,0.4684000015258789,0.6161999702453613
1683008633475402800,0.38140283203125,0.2574000060558319,0.3563999831676483,0.4032999873161316
1683008633495402800,0.40140283203125,0.003599999938160181,0.599299967288971,-0.25679999589920044
1683008633515399700,0.421399658203125,-0.10700000077486038,0.6865999698638916,-0.5449999570846558
1683008633535399700,0.441399658203125,0.02329999953508377,0.5399999618530273,-0.3912999927997589
1683008633555399700,0.461399658203125,0.21729999780654907,0.5579000115394592,-0.39890000224113464
1683008633575399700,0.481399658203125,-0.12799999117851257,0.5898000001907349,-0.4811999797821045
1683008633595402800,0.50140283203125,-0.2809000015258789,0.28839999437332153,-0.20909999310970306
1683008633615401200,0.521401123046875,-0.22659999132156372,0.17409999668598175,-0.2750999927520752
1683008633635402800,0.54140283203125,-0.05939999967813492,0.17430000007152557,-0.37619999051094055
1683008633655399700,0.561399658203125,0.344899982213974,-0.10359999537467957,0.2742999792098999
1683008633675402800,0.58140283203125,0.663599967956543,0.03819999843835831,0.4553000032901764
1683008633695402800,0.60140283203125,0.880899965763092,0.11140000075101852,0.6484999656677246
1683008633715399700,0.621399658203125,0.9706999659538269,0.06269999593496323,0.9714999794960022
1683008633735402800,0.64140283203125,0.6926000118255615,0.42329999804496765,0.48240000009536743
1683008633755402800,0.66140283203125,0.43539997935295105,0.557699978351593,-0.30329999327659607
1683008633775399700,0.681399658203125,0.33159998059272766,0.5246999859809875,-0.9246000051498413
1683008633795399700,0.701399658203125,0.31209999322891235,0.4197999835014343,-0.9934999942779541
1683008633815399700,0.721399658203125,0.09039999544620514,0.23479999601840973,-0.6171999573707581
1683008633835399700,0.741399658203125,0.012199999764561653,0.09849999845027924,-0.15439999103546143
1683008633855402800,0.76140283203125,0.21239998936653137,0.4348999857902527,-0.23879998922348022
1683008633875402800,0.78140283203125,0.19449999928474426,0.8958999514579773,-0.1551000028848648
1683008633895399700,0.801399658203125,0.05040000006556511,0.8759999871253967,0.3560999929904938
1683008633915399700,0.821399658203125,-0.0050999997183680534,1.3382999897003174,0.2377999871969223
1683008633935402800,0.84140283203125,-0.058799996972084045,1.337499976158142,-0.13939999043941498
1683008633955399700,0.861399658203125,-0.15189999341964722,1.04830002784729,-0.1995999962091446
1683008633975401200,0.881401123046875,-0.05089999735355377,0.8930999636650085,-0.20919999480247498
1683008633995402800,0.90140283203125,0.18889999389648438,0.8356999754905701,0.039400000125169754
1683008634015402800,0.92140283203125,0.5626999735832214,0.8414999842643738,0.34619998931884766
1683008634035399700,0.941399658203125,0.9075999855995178,0.9259999990463257,0.5625999569892883
1683008634055402800,0.96140283203125,1.1955000162124634,0.9152999520301819,1.1971999406814575
1683008634075399700,0.981399658203125,1.4769999980926514,1.3632999658584595,1.5428999662399292
1683008634095399700,1.001399658203125,0.6764999628067017,1.542799949645996,1.6109999418258667
1683008634115401200,1.021401123046875,-0.39139997959136963,1.0240999460220337,1.1725999116897583
1683008634135399700,1.041399658203125,-1.0999000072479248,-0.016599999740719795,1.4947999715805054
1683008634155399700,1.061399658203125,-0.6118999719619751,-1.0774999856948853,3.331199884414673
1683008634175399700,1.081399658203125,0.41029998660087585,-1.536099910736084,5.40310001373291
1683008634195402800,1.10140283203125,1.046199917793274,-1.122399926185608,3.5971999168395996
1683008634215402800,1.12140283203125,0.9289999604225159,-0.15330000221729279,-0.6218999624252319
1683008634235399700,1.141399658203125,0.4147000014781952,0.3154999911785126,-2.3705999851226807
1683008634255401200,1.161401123046875,0.17149999737739563,-0.032499998807907104,-0.5216999650001526
1683008634275399700,1.181399658203125,0.6746000051498413,-0.7391999959945679,2.0135998725891113
1683008634295402800,1.20140283203125,-0.6148999929428101,-0.7893999814987183,2.092599868774414
1683008634315402800,1.22140283203125,-1.1100000143051147,-0.7667999863624573,0.0037999998312443495
1683008634335401200,1.241401123046875,-0.3041999936103821,-1.392300009727478,-0.38099998235702515
1683008634355399700,1.261399658203125,0.6215999722480774,-2.059499979019165,0.11329999566078186
1683008634375399700,1.281399658203125,0.9071999788284302,-1.8598999977111816,0.04010000079870224
1683008634395399700,1.301399658203125,0.26479998230934143,-1.9316999912261963,-0.2842999994754791
1683008634415401200,1.321401123046875,-0.5557000041007996,-1.5121999979019165,-0.8628999590873718
1683008634435399700,1.341399658203125,-1.2172999382019043,-1.539699912071228,-1.0464999675750732
1683008634455399700,1.361399658203125,-1.3950999975204468,-1.3767999410629272,-1.271799921989441
1683008634475401200,1.381401123046875,-1.865399956703186,-1.2829999923706055,-1.4917999505996704
1683008634495402800,1.40140283203125,-1.743299961090088,-1.0985000133514404,-1.5252999067306519
1683008634515402800,1.42140283203125,-1.1327999830245972,-0.8205999732017517,-1.4785000085830688
1683008634535399700,1.441399658203125,-1.048799991607666,-0.6143999695777893,-1.5340999364852905
1683008634555401200,1.461401123046875,-0.9740999937057495,-0.28290000557899475,-1.274399995803833
1683008634575402800,1.48140283203125,-1.2862999439239502,-0.11259999871253967,-1.014799952507019
1683008634595402800,1.50140283203125,-1.4532999992370605,-0.026999998837709427,-0.9037999510765076
1683008634615401200,1.521401123046875,-1.3452999591827393,0.03059999831020832,-1.0814999341964722
1683008634635399700,1.541399658203125,-1.1033999919891357,0.0478999987244606,-1.2013999223709106
1683008634655399700,1.561399658203125,-1.013800024986267,0.23809999227523804,-0.8917999863624573
1683008634675399700,1.581399658203125,-0.9759999513626099,0.41040000319480896,-0.09719999879598618
1683008634695399700,1.601399658203125,-0.7547999620437622,0.6309999823570251,0.8425999879837036
1683008634715399700,1.621399658203125,-0.41589999198913574,0.5543000102043152,1.3377999067306519
1683008634735399700,1.641399658203125,-0.0689999982714653,0.5641999840736389,1.771299958229065
1683008634755401200,1.661401123046875,-0.003599999938160181,0.4608999788761139,1.8430999517440796
1683008634775399700,1.681399658203125,-0.16920000314712524,0.16979999840259552,1.5356999635696411
1683008634795402800,1.70140283203125,-0.11409999430179596,-0.6473000049591064,1.3136999607086182
1683008634815402800,1.72140283203125,0.620199978351593,-1.3321999311447144,1.9636999368667603
1683008634835401200,1.741401123046875,1.5343999862670898,-1.1442999839782715,2.184299945831299
1683008634855399700,1.761399658203125,2.0137999057769775,-0.6556000113487244,2.1854000091552734
1683008634875402800,1.78140283203125,1.3594999313354492,-0.2533999979496002,2.059799909591675
1683008634895402800,1.80140283203125,0.6862999796867371,-0.5892999768257141,2.197399854660034
1683008634915401200,1.821401123046875,1.045300006866455,-1.2371000051498413,2.9445998668670654
1683008634935399700,1.841399658203125,1.7741999626159668,-1.5228999853134155,3.304999828338623
1683008634955399700,1.861399658203125,1.6744999885559082,-1.6093999147415161,2.51639986038208
1683008634975401200,1.881401123046875,0.9512999653816223,-1.660499930381775,1.0317000150680542
1683008634995399700,1.901399658203125,0.09109999984502792,-1.7322999238967896,-0.6807000041007996
1683008635015399700,1.921399658203125,-0.9865999817848206,-1.9241999387741089,-1.8954999446868896
1683008635035399700,1.941399658203125,-1.989799976348877,-2.174999952316284,-2.5074000358581543
1683008635055401200,1.961401123046875,-2.2014000415802,-2.1476998329162598,-2.482599973678589
1683008635075399700,1.981399658203125,-1.805799961090088,-1.7352999448776245,-2.2284998893737793
1683008635095399700,2.001399658203125,-1.0592999458312988,-1.205399990081787,-1.7824000120162964
1683008635115401200,2.021401123046875,-0.36329999566078186,-0.793999969959259,-1.5324000120162964
1683008635135399700,2.041399658203125,0.003399999812245369,-0.6958000063896179,-1.347999930381775
1683008635155402800,2.06140283203125,0.0625,-0.63919997215271,-1.347499966621399
1683008635175402800,2.08140283203125,0.07349999994039536,-0.6712999939918518,-1.055299997329712
1683008635195399700,2.101399658203125,0.043699998408555984,-0.5907999873161316,-1.1346999406814575
1683008635215399700,2.121399658203125,0.00930000003427267,-0.4599999785423279,-1.3761999607086182
1683008635235402800,2.14140283203125,0.03009999915957451,-0.21289999783039093,-1.5085999965667725
1683008635255402800,2.16140283203125,-0.004799999762326479,0.004299999680370092,-1.2985999584197998
1683008635275399700,2.181399658203125,0.08150000125169754,0.05309999734163284,-0.7168999910354614
1683008635295399700,2.201399658203125,0.5705999732017517,0.003499999875202775,0.7216999530792236
1683008635315399700,2.221399658203125,1.32069993019104,-0.05790000036358833,2.3687000274658203
1683008635335401200,2.241401123046875,1.5519999265670776,-0.11009999364614487,2.9868998527526855
1683008635355399700,2.261399658203125,1.3229999542236328,-0.204599991440773,2.234499931335449
1683008635375399700,2.281399658203125,1.3616999387741089,-0.7006999850273132,2.182299852371216
1683008635395399700,2.301399658203125,1.4711999893188477,-1.044600009918213,3.2121999263763428
1683008635415401200,2.321401123046875,1.0310999155044556,-0.8078999519348145,3.2266998291015625
1683008635435399700,2.341399658203125,0.1501999944448471,-0.3398999869823456,1.9589999914169312
1683008635455399700,2.361399658203125,-0.33869999647140503,0.05139999836683273,-0.4514999985694885
1683008635475402800,2.38140283203125,-0.07859999686479568,-0.19629999995231628,-1.320199966430664
1683008635495402800,2.40140283203125,0.35839998722076416,-0.6977999806404114,0.1695999950170517
1683008635515399700,2.421399658203125,0.3270999789237976,-0.9726999998092651,2.2342000007629395
1683008635535402800,2.44140283203125,-0.3398999869823456,-1.0246000289916992,2.912099838256836
1683008635555402800,2.46140283203125,-0.3610000014305115,-1.2447999715805054,1.9458999633789062
1683008635575399700,2.481399658203125,0.14739999175071716,-1.5202999114990234,0.9346999526023865
1683008635595399700,2.501399658203125,0.21169999241828918,-1.532099962234497,-0.03959999978542328
1683008635615401200,2.521401123046875,-0.6032999753952026,-1.528499960899353,-0.929099977016449
1683008635635399700,2.541399658203125,-1.5544999837875366,-1.4412999153137207,-1.4746999740600586
1683008635655399700,2.561399658203125,-2.0778000354766846,-1.4499999284744263,-1.7906999588012695
1683008635675402800,2.58140283203125,-2.0851998329162598,-1.2738999128341675,-1.9893999099731445
1683008635695399700,2.601399658203125,-1.7626999616622925,-0.9610999822616577,-1.973099946975708
1683008635715399700,2.621399658203125,-1.4091999530792236,-0.7656999826431274,-1.8238999843597412
1683008635735399700,2.641399658203125,-0.8888999819755554,-0.5708000063896179,-1.8226999044418335
1683008635755401200,2.661401123046875,-0.34619998931884766,-0.43949997425079346,-1.7706999778747559
1683008635775399700,2.681399658203125,0.1314999908208847,-0.17090000212192535,-1.580199956893921
1683008635795399700,2.701399658203125,-0.06539999693632126,0.020600000396370888,-1.5667999982833862
1683008635815399700,2.721399658203125,-0.5234000086784363,0.11959999799728394,-1.5965999364852905
1683008635835401200,2.741401123046875,-0.839199960231781,0.34219998121261597,-1.5398999452590942
1683008635855399700,2.761399658203125,-1.0348999500274658,0.6419000029563904,-1.2688000202178955
1683008635875399700,2.781399658203125,-1.2587999105453491,0.8935999870300293,-0.7723999619483948
1683008635895399700,2.801399658203125,-1.1155999898910522,1.0467000007629395,0.10209999978542328
1683008635915401200,2.821401123046875,-0.6482999920845032,1.208299994468689,1.032599925994873
1683008635935399700,2.841399658203125,-0.04779999703168869,1.1725999116897583,1.7366999387741089
1683008635955399700,2.861399658203125,0.5722000002861023,0.9700999855995178,1.9772999286651611
1683008635975401200,2.881401123046875,0.9181999564170837,0.6265000104904175,1.5835999250411987
1683008635995402800,2.90140283203125,0.8482999801635742,-0.07459999620914459,1.642799973487854
1683008636015402800,2.92140283203125,1.4763000011444092,-0.5108000040054321,2.6396000385284424
1683008636035399700,2.941399658203125,1.7008999586105347,-0.597000002861023,3.360599994659424
1683008636055402800,2.96140283203125,1.6007999181747437,-0.35510000586509705,3.381899833679199
1683008636075402800,2.98140283203125,1.11080002784729,0.022499999031424522,2.186199903488159
1683008636095399700,3.001399658203125,0.6645999550819397,-0.5756999850273132,1.5329999923706055
1683008636115402800,3.02140283203125,1.236799955368042,-1.5865999460220337,2.4079999923706055
1683008636135399700,3.041399658203125,1.965399980545044,-2.106799840927124,2.907099962234497
1683008636155399700,3.061399658203125,1.5512999296188354,-2.1053998470306396,2.3912999629974365
1683008636175399700,3.081399658203125,0.8149999976158142,-1.9452999830245972,0.8947999477386475
1683008636195399700,3.101399658203125,-0.022299999371170998,-1.6071999073028564,-0.6662999987602234
1683008636215399700,3.121399658203125,-1.3507000207901,-1.5504000186920166,-1.75
1683008636235399700,3.141399658203125,-2.7376999855041504,-1.510699987411499,-2.405099868774414
1683008636255399700,3.161399658203125,-2.994499921798706,-1.257099986076355,-2.276900053024292
1683008636275399700,3.181399658203125,-2.1257998943328857,-0.8865000009536743,-1.8350999355316162
1683008636295402800,3.20140283203125,-0.9485999941825867,-0.5289999842643738,-1.6595999002456665
1683008636315399700,3.221399658203125,0.053999997675418854,-0.28619998693466187,-1.2853999137878418
1683008636335401200,3.241401123046875,0.4368000030517578,-0.1379999965429306,-1.0180000066757202
1683008636355399700,3.261399658203125,0.1832999885082245,-0.19129998981952667,-0.8190999627113342
1683008636375399700,3.281399658203125,0.014699999243021011,-0.22429999709129333,-0.4258999824523926
1683008636395399700,3.301399658203125,0.012199999764561653,-0.14829999208450317,-0.36579999327659607
1683008636415402800,3.32140283203125,-0.12299999594688416,-0.11580000072717667,-0.8792999982833862
1683008636435402800,3.34140283203125,-0.22029998898506165,-0.21939998865127563,-1.398800015449524
1683008636455399700,3.361399658203125,-0.18729999661445618,-0.19999998807907104,-1.2818999290466309
1683008636475401200,3.381401123046875,0.2329999953508377,-0.0210999995470047,-0.43459999561309814
1683008636495399700,3.401399658203125,0.7166000008583069,0.07989999651908875,0.8068999648094177
1683008636515399700,3.421399658203125,1.132599949836731,0.04999999701976776,1.924899935722351
1683008636535399700,3.441399658203125,1.3729000091552734,-0.02709999866783619,2.2784998416900635
1683008636555399700,3.461399658203125,1.0694999694824219,-0.17749999463558197,1.3971999883651733
1683008636575399700,3.481399658203125,0.6064000129699707,-0.4077000021934509,0.4796999990940094
1683008636595399700,3.501399658203125,0.9318999648094177,-0.9149999618530273,1.5054999589920044
1683008636615401200,3.521401123046875,1.3895000219345093,-0.9363999962806702,3.0804998874664307
1683008636635402800,3.54140283203125,1.2269999980926514,-0.7576999664306641,3.120499849319458
1683008636655399700,3.561399658203125,1.1662999391555786,-0.41679999232292175,1.5626999139785767
1683008636675402800,3.58140283203125,0.8733999729156494,-0.385699987411499,-0.48339998722076416
1683008636695402800,3.60140283203125,0.6901999711990356,-0.6848999857902527,-0.39719998836517334
1683008636715399700,3.621399658203125,-0.00139999995008111,-0.8729999661445618,1.017799973487854
1683008636735399700,3.641399658203125,-1.3361999988555908,-0.9648999571800232,1.580899953842163
1683008636755402800,3.66140283203125,-1.9052000045776367,-1.2725999355316162,1.4915000200271606
1683008636775402800,3.68140283203125,-0.8366000056266785,-1.392199993133545,0.835599958896637
1683008636795399700,3.701399658203125,0.06279999762773514,-1.205399990081787,0.008299999870359898
1683008636815399700,3.721399658203125,-0.21409998834133148,-0.9980999827384949,-0.9401999711990356
1683008636835401200,3.741401123046875,-0.895799994468689,-0.8458999991416931,-1.4910999536514282
1683008636855399700,3.761399658203125,-1.449299931526184,-0.8269999623298645,-1.7835999727249146
1683008636875399700,3.781399658203125,-1.8084999322891235,-0.7705000042915344,-1.94159996509552
1683008636895399700,3.801399658203125,-1.61489999294281,-0.49079999327659607,-1.7188999652862549
1683008636915401200,3.821401123046875,-1.3596999645233154,-0.12929999828338623,-1.4614999294281006
1683008636935399700,3.841399658203125,-1.2608000040054321,0.06509999930858612,-1.2369999885559082
1683008636955399700,3.861399658203125,-1.1626999378204346,0.2802000045776367,-1.2078999280929565
1683008636975401200,3.881401123046875,-1.1115999221801758,0.3301999866962433,-1.2740999460220337
1683008636995402800,3.90140283203125,-0.9978999495506287,0.4447000026702881,-1.3086999654769897
1683008637015402800,3.92140283203125,-1.0328999757766724,0.6265999674797058,-1.2739999294281006
1683008637035399700,3.941399658203125,-1.2340999841690063,0.8550999760627747,-1.229599952697754
1683008637055401200,3.961401123046875,-1.4570999145507812,1.010200023651123,-1.0959999561309814
1683008637075399700,3.981399658203125,-1.0139999389648438,1.0684999227523804,-0.28540000319480896
1683008637095399700,4.001399658203125,-0.3572999835014343,0.98089998960495,0.81659996509552
1683008637115401200,4.021401123046875,0.18439999222755432,1.0285999774932861,1.7282999753952026
1683008637135399700,4.041399658203125,0.27799999713897705,1.2001999616622925,2.2174999713897705
1683008637155399700,4.061399658203125,-0.21359999477863312,1.1576999425888062,1.8501999378204346
1683008637175399700,4.081399658203125,-0.5329999923706055,0.6570999622344971,0.9957999587059021
1683008637195399700,4.101399658203125,0.042399998754262924,-0.11719999462366104,0.8384999632835388
1683008637215399700,4.121399658203125,0.9850999712944031,-0.608299970626831,1.646899938583374
1683008637235402800,4.14140283203125,1.7293999195098877,-0.7182999849319458,2.5020999908447266
1683008637255404300,4.161404296875,1.5286999940872192,-0.7372999787330627,2.1106998920440674
1683008637275399700,4.181399658203125,0.9192000031471252,-1.1088999509811401,1.5550999641418457
1683008637295399700,4.201399658203125,1.0647000074386597,-2.0074000358581543,2.304299831390381
1683008637315399700,4.221399658203125,1.9603999853134155,-2.4445998668670654,3.9423999786376953
1683008637335399700,4.241399658203125,2.1654999256134033,-2.469599962234497,4.292900085449219
1683008637355399700,4.261399658203125,1.566100001335144,-2.441699981689453,2.684999942779541
1683008637375399700,4.281399658203125,1.0135999917984009,-2.501199960708618,0.5472999811172485
1683008637395399700,4.301399658203125,0.3700000047683716,-2.36929988861084,-1.6535999774932861
1683008637415401200,4.321401123046875,-0.5324000120162964,-2.2771999835968018,-2.9217000007629395
1683008637435399700,4.341399658203125,-1.4327999353408813,-2.065500020980835,-3.1308999061584473
1683008637455399700,4.361399658203125,-1.715499997138977,-1.4781999588012695,-2.5169999599456787
1683008637475401200,4.381401123046875,-1.336300015449524,-0.8461999893188477,-1.5317000150680542
1683008637495399700,4.401399658203125,-0.5429999828338623,-0.11349999904632568,-0.736799955368042
1683008637515399700,4.421399658203125,-0.28459998965263367,0.3440999984741211,-0.3244999945163727
1683008637535399700,4.441399658203125,-0.24009999632835388,0.5091999769210815,-0.49229997396469116
1683008637555399700,4.461399658203125,0.0017999999690800905,0.35429999232292175,-0.8452000021934509
1683008637575399700,4.481399658203125,-0.03150000050663948,0.03059999831020832,-1.3503999710083008
1683008637595399700,4.501399658203125,-0.08559999614953995,-0.23499999940395355,-1.9333999156951904
1683008637615402800,4.52140283203125,0.04050000011920929,-0.1559000015258789,-2.0536999702453613
1683008637635399700,4.541399658203125,-0.001999999862164259,0.18410000205039978,-1.5787999629974365
1683008637655399700,4.561399658203125,-0.15469999611377716,0.46480000019073486,-0.711899995803833
1683008637675399700,4.581399658203125,0.28929999470710754,0.5464999675750732,0.33489999175071716
1683008637695399700,4.601399658203125,1.148800015449524,0.5110999941825867,1.3513000011444092
1683008637715402800,4.62140283203125,1.7275999784469604,0.4772000014781952,2.072700023651123
1683008637735402800,4.64140283203125,1.5935999155044556,0.4292999804019928,1.8944000005722046
1683008637755401200,4.661401123046875,0.7968999743461609,0.30879998207092285,0.9048999547958374
1683008637775401200,4.681401123046875,0.3872999846935272,-0.2076999992132187,0.8655999898910522
1683008637795399700,4.701399658203125,0.7854999899864197,-0.541700005531311,1.9950000047683716
1683008637815399700,4.721399658203125,0.8552999496459961,-0.20469999313354492,2.4515998363494873
1683008637835401200,4.741401123046875,0.3271999955177307,-0.11569999903440475,1.7348999977111816
1683008637855399700,4.761399658203125,0.3100999891757965,-0.09290000051259995,0.27309998869895935
1683008637875399700,4.781399658203125,0.210999995470047,-0.2590000033378601,-1.1345000267028809
1683008637895399700,4.801399658203125,0.5735999941825867,-0.723800003528595,-0.7343999743461609
1683008637915401200,4.821401123046875,1.32069993019104,-0.8248999714851379,0.95169997215271
1683008637935399700,4.841399658203125,0.8842999935150146,-0.5853999853134155,2.044100046157837
1683008637955399700,4.861399658203125,0.1216999962925911,-0.5059999823570251,1.9120999574661255
1683008637975401200,4.881401123046875,0.004299999680370092,-0.6405999660491943,1.274899959564209
1683008637995399700,4.901399658203125,0.10329999774694443,-0.6757999658584595,0.39629998803138733
1683008638015399700,4.921399658203125,-0.27619999647140503,-0.6353999972343445,-0.40709999203681946
1683008638035399700,4.941399658203125,-0.7195999622344971,-0.5953999757766724,-0.9139999747276306
1683008638055401200,4.961401123046875,-0.8104999661445618,-0.5867999792098999,-1.2599999904632568
1683008638075399700,4.981399658203125,-0.8976999521255493,-0.680899977684021,-1.5245999097824097
1683008638095399700,5.001399658203125,-0.7755999565124512,-0.6272000074386597,-1.6038999557495117
1683008638115401200,5.021401123046875,-0.5356999635696411,-0.3296000063419342,-1.4282000064849854
1683008638135399700,5.041399658203125,-0.4213999807834625,-0.0023999998811632395,-1.305899977684021
1683008638155399700,5.061399658203125,-0.2963999807834625,0.1800999939441681,-1.114799976348877
1683008638175399700,5.081399658203125,-0.7904999852180481,0.2639999985694885,-1.1323999166488647
1683008638195402800,5.10140283203125,-0.9921999573707581,0.2886999845504761,-1.0645999908447266
1683008638215402800,5.12140283203125,-1.1173999309539795,0.31290000677108765,-0.9997999668121338
1683008638235399700,5.141399658203125,-1.3056999444961548,0.31189998984336853,-1.0197999477386475
1683008638255399700,5.161399658203125,-1.2757999897003174,0.35499998927116394,-0.9273999929428101
1683008638275399700,5.181399658203125,-0.9747999906539917,0.4148999750614166,-0.7354999780654907
1683008638295399700,5.201399658203125,-0.5982999801635742,0.39959999918937683,-0.2230999916791916
1683008638315399700,5.221399658203125,0.04019999876618385,0.49570000171661377,0.39399999380111694
1683008638335401200,5.241401123046875,0.4153999984264374,0.5273999571800232,1.2120000123977661
1683008638355402800,5.26140283203125,0.5719000101089478,0.5598999857902527,1.674299955368042
1683008638375402800,5.28140283203125,0.5500999689102173,0.48669999837875366,1.8966999053955078
1683008638395399700,5.301399658203125,0.47049999237060547,0.056299999356269836,1.980299949645996
1683008638415401200,5.321401123046875,0.8246999979019165,-0.32189998030662537,2.1011998653411865
1683008638435399700,5.341399658203125,1.125100016593933,-0.6003000140190125,2.125999927520752
1683008638455399700,5.361399658203125,1.232100009918213,-0.49939998984336853,2.2472000122070312
1683008638475401200,5.381401123046875,0.9185000061988831,-0.07689999788999557,1.8729000091552734
1683008638495399700,5.401399658203125,0.22299998998641968,-0.09939999878406525,1.0124999284744263
1683008638515399700,5.421399658203125,0.22289998829364777,-0.8470999598503113,1.3941999673843384
1683008638535399700,5.441399658203125,1.108299970626831,-1.355199933052063,2.1240999698638916
1683008638555401200,5.461401123046875,1.6416000127792358,-1.1812999248504639,2.2997000217437744
1683008638575399700,5.481399658203125,1.0710999965667725,-1.0480999946594238,1.2519999742507935
1683008638595402800,5.50140283203125,0.10009999573230743,-1.2207999229431152,-0.2683999836444855
1683008638615402800,5.52140283203125,-0.573199987411499,-1.3674999475479126,-0.8987999558448792
1683008638635399700,5.541399658203125,-1.5419999361038208,-1.2702999114990234,-1.2141000032424927
1683008638655399700,5.561399658203125,-1.9560999870300293,-1.0865999460220337,-1.187999963760376
1683008638675399700,5.581399658203125,-1.4257999658584595,-0.8484999537467957,-0.9917999505996704
1683008638695401200,5.601401123046875,-0.6362999677658081,-0.7425000071525574,-1.3421999216079712
1683008638715401200,5.621401123046875,-0.08980000019073486,-0.6744999885559082,-1.6650999784469604
1683008638735399700,5.641399658203125,0.13740000128746033,-0.5424999594688416,-1.646899938583374
1683008638755401200,5.661401123046875,0.09200000017881393,-0.25459998846054077,-1.2024999856948853
1683008638775401200,5.681401123046875,-0.13819999992847443,0.007199999876320362,-0.7827999591827393
1683008638795399700,5.701399658203125,-0.29510000348091125,0.21649999916553497,-0.36479997634887695
1683008638815399700,5.721399658203125,-0.39969998598098755,0.3199999928474426,-0.24219998717308044
1683008638835402800,5.74140283203125,-0.5579000115394592,0.38449999690055847,-0.5543999671936035
1683008638855402800,5.76140283203125,-0.5575000047683716,0.38349997997283936,-1.0449999570846558
1683008638875402800,5.78140283203125,-0.5848999619483948,0.3480999767780304,-1.1340999603271484
1683008638895399700,5.801399658203125,-0.3861999809741974,0.3726999759674072,-0.9139999747276306
1683008638915401200,5.821401123046875,0.03909999877214432,0.4851999878883362,-0.11999999731779099
1683008638935399700,5.841399658203125,0.7191999554634094,0.4755999743938446,1.0285999774932861
1683008638955399700,5.861399658203125,1.3207999467849731,0.4562999904155731,2.09089994430542
1683008638975401200,5.881401123046875,1.5023999214172363,0.5192999839782715,2.329200029373169
1683008638995402800,5.90140283203125,1.0882999897003174,0.32409998774528503,1.7493999004364014
1683008639015399700,5.921399658203125,0.8637999892234802,-0.359499990940094,1.7430999279022217
1683008639035401200,5.941401123046875,0.9162999987602234,-0.8247999548912048,2.257499933242798
1683008639055401200,5.961401123046875,0.40939998626708984,-0.8046999573707581,1.9756999015808105
1683008639075399700,5.981399658203125,-0.10589999705553055,-0.5728999972343445,1.2168999910354614
1683008639095399700,6.001399658203125,-0.2782000005245209,-0.3528999984264374,0.09339999407529831
1683008639115399700,6.021399658203125,-0.05779999867081642,-0.49049997329711914,-0.33799999952316284
1683008639135399700,6.041399658203125,0.5432000160217285,-0.7361999750137329,0.7396000027656555
1683008639155399700,6.061399658203125,0.5274999737739563,-0.7609999775886536,2.013200044631958
1683008639175399700,6.081399658203125,0.10979999601840973,-0.6726999878883362,2.083400011062622
1683008639195399700,6.101399658203125,-0.03529999777674675,-0.8376999497413635,1.1753000020980835
1683008639215399700,6.121399658203125,0.27489998936653137,-0.8786999583244324,0.1468999981880188
1683008639235399700,6.141399658203125,0.2821999788284302,-0.7209999561309814,-0.795799970626831
1683008639255401200,6.161401123046875,-0.22589999437332153,-0.6807000041007996,-1.3085999488830566
1683008639275402800,6.18140283203125,-0.7184999585151672,-0.6123999953269958,-1.503600001335144
1683008639295402800,6.20140283203125,-0.801099956035614,-0.5080999732017517,-1.7175999879837036
1683008639315399700,6.221399658203125,-0.7565000057220459,-0.3646000027656555,-1.809999942779541
1683008639335401200,6.241401123046875,-0.4074999988079071,-0.1322999894618988,-1.8535999059677124
1683008639355399700,6.261399658203125,-0.35659998655319214,0.10759999603033066,-1.7917999029159546
1683008639375399700,6.281399658203125,-0.5187000036239624,0.305899977684021,-1.681899905204773
1683008639395401200,6.301401123046875,-0.5669999718666077,0.40779998898506165,-1.403899908065796
1683008639415401200,6.321401123046875,-0.5892999768257141,0.568399965763092,-1.3009999990463257
1683008639435399700,6.341399658203125,-0.7231999635696411,0.7782999873161316,-1.2848999500274658
1683008639455402800,6.36140283203125,-0.9617999792098999,0.9352999925613403,-1.3641999959945679
1683008639475401200,6.381401123046875,-1.122399926185608,0.9146999716758728,-1.100000023841858
1683008639495399700,6.401399658203125,-1.1627999544143677,0.7389999628067017,-0.5228999853134155
1683008639515399700,6.421399658203125,-1.0943999290466309,0.42800000309944153,0.20659999549388885
1683008639535402800,6.44140283203125,-0.5687999725341797,0.06939999759197235,0.6103000044822693
1683008639555402800,6.46140283203125,0.34709998965263367,0.14219999313354492,0.8948999643325806
1683008639575399700,6.481399658203125,0.7526999711990356,0.42170000076293945,1.389699935913086
1683008639595399700,6.501399658203125,0.5352999567985535,0.5561999678611755,1.8944000005722046
1683008639615401200,6.521401123046875,0.6241999864578247,0.13099999725818634,2.688499927520752
1683008639635399700,6.541399658203125,0.8202999830245972,0.03749999776482582,2.7669999599456787
1683008639655399700,6.561399658203125,0.34880000352859497,0.3716000020503998,1.4162999391555786
1683008639675399700,6.581399658203125,-0.3422999978065491,0.19709999859333038,0.31520000100135803
1683008639695399700,6.601399658203125,0.2298000007867813,-0.24069999158382416,0.6976000070571899
1683008639715402800,6.62140283203125,1.1654999256134033,-0.3626999855041504,1.7299000024795532
1683008639735399700,6.641399658203125,1.4785999059677124,-0.734499990940094,3.00249981880188
1683008639755401200,6.661401123046875,1.9625999927520752,-0.9327999949455261,3.613799810409546
1683008639775399700,6.681399658203125,1.9184999465942383,-1.0886999368667603,2.771699905395508
1683008639795399700,6.701399658203125,1.24809992313385,-1.2924000024795532,1.2177000045776367
1683008639815399700,6.721399658203125,0.6642999649047852,-1.5597000122070312,0.13189999759197235
1683008639835401200,6.741401123046875,-0.6060999631881714,-1.7619999647140503,-1.0609999895095825
1683008639855399700,6.761399658203125,-1.5820999145507812,-1.684999942779541,-1.8359999656677246
1683008639875402800,6.78140283203125,-1.5140999555587769,-1.3919999599456787,-1.9447999000549316
1683008639895402800,6.80140283203125,-0.953499972820282,-0.974399983882904,-2.0393998622894287
1683008639915399700,6.821399658203125,-0.7085999846458435,-0.5794999599456787,-1.93149995803833
1683008639935399700,6.841399658203125,-0.6176999807357788,-0.25439998507499695,-1.5936999320983887
1683008639955402800,6.86140283203125,-0.6452999711036682,0.027499999850988388,-1.2889000177383423
1683008639975402800,6.88140283203125,-0.4277999997138977,0.23879998922348022,-1.0819000005722046
1683008639995399700,6.901399658203125,-0.15549999475479126,0.2839999794960022,-0.9164999723434448
1683008640015399700,6.921399658203125,0.04879999905824661,0.19569998979568481,-0.9377999901771545
1683008640035399700,6.941399658203125,0.25220000743865967,0.09879999607801437,-1.1800999641418457
1683008640055401200,6.961401123046875,0.35589998960494995,0.06039999797940254,-1.525499939918518
1683008640075399700,6.981399658203125,0.46959999203681946,0.21660000085830688,-1.743299961090088
1683008640095399700,7.001399658203125,0.5310999751091003,0.3325999975204468,-1.496899962425232
1683008640115401200,7.021401123046875,0.34919998049736023,0.37439998984336853,-1.023800015449524
1683008640135399700,7.041399658203125,0.5658999681472778,0.2728999853134155,-0.07609999924898148
1683008640155399700,7.061399658203125,1.0848000049591064,0.14219999313354492,1.159600019454956
1683008640175399700,7.081399658203125,1.4333999156951904,0.01269999984651804,2.204400062561035
1683008640195399700,7.101399658203125,1.2055000066757202,-0.07589999586343765,2.641899824142456
1683008640215399700,7.121399658203125,0.5428000092506409,-0.04529999941587448,2.157599925994873
1683008640235399700,7.141399658203125,0.0015999999595806003,-0.06689999997615814,1.9948999881744385
1683008640255402800,7.16140283203125,0.6098999977111816,-0.21400000154972076,3.496500015258789
1683008640275401200,7.181401123046875,0.6442999839782715,-0.07069999724626541,3.4873998165130615
1683008640295402800,7.20140283203125,0.3537999987602234,1.1862000226974487,2.536900043487549
1683008640315402800,7.22140283203125,0.07559999823570251,1.0353000164031982,0.7666999697685242
1683008640335401200,7.241401123046875,0.18679998815059662,0.9575999975204468,-0.8819999694824219
1683008640355399700,7.261399658203125,0.2809000015258789,0.819599986076355,-0.8563999533653259
1683008640375399700,7.281399658203125,0.2019999921321869,0.28299999237060547,0.23819999396800995
1683008640395402800,7.30140283203125,-0.2035999894142151,-0.26440000534057617,1.3646999597549438
1683008640415402800,7.32140283203125,-0.38179999589920044,-0.7195999622344971,1.8985999822616577
1683008640435399700,7.341399658203125,-0.25679999589920044,-0.8700000047683716,1.5013999938964844
1683008640455399700,7.361399658203125,-0.24639999866485596,-0.7782999873161316,0.30799999833106995
1683008640475401200,7.381401123046875,-0.0357000008225441,-0.6385999917984009,-0.7175999879837036
1683008640495399700,7.401399658203125,-0.1282999962568283,-0.45889997482299805,-1.4427999258041382
1683008640515399700,7.421399658203125,-0.41189998388290405,-0.23979999125003815,-2.0383999347686768
1683008640535399700,7.441399658203125,-0.6377999782562256,-0.05169999971985817,-2.321899890899658
1683008640555401200,7.461401123046875,-0.807699978351593,0.1582999974489212,-2.629499912261963
1683008640575402800,7.48140283203125,-0.8736000061035156,0.3025999963283539,-2.9017999172210693
1683008640595399700,7.501399658203125,-0.7789999842643738,0.46230000257492065,-2.9321999549865723
1683008640615401200,7.521401123046875,-0.602899968624115,0.5497999787330627,-2.7007999420166016
1683008640635399700,7.541399658203125,-0.4931999742984772,0.7330999970436096,-2.327199935913086
1683008640655399700,7.561399658203125,-0.571399986743927,0.8955000042915344,-1.7316999435424805
1683008640675399700,7.581399658203125,-0.7996999621391296,1.1347999572753906,-1.1460999250411987
1683008640695399700,7.601399658203125,-0.8568999767303467,1.3640999794006348,-0.6010000109672546
1683008640715399700,7.621399658203125,-0.7453999519348145,1.3729000091552734,0.1606999933719635
1683008640735399700,7.641399658203125,-0.5253999829292297,1.1575000286102295,1.073699951171875
1683008640755399700,7.661399658203125,-0.17469999194145203,0.9120000004768372,2.2307000160217285
1683008640775399700,7.681399658203125,0.10619999468326569,0.7689999938011169,3.2091000080108643
1683008640795402800,7.70140283203125,0.1776999980211258,0.7895999550819397,3.2856998443603516
1683008640815399700,7.721399658203125,-0.05639999732375145,0.5694000124931335,3.2200000286102295
1683008640835399700,7.741399658203125,0.10830000042915344,-0.10269999504089355,2.9068000316619873
1683008640855399700,7.761399658203125,0.5620999932289124,-0.6566999554634094,2.8185999393463135
1683008640875402800,7.78140283203125,0.5206999778747559,-0.6406999826431274,1.9608999490737915
1683008640895401200,7.801401123046875,-0.171999990940094,-0.382999986410141,0.6054999828338623
1683008640915402800,7.82140283203125,-0.48159998655319214,-0.5579999685287476,-0.1656000018119812
1683008640935399700,7.841399658203125,0.06449999660253525,-1.319000005722046,0.7753999829292297
1683008640955399700,7.861399658203125,1.154099941253662,-2.058300018310547,2.856099843978882
1683008640975401200,7.881401123046875,1.718400001525879,-2.095399856567383,4.451399803161621
1683008640995402800,7.90140283203125,1.4851999282836914,-1.777899980545044,4.037600040435791
1683008641015402800,7.92140283203125,1.0042999982833862,-1.515299916267395,2.3801000118255615
1683008641035399700,7.941399658203125,0.5378999710083008,-1.2781999111175537,0.27570000290870667
1683008641055401200,7.961401123046875,-0.3253999948501587,-0.9952999949455261,-1.4811999797821045
1683008641075399700,7.981399658203125,-1.3828999996185303,-0.9298999905586243,-2.149600028991699
1683008641095399700,8.001399658203125,-2.286900043487549,-1.0678999423980713,-2.7094998359680176
1683008641115401200,8.021401123046875,-2.4763998985290527,-1.2840999364852905,-3.142199993133545
1683008641135399700,8.041399658203124,-1.9871999025344849,-1.27839994430542,-3.100600004196167
1683008641155402800,8.06140283203125,-1.414199948310852,-0.9865999817848206,-2.871999979019165
1683008641175402800,8.08140283203125,-0.8640999794006348,-0.5956999659538269,-2.6526999473571777
1683008641195399700,8.101399658203125,-0.5680999755859375,-0.3084999918937683,-2.2986998558044434
1683008641215399700,8.121399658203124,-0.48919999599456787,-0.18320000171661377,-1.8141999244689941
1683008641235399700,8.141399658203126,-0.5216000080108643,-0.13920000195503235,-1.4704999923706055
1683008641255399700,8.161399658203125,-0.39879998564720154,-0.07289999723434448,-1.2237999439239502
1683008641275399700,8.181399658203125,-0.05260000005364418,0.04800000041723251,-0.8851999640464783
1683008641295399700,8.201399658203124,0.42549997568130493,0.23649999499320984,-0.03480000048875809
1683008641315399700,8.221399658203126,0.7901999950408936,0.3337000012397766,1.1780999898910522
1683008641335401200,8.241401123046876,1.0885000228881836,0.44039997458457947,2.2246999740600586
1683008641355399700,8.261399658203125,1.2716000080108643,0.6419999599456787,2.8595998287200928
1683008641375399700,8.281399658203124,1.087899923324585,0.8337999582290649,2.634699821472168
1683008641395399700,8.301399658203126,0.6531999707221985,0.8115999698638916,2.092900037765503
1683008641415401200,8.321401123046876,0.4811999797821045,0.43479999899864197,2.6534998416900635
1683008641435399700,8.341399658203125,0.43860000371932983,0.3743000030517578,3.6805999279022217
1683008641455399700,8.361399658203124,-0.21789999306201935,0.7766000032424927,3.2700998783111572
1683008641475401200,8.381401123046874,-0.7822999954223633,0.998199999332428,1.9680999517440796
1683008641495399700,8.401399658203125,-0.10029999911785126,1.0702999830245972,0.20960000157356262
1683008641515399700,8.421399658203125,1.1104999780654907,0.7639999985694885,-0.6477000117301941
1683008641535399700,8.441399658203125,2.2863998413085938,0.20469999313354492,0.33719998598098755
1683008641555401200,8.461401123046874,2.4626998901367188,-0.28519999980926514,2.0699000358581543
1683008641575399700,8.481399658203125,1.0362999439239502,-0.7746999859809875,2.452399969100952
1683008641595399700,8.501399658203125,-0.49390000104904175,-1.143899917602539,1.386299967765808
1683008641615401200,8.521401123046875,-1.218500018119812,-1.458799958229065,0.005799999926239252
1683008641635399700,8.541399658203124,-1.1335999965667725,-1.4828999042510986,-1.3476999998092651
1683008641655399700,8.561399658203126,-1.0009000301361084,-1.2664999961853027,-2.3688998222351074
1683008641675399700,8.581399658203125,-0.8618999719619751,-0.9271000027656555,-2.8457999229431152
1683008641695399700,8.601399658203125,-0.6785999536514282,-0.625499963760376,-2.8451998233795166
1683008641715399700,8.621399658203124,-0.7907999753952026,-0.39959999918937683,-2.9522998332977295
1683008641735399700,8.641399658203126,-0.9625999927520752,-0.2985000014305115,-3.086699962615967
1683008641755399700,8.661399658203125,-0.8762999773025513,-0.15629999339580536,-3.0922999382019043
1683008641775399700,8.681399658203125,-0.5920999646186829,-0.0210999995470047,-2.7293999195098877
1683008641795399700,8.701399658203124,-0.3982999920845032,0.24779999256134033,-2.214900016784668
1683008641815399700,8.721399658203126,-0.36910000443458557,0.43149998784065247,-1.6434999704360962
1683008641835401200,8.741401123046876,-0.5367000102996826,0.6700999736785889,-1.470099925994873
1683008641855399700,8.761399658203125,-0.43389999866485596,0.8501999974250793,-1.1759999990463257
1683008641875399700,8.781399658203124,-0.20160000026226044,1.042699933052063,-0.6821999549865723
1683008641895399700,8.801399658203126,-0.12129999697208405,1.156999945640564,0.10889999568462372
1683008641915401200,8.821401123046876,0.004399999976158142,1.2120999097824097,1.0774999856948853
1683008641935399700,8.841399658203125,0.061799999326467514,1.2523999214172363,1.975600004196167
1683008641955399700,8.861399658203124,-0.058399997651576996,1.2776999473571777,2.4694998264312744
1683008641975401200,8.881401123046874,-0.2076999992132187,1.2168999910354614,2.6703999042510986
1683008641995399700,8.901399658203125,0.01769999973475933,0.8940999507904053,2.9254000186920166
1683008642015399700,8.921399658203125,0.5372999906539917,0.21209999918937683,3.638000011444092
1683008642035399700,8.941399658203125,0.7845999598503113,-0.06809999793767929,4.184000015258789
1683008642055401200,8.961401123046874,0.725600004196167,0.10979999601840973,3.9328999519348145
1683008642075399700,8.981399658203125,0.11490000039339066,0.6086999773979187,2.780900001525879
1683008642095399700,9.001399658203125,-0.0674000009894371,0.4746999740600586,2.0511999130249023
1683008642115401200,9.021401123046875,0.4811999797821045,-0.3644999861717224,2.9619998931884766
1683008642135399700,9.041399658203124,1.3339999914169312,-1.1759999990463257,4.220399856567383
1683008642155399700,9.061399658203126,1.3996999263763428,-1.601199984550476,4.136399745941162
1683008642175399700,9.081399658203125,0.7973999977111816,-1.6370999813079834,2.045099973678589
1683008642195399700,9.101399658203125,0.15399999916553497,-1.615399956703186,-0.5160999894142151
1683008642215399700,9.121399658203124,-0.19679999351501465,-1.3388999700546265,-2.757999897003174
1683008642235402800,9.14140283203125,-0.5764999985694885,-0.9280999898910522,-3.8152999877929688
1683008642255399700,9.161399658203125,-1.209999918937683,-0.7355999946594238,-3.8036999702453613
1683008642275401200,9.181401123046875,-1.5262999534606934,-0.46480000019073486,-3.3399999141693115
1683008642295399700,9.201399658203124,-2.0874998569488525,-0.32269999384880066,-2.962100028991699
1683008642315399700,9.221399658203126,-2.323699951171875,-0.07509999722242355,-2.63319993019104
1683008642335402800,9.24140283203125,-1.8782999515533447,0.06069999933242798,-2.0279998779296875
1683008642355399700,9.261399658203125,-1.1181999444961548,0.11259999871253967,-1.4006999731063843
1683008642375399700,9.281399658203124,-0.5636000037193298,0.18039999902248383,-1.0161999464035034
1683008642395399700,9.301399658203126,-0.2782999873161316,0.2053999900817871,-0.8191999793052673
1683008642415401200,9.321401123046876,0.0004999999655410647,0.14169999957084656,-0.5934000015258789
1683008642435399700,9.341399658203125,0.24779999256134033,-0.022499999031424522,-0.40639999508857727
1683008642455399700,9.361399658203124,0.6164999604225159,-0.2223999947309494,-0.21799999475479126
1683008642475401200,9.381401123046874,1.1598999500274658,-0.3206000030040741,0.8046000003814697
1683008642495399700,9.401399658203125,1.6195999383926392,-0.3871999979019165,2.354300022125244
1683008642515399700,9.421399658203125,1.611199975013733,-0.25859999656677246,3.3018999099731445
1683008642535399700,9.441399658203125,1.293299913406372,-0.0066999997943639755,2.6168999671936035
1683008642555399700,9.461399658203124,1.0298999547958374,-0.1582999974489212,1.6804999113082886
1683008642575399700,9.481399658203125,1.0950000286102295,-0.8003999590873718,2.4572999477386475
1683008642595399700,9.501399658203125,2.156100034713745,-1.0313999652862549,2.6412999629974365
1683008642615401200,9.521401123046875,0.27309998869895935,-0.6247999668121338,1.786199927330017
1683008642635401200,9.541401123046874,-0.3012000024318695,0.1193000003695488,-0.10539999604225159
1683008642655399700,9.561399658203126,0.4908999800682068,0.15379999577999115,-0.12269999831914902
1683008642675399700,9.581399658203125,2.1945998668670654,-0.19529999792575836,1.7529999017715454
1683008642695399700,9.601399658203125,2.8371999263763428,-0.4083999991416931,3.4433999061584473
1683008642715399700,9.621399658203124,1.239799976348877,-0.817799985408783,3.0433998107910156
1683008642735399700,9.641399658203126,-0.6771999597549438,-0.6620999574661255,0.8093000054359436
1683008642755399700,9.661399658203125,-1.5184999704360962,-1.152899980545044,-0.8995999693870544
1683008642775401200,9.681401123046875,-1.3504999876022339,-1.220099925994873,-2.3454999923706055
1683008642795399700,9.701399658203124,-1.174399971961975,-1.0023000240325928,-3.0447998046875
1683008642815399700,9.721399658203126,-1.079800009727478,-0.6979999542236328,-3.053799867630005
1683008642835401200,9.741401123046876,-1.1851999759674072,-0.29919999837875366,-3.257200002670288
1683008642855399700,9.761399658203125,-1.138800024986267,-0.0867999941110611,-3.3877999782562256
1683008642875399700,9.781399658203124,-0.9528999924659729,-0.04399999976158142,-3.254499912261963
1683008642895399700,9.801399658203126,-0.6301000118255615,0.12099999934434891,-2.942699909210205
1683008642915401200,9.821401123046876,-0.4668999910354614,0.1517999917268753,-2.520599842071533
1683008642935399700,9.841399658203125,-0.4520999789237976,0.42879998683929443,-2.1375999450683594
1683008642955399700,9.861399658203124,-0.5406999588012695,0.5142999887466431,-1.503000020980835
1683008642975401200,9.881401123046874,-0.48330000042915344,0.7215999960899353,-0.9782999753952026
1683008642995399700,9.901399658203125,-0.538100004196167,0.916700005531311,-0.47209998965263367
1683008643015399700,9.921399658203125,-0.4097999930381775,1.1022000312805176,0.13519999384880066
1683008643035399700,9.941399658203125,-0.5170999765396118,1.090999960899353,0.8625999689102173
1683008643055401200,9.961401123046874,-0.4025000035762787,1.0717999935150146,1.6399999856948853
1683008643075399700,9.981399658203125,-0.21599999070167542,1.0526999235153198,2.6106998920440674
1683008643095399700,10.001399658203125,-0.32019999623298645,1.205899953842163,3.1196999549865723
1683008643115401200,10.021401123046875,-0.538100004196167,1.2523999214172363,3.1223998069763184
1683008643135399700,10.041399658203124,-0.33809998631477356,0.8047999739646912,3.397899866104126
1683008643155399700,10.061399658203126,0.7131999731063843,0.08720000088214874,4.522200107574463
1683008643175399700,10.081399658203125,0.8983999490737915,0.042899999767541885,4.2941999435424805
1683008643195399700,10.101399658203125,0.16929998993873596,0.8427000045776367,1.8070999383926392
1683008643215399700,10.121399658203124,0.14800000190734863,0.44519999623298645,0.42229998111724854
1683008643235399700,10.141399658203126,1.2965999841690063,-0.8980000019073486,1.4542999267578125
1683008643255399700,10.161399658203125,2.4358999729156494,-2.077899932861328,3.4231998920440674
1683008643275399700,10.181399658203125,2.1556999683380127,-2.206899881362915,3.860799789428711
1683008643295399700,10.201399658203124,1.3174999952316284,-1.8137999773025513,2.227299928665161
1683008643315399700,10.221399658203126,0.899899959564209,-1.588499903678894,-0.019700000062584877
1683008643335401200,10.241401123046876,0.7113999724388123,-1.4089999198913574,-1.9874999523162842
1683008643355399700,10.261399658203125,0.01769999973475933,-1.369499921798706,-3.1445999145507812
1683008643375399700,10.281399658203124,-0.8851999640464783,-1.5872999429702759,-3.5139999389648438
1683008643395399700,10.301399658203126,-1.5202999114990234,-1.6577999591827393,-3.5715999603271484
1683008643415399700,10.321399658203125,-1.6411999464035034,-1.4539999961853027,-3.254199981689453
1683008643435399700,10.341399658203125,-1.412500023841858,-1.0721999406814575,-2.7533998489379883
1683008643455399700,10.361399658203124,-0.9174999594688416,-0.8014999628067017,-2.24399995803833
1683008643475401200,10.381401123046874,-0.4276999831199646,-0.6037999987602234,-1.8732999563217163
1683008643495399700,10.401399658203125,-0.09189999848604202,-0.4359000027179718,-1.5324000120162964
1683008643515399700,10.421399658203125,-0.010999999940395355,-0.24929998815059662,-1.2793999910354614
1683008643535399700,10.441399658203125,0.15649999678134918,-0.03529999777674675,-1.0255999565124512
1683008643555399700,10.461399658203124,0.16489998996257782,0.1184999942779541,-0.7906000018119812
1683008643575399700,10.481399658203125,0.2549999952316284,0.171999990940094,-0.16380000114440918
1683008643595399700,10.501399658203125,0.6614999771118164,0.22039999067783356,0.8448999524116516
1683008643615399700,10.521399658203125,1.0871999263763428,0.21769998967647552,2.1457998752593994
1683008643635399700,10.541399658203124,1.4479999542236328,0.28849998116493225,3.1302998065948486
1683008643655401200,10.561401123046876,1.4864000082015991,0.5227000117301941,2.9700000286102295
1683008643675399700,10.581399658203125,1.375,0.4203999936580658,2.1915998458862305
1683008643695399700,10.601399658203125,1.3596999645233154,-0.2883000075817108,2.7558000087738037
1683008643715399700,10.621399658203124,1.2152999639511108,-0.5503999590873718,3.598299980163574
1683008643735399700,10.641399658203126,0.6144999861717224,-0.16619999706745148,3.175999879837036
1683008643755399700,10.661399658203125,0.21609999239444733,0.5785999894142151,0.9307999610900879
1683008643775401200,10.681401123046875,0.5697999596595764,0.781499981880188,-0.7405999898910522
1683008643795399700,10.701399658203124,1.4494999647140503,0.39729997515678406,-0.2061999887228012
1683008643815399700,10.721399658203126,2.0085999965667725,-0.16040000319480896,1.5789999961853027
1683008643835401200,10.741401123046876,1.0382999181747437,-0.40860000252723694,2.3828999996185303
1683008643855399700,10.761399658203125,-0.4551999866962433,-0.5049999952316284,1.7773000001907349
1683008643875399700,10.781399658203124,-0.9822999835014343,-0.7576000094413757,0.5126000046730042
1683008643895399700,10.801399658203126,-0.7335000038146973,-0.8115999698638916,-1.0608999729156494
1683008643915401200,10.821401123046876,-0.7035999894142151,-0.7822999954223633,-2.303299903869629
1683008643935399700,10.841399658203125,-0.7150999903678894,-0.6466999650001526,-2.9682998657226562
1683008643955399700,10.861399658203124,-0.7960000038146973,-0.5065999627113342,-3.1419999599456787
1683008643975401200,10.881401123046874,-1.105299949645996,-0.47419998049736023,-3.209199905395508
1683008643995399700,10.901399658203125,-1.1240999698638916,-0.39899998903274536,-3.1723999977111816
1683008644015399700,10.921399658203125,-0.6864999532699585,-0.27070000767707825,-3.046799898147583
1683008644035399700,10.941399658203125,-0.26999998092651367,-0.11259999871253967,-2.8523998260498047
1683008644055401200,10.961401123046874,-0.0575999990105629,0.13189999759197235,-2.5116000175476074
1683008644075399700,10.981399658203125,-0.1695999950170517,0.3253999948501587,-1.8176000118255615
1683008644095399700,11.001399658203125,-0.38830000162124634,0.5019999742507935,-1.163100004196167
1683008644115402800,11.02140283203125,-0.45170000195503235,0.6753000020980835,-0.5569999814033508
1683008644135401200,11.041401123046874,-0.41009998321533203,0.7525999546051025,-0.08729999512434006
1683008644155399700,11.061399658203126,-0.26739999651908875,0.7232999801635742,0.3546999990940094
1683008644175399700,11.081399658203125,-0.09709999710321426,0.7184999585151672,0.7604999542236328
1683008644195399700,11.101399658203125,-0.047599997371435165,0.8127999901771545,1.3729000091552734
1683008644215399700,11.121399658203124,0.08779999613761902,0.9055999517440796,2.336599826812744
1683008644235399700,11.141399658203126,0.12189999967813492,0.9720999598503113,3.1908998489379883
1683008644255399700,11.161399658203125,0.2879999876022339,0.6696000099182129,4.105499744415283
1683008644275399700,11.181399658203125,0.771399974822998,0.0210999995470047,5.122200012207031
1683008644295399700,11.201399658203124,1.2008999586105347,-0.13169999420642853,4.7428998947143555
1683008644315399700,11.221399658203126,1.0374000072479248,0.1923999935388565,3.2254998683929443
1683008644335399700,11.241399658203125,0.385699987411499,0.4325999915599823,1.1718000173568726
1683008644355399700,11.261399658203125,0.25049999356269836,-0.007499999832361937,0.32409998774528503
1683008644375399700,11.281399658203124,0.9615999460220337,-1.209399938583374,1.6102999448776245
1683008644395399700,11.301399658203126,1.7009999752044678,-1.8168998956680298,2.8431999683380127
1683008644415401200,11.321401123046876,1.4940999746322632,-1.455899953842163,2.7665998935699463
1683008644435399700,11.341399658203125,0.6800000071525574,-0.8560000061988831,1.681999921798706
1683008644455399700,11.361399658203124,0.2565000057220459,-0.5467000007629395,0.07429999858140945
1683008644475401200,11.381401123046874,-0.09860000014305115,-0.48809999227523804,-1.4625999927520752
1683008644495399700,11.401399658203125,-0.802899956703186,-0.5173999667167664,-2.340399980545044
1683008644515399700,11.421399658203125,-1.4986999034881592,-0.6161999702453613,-2.539599895477295
1683008644535399700,11.441399658203125,-1.9541999101638794,-0.6941999793052673,-2.6675000190734863
1683008644555401200,11.461401123046874,-2.0607998371124268,-0.7196999788284302,-2.6694998741149902
1683008644575399700,11.481399658203125,-1.778899908065796,-0.676099956035614,-2.504199981689453
1683008644595399700,11.501399658203125,-1.4018999338150024,-0.6125999689102173,-2.2894999980926514
1683008644615401200,11.521401123046875,-0.8341999650001526,-0.638700008392334,-1.77239990234375
1683008644635401200,11.541401123046874,-0.41429999470710754,-0.5895999670028687,-1.2415000200271606
1683008644655399700,11.561399658203126,-0.22190000116825104,-0.49139997363090515,-0.8330000042915344
1683008644675399700,11.581399658203125,-0.22789999842643738,-0.4601999819278717,-0.7179999947547913
1683008644695399700,11.601399658203125,-0.24329999089241028,-0.38189998269081116,-0.8747999668121338
1683008644715399700,11.621399658203124,-0.21409998834133148,-0.5212999582290649,-0.8535999655723572
1683008644735399700,11.641399658203126,0.11050000041723251,-0.6269999742507935,-0.5777999758720398
1683008644755399700,11.661399658203125,0.7087000012397766,-0.7630999684333801,0.45989999175071716
1683008644775401200,11.681401123046875,1.1633999347686768,-0.8364999890327454,1.562399983406067
1683008644795399700,11.701399658203124,1.2173999547958374,-0.7263999581336975,2.1033999919891357
1683008644815399700,11.721399658203126,0.7457000017166138,-0.27649998664855957,1.3152999877929688
1683008644835401200,11.741401123046876,0.33079999685287476,-0.12319999933242798,0.7515000104904175
1683008644855399700,11.761399658203125,0.43209999799728394,-0.6721999645233154,2.5327999591827393
1683008644875399700,11.781399658203124,0.4487999975681305,-0.7371999621391296,3.8413000106811523
1683008644895399700,11.801399658203126,0.13650000095367432,-0.03889999911189079,2.61329984664917
1683008644915401200,11.821401123046876,0.3863999843597412,0.3391000032424927,1.0234999656677246
1683008644935399700,11.841399658203125,1.855699896812439,0.17509999871253967,1.0340999364852905
1683008644955399700,11.861399658203124,3.323499917984009,0.022199999541044235,2.1770999431610107
1683008644975401200,11.881401123046874,3.2669999599456787,-0.007899999618530273,3.1698999404907227
1683008644995399700,11.901399658203125,1.3708999156951904,0.11879999935626984,2.4975998401641846
1683008645015399700,11.921399658203125,-0.20059999823570251,0.09200000017881393,1.1964999437332153
1683008645035399700,11.941399658203125,-0.7706999778747559,-0.1525999903678894,-0.057499997317790985
1683008645055401200,11.961401123046874,-0.9793999791145325,-0.343999981880188,-1.5475000143051147
1683008645075399700,11.981399658203125,-1.257599949836731,-0.3798999786376953,-2.928799867630005
1683008645095399700,12.001399658203125,-1.2725999355316162,-0.35439997911453247,-3.541100025177002
1683008645115401200,12.021401123046875,-0.8292999863624573,-0.15569999814033508,-3.531599998474121
1683008645135401200,12.041401123046874,-0.4205999970436096,0.01489999983459711,-3.40559983253479
1683008645155399700,12.061399658203126,-0.3595999777317047,0.12960000336170197,-3.1903998851776123
1683008645175399700,12.081399658203125,-0.21529999375343323,0.3093000054359436,-3.0132999420166016
1683008645195399700,12.101399658203125,-0.057099997997283936,0.3568999767303467,-2.503700017929077
1683008645215399700,12.121399658203124,-0.23089998960494995,0.40619999170303345,-1.94760000705719
1683008645235399700,12.141399658203126,-0.590999960899353,0.5051000118255615,-1.4011999368667603
1683008645255399700,12.161399658203125,-0.6802999973297119,0.5752999782562256,-0.8810999989509583
1683008645275401200,12.181401123046875,-0.7127000093460083,0.531499981880188,-0.6133999824523926
1683008645295399700,12.201399658203124,-0.6056999564170837,0.5098000168800354,-0.4615999758243561
1683008645315399700,12.221399658203126,-0.3254999816417694,0.4307999908924103,0.15940000116825104
1683008645335401200,12.241401123046876,0.054999999701976776,0.4242999851703644,1.1699999570846558
1683008645355399700,12.261399658203125,0.4059999883174896,0.5080000162124634,2.050999879837036
1683008645375399700,12.281399658203124,0.4715999960899353,0.5687999725341797,2.5225000381469727
1683008645395399700,12.301399658203126,0.39629998803138733,0.6818999648094177,2.1875998973846436
1683008645415401200,12.321401123046876,0.3799999952316284,0.46309998631477356,1.8642998933792114
1683008645435399700,12.341399658203125,0.6202999949455261,-0.0064999996684491634,2.19350004196167
1683008645455399700,12.361399658203124,0.710599958896637,-0.3730999827384949,2.4313998222351074
1683008645475401200,12.381401123046874,0.2830999791622162,-0.12189999967813492,1.333299994468689
1683008645495399700,12.401399658203125,0.12870000302791595,-0.11599999666213989,0.7756999731063843
1683008645515399700,12.421399658203125,0.8637999892234802,-0.6969000101089478,2.191999912261963
1683008645535399700,12.441399658203125,1.7705999612808228,-1.3112000226974487,4.362299919128418
1683008645555401200,12.461401123046874,1.7685999870300293,-1.684399962425232,5.485799789428711
1683008645575399700,12.481399658203125,1.3395999670028687,-1.569000005722046,4.355999946594238
1683008645595399700,12.501399658203125,0.993399977684021,-1.4671999216079712,2.05679988861084
1683008645615401200,12.521401123046875,0.8299999833106995,-1.2766000032424927,-0.08859999477863312
1683008645635401200,12.541401123046874,0.23899999260902405,-0.8417999744415283,-1.9788999557495117
1683008645655399700,12.561399658203126,-1.1694999933242798,-0.6704999804496765,-3.000200033187866
1683008645675399700,12.581399658203125,-2.2732999324798584,-0.7486000061035156,-3.4370999336242676
1683008645695399700,12.601399658203125,-2.6649999618530273,-0.7797999978065491,-3.557799816131592
1683008645715399700,12.621399658203124,-2.5813000202178955,-0.6557999849319458,-3.206199884414673
1683008645735399700,12.641399658203126,-2.242499828338623,-0.4713999927043915,-2.5114998817443848
1683008645755399700,12.661399658203125,-1.7486000061035156,-0.25450000166893005,-1.7893999814987183
1683008645775401200,12.681401123046875,-1.2333999872207642,-0.21809999644756317,-1.23989999294281
1683008645795399700,12.701399658203124,-0.8969999551773071,-0.21040000021457672,-0.9792999625205994
1683008645815399700,12.721399658203126,-0.47519999742507935,-0.24879999458789825,-0.798799991607666
1683008645835401200,12.741401123046876,-0.003700000001117587,-0.2565000057220459,-0.6865999698638916
1683008645855399700,12.761399658203125,0.49480000138282776,-0.20309999585151672,-0.4359999895095825
1683008645875399700,12.781399658203124,0.9432999491691589,0.004799999762326479,0.0015999999595806003
1683008645895399700,12.801399658203126,1.438099980354309,0.22100000083446503,0.9188999533653259
1683008645915401200,12.821401123046876,1.9438999891281128,0.3100000023841858,2.0894999504089355
1683008645935399700,12.841399658203125,2.032399892807007,0.46069997549057007,2.6813998222351074
1683008645955399700,12.861399658203124,1.8428999185562134,0.685699999332428,2.2370998859405518
1683008645975401200,12.881401123046874,1.7872999906539917,0.5277000069618225,1.9268999099731445
1683008645995399700,12.901399658203125,1.9107999801635742,0.07360000163316727,2.8457999229431152
1683008646015399700,12.921399658203125,1.7322999238967896,-0.1046999990940094,3.8586997985839844
1683008646035399700,12.941399658203125,1.090399980545044,0.34289997816085815,3.3899998664855957
1683008646055401200,12.961401123046874,0.44209998846054077,0.7953000068664551,1.552899956703186
1683008646075399700,12.981399658203125,0.9214999675750732,0.8623999953269958,-0.25609999895095825
1683008646095399700,13.001399658203125,1.8399999141693115,0.4220999777317047,-0.0843999981880188
1683008646115401200,13.021401123046875,2.650599956512451,-0.06969999521970749,1.559399962425232
1683008646135401200,13.041401123046874,1.4265999794006348,-0.8277999758720398,2.655099868774414
1683008646155399700,13.061399658203126,-0.7914999723434448,-1.2511999607086182,1.4644999504089355
1683008646175399700,13.081399658203125,-2.0209999084472656,-1.524899959564209,-0.1939999908208847
1683008646195399700,13.101399658203125,-1.8476999998092651,-1.3437999486923218,-1.6246999502182007
1683008646215399700,13.121399658203124,-1.604099988937378,-1.100600004196167,-2.6187000274658203
1683008646235399700,13.141399658203126,-1.9706999063491821,-1.028499960899353,-3.275399923324585
1683008646255399700,13.161399658203125,-2.1888999938964844,-0.9454999566078186,-3.510200023651123
1683008646275401200,13.181401123046875,-2.1965999603271484,-0.7968999743461609,-3.26039981842041
1683008646295399700,13.201399658203124,-1.9828999042510986,-0.7224000096321106,-2.7863998413085938
1683008646315399700,13.221399658203126,-1.4204999208450317,-0.529699981212616,-2.536799907684326
1683008646335401200,13.241401123046876,-0.7698999643325806,-0.3366999924182892,-2.1004998683929443
1683008646355399700,13.261399658203125,-0.33079999685287476,-0.11180000007152557,-1.539699912071228
1683008646375399700,13.281399658203124,-0.05790000036358833,0.24769999086856842,-1.117900013923645
1683008646395399700,13.301399658203126,0.010499999858438969,0.6485999822616577,-1.0565999746322632
1683008646415401200,13.321401123046876,-0.10159999877214432,0.9416999816894531,-1.0781999826431274
1683008646435399700,13.341399658203125,0.003000000026077032,1.0167999267578125,-0.8310999870300293
1683008646455399700,13.361399658203124,0.19280000030994415,0.9156000018119812,-0.24039998650550842
1683008646475401200,13.381401123046874,0.35839998722076416,0.8398000001907349,0.5842999815940857
1683008646495399700,13.401399658203125,0.5388000011444092,0.9107999801635742,1.3983999490737915
1683008646515399700,13.421399658203125,0.7353999614715576,1.0008000135421753,2.134700059890747
1683008646535399700,13.441399658203125,0.8086000084877014,1.125599980354309,2.550600051879883
1683008646555401200,13.461401123046874,0.9635999798774719,1.1211999654769897,3.010999917984009
1683008646575399700,13.481399658203125,1.171299934387207,0.6864999532699585,3.6510000228881836
1683008646595399700,13.501399658203125,1.2877999544143677,0.2678000032901764,3.9089999198913574
1683008646615399700,13.521399658203125,1.0504999160766602,0.19489999115467072,3.1893999576568604
1683008646635401200,13.541401123046874,0.405599981546402,0.43779999017715454,1.5305999517440796
1683008646655399700,13.561399658203126,0.21899999678134918,0.2671999931335449,0.7653999924659729
1683008646675402800,13.58140283203125,0.8575999736785889,-0.5120999813079834,2.039599895477295
1683008646695399700,13.601399658203125,1.8823999166488647,-1.121999979019165,3.9940998554229736
1683008646715399700,13.621399658203124,1.781499981880188,-1.2609000205993652,4.781099796295166
1683008646735399700,13.641399658203126,0.9591999650001526,-1.110700011253357,3.2383999824523926
1683008646755399700,13.661399658203125,0.03009999915957451,-0.9145999550819397,0.613099992275238
1683008646775401200,13.681401123046875,-0.4242999851703644,-0.8823999762535095,-1.3874999284744263
1683008646795399700,13.701399658203124,-0.9085999727249146,-0.9822999835014343,-2.488999843597412
1683008646815399700,13.721399658203126,-1.7666999101638794,-1.3013999462127686,-3.1878998279571533
1683008646835401200,13.741401123046876,-2.556299924850464,-1.5151000022888184,-3.605599880218506
1683008646855399700,13.761399658203125,-2.668099880218506,-1.4182000160217285,-3.570499897003174
1683008646875399700,13.781399658203124,-2.1641998291015625,-1.1445000171661377,-3.1649999618530273
1683008646895399700,13.801399658203126,-1.4751999378204346,-0.849299967288971,-2.5434999465942383
1683008646915401200,13.821401123046876,-0.9413999915122986,-0.6780999898910522,-1.9642999172210693
1683008646935399700,13.841399658203125,-0.5997999906539917,-0.7390999794006348,-1.496399998664856
1683008646955399700,13.861399658203124,-0.3659999966621399,-0.6983000040054321,-1.2635999917984009
1683008646975401200,13.881401123046874,-0.1605999916791916,-0.6358999609947205,-0.9695000052452087
1683008646995399700,13.901399658203125,0.036399997770786285,-0.4497999846935272,-0.7810999751091003
1683008647015399700,13.921399658203125,0.20229999721050262,-0.36959999799728394,-0.5430999994277954
1683008647035399700,13.941399658203125,0.4527999758720398,-0.483599990606308,0.24249999225139618
1683008647055401200,13.961401123046874,1.0756999254226685,-0.5295999646186829,1.5163999795913696
1683008647075399700,13.981399658203125,1.708899974822998,-0.6380999684333801,2.8172998428344727
1683008647095399700,14.001399658203125,1.8489999771118164,-0.562999963760376,2.7660000324249268
1683008647115399700,14.021399658203125,1.3873000144958496,-0.274399995803833,1.5162999629974365
1683008647135399700,14.041399658203124,1.2997000217437744,-0.541700005531311,2.008699893951416
1683008647155399700,14.061399658203126,1.2412999868392944,-0.8835999965667725,4.112800121307373
1683008647175399700,14.081399658203125,0.923799991607666,-0.375,4.401199817657471
1683008647195399700,14.101399658203125,0.0038999998942017555,0.5990999937057495,2.308500051498413
1683008647215399700,14.121399658203124,-0.3005000054836273,1.0669000148773193,-0.3109000027179718
1683008647235399700,14.141399658203126,0.7583999633789062,0.9691999554634094,-1.180999994277954
1683008647255399700,14.161399658203125,1.7522000074386597,0.29490000009536743,-0.03179999813437462
1683008647275401200,14.181401123046875,1.8251999616622925,-0.3942999839782715,1.5302000045776367
1683008647295399700,14.201399658203124,0.5705999732017517,-0.7999999523162842,1.8051999807357788
1683008647315399700,14.221399658203126,-0.4186999797821045,-0.941100001335144,0.6502999663352966
1683008647335401200,14.241401123046876,-0.26749998331069946,-1.0822999477386475,-0.5116999745368958
1683008647355399700,14.261399658203125,0.05480000004172325,-0.8788999915122986,-1.5087000131607056
1683008647375399700,14.281399658203124,-0.28919997811317444,-0.6297999620437622,-2.350600004196167
1683008647395399700,14.301399658203126,-0.8762999773025513,-0.4283999800682068,-2.719099998474121
1683008647415401200,14.321401123046876,-1.0403000116348267,-0.2736999988555908,-2.641199827194214
1683008647435399700,14.341399658203125,-0.9160999655723572,-0.19280000030994415,-2.895399808883667
1683008647455399700,14.361399658203124,-0.5221999883651733,-0.13539999723434448,-2.9031999111175537
1683008647475401200,14.381401123046874,-0.21310000121593475,-0.015099999494850636,-2.5902998447418213
1683008647495399700,14.401399658203125,-0.0925000011920929,0.1832999885082245,-2.190700054168701
1683008647515399700,14.421399658203125,-0.08540000021457672,0.3951999843120575,-2.0053000450134277
1683008647535399700,14.441399658203125,-0.09349999576807022,0.5597000122070312,-1.6417999267578125
1683008647555401200,14.461401123046874,-0.012600000016391277,0.7737999558448792,-1.1801999807357788
1683008647575399700,14.481399658203125,-0.08320000022649765,1.0116000175476074,-0.8744999766349792
1683008647595399700,14.501399658203125,-0.07319999486207962,1.1727999448776245,-0.43959999084472656
1683008647615399700,14.521399658203125,0.05999999865889549,1.190500020980835,0.3392999768257141
1683008647635401200,14.541401123046874,0.19909998774528503,1.2114999294281006,1.11899995803833
1683008647655399700,14.561399658203126,0.2987000048160553,1.2912999391555786,1.8493999242782593
1683008647675399700,14.581399658203125,0.3837999999523163,1.365899920463562,2.5414998531341553
1683008647695399700,14.601399658203125,0.3021000027656555,1.4113999605178833,2.997999906539917
1683008647715399700,14.621399658203124,0.12629999220371246,1.361199975013733,3.1511998176574707
1683008647735399700,14.641399658203126,0.18889999389648438,0.9964999556541443,3.2588000297546387
1683008647755399700,14.661399658203125,0.5435999631881714,0.41669997572898865,3.39139986038208
1683008647775401200,14.681401123046875,0.527899980545044,0.31119999289512634,2.6345999240875244
1683008647795399700,14.701399658203124,-0.05639999732375145,0.45879998803138733,1.3394999504089355
1683008647815399700,14.721399658203126,-0.3237999975681305,0.4497999846935272,0.43379998207092285
1683008647835401200,14.741401123046876,0.1671999990940094,-0.05700000002980232,0.9638999700546265
1683008647855399700,14.761399658203125,0.9373999834060669,-0.8441999554634094,2.52839994430542
1683008647875399700,14.781399658203124,1.4045000076293945,-1.4362000226974487,4.069399833679199
1683008647895399700,14.801399658203126,1.3025000095367432,-1.6200999021530151,4.095600128173828
1683008647915401200,14.821401123046876,0.8722999691963196,-1.5597000122070312,2.5623998641967773
1683008647935399700,14.841399658203125,0.4594999849796295,-1.396799921989441,0.20229999721050262
1683008647955401200,14.861401123046875,0.2441999912261963,-1.3240000009536743,-1.8351999521255493
1683008647975399700,14.881399658203126,-0.3610000014305115,-1.3846999406814575,-3.2000999450683594
1683008647995399700,14.901399658203125,-1.124899983406067,-1.5669000148773193,-3.839200019836426
1683008648015399700,14.921399658203125,-1.8107999563217163,-1.7002999782562256,-3.8479998111724854
1683008648035399700,14.941399658203125,-2.147599935531616,-1.6512999534606934,-3.563699960708618
1683008648055399700,14.961399658203124,-1.9612998962402344,-1.306399941444397,-3.114499807357788
1683008648075399700,14.981399658203125,-1.2759000062942505,-1.011099934577942,-2.4598000049591064
1683008648095399700,15.001399658203125,-0.6536999940872192,-0.7041999697685242,-1.8776999711990356
1683008648115399700,15.021399658203125,-0.16839998960494995,-0.4830999970436096,-1.3882999420166016
1683008648135399700,15.041399658203124,0.202799990773201,-0.23489999771118164,-1.163599967956543
1683008648155399700,15.061399658203126,0.29159998893737793,-0.121799997985363,-0.8574999570846558
1683008648175399700,15.081399658203125,0.3357999920845032,-0.04779999703168869,-0.3531000018119812
1683008648195399700,15.101399658203125,0.5970999598503113,0.032099999487400055,0.5045999884605408
1683008648215399700,15.121399658203124,1.0011999607086182,0.03009999915957451,1.4989999532699585
1683008648235399700,15.141399658203126,1.5238999128341675,0.05209999904036522,2.1113998889923096
1683008648255399700,15.161399658203125,1.944700002670288,0.1551000028848648,2.1975998878479004
1683008648275399700,15.181399658203125,1.9809999465942383,0.3156999945640564,1.5744999647140503
1683008648295399700,15.201399658203124,1.7637999057769775,0.22119998931884766,1.4493999481201172
1683008648315399700,15.221399658203126,1.569700002670288,0.044099997729063034,2.5886998176574707
1683008648335399700,15.241399658203125,1.264699935913086,0.20960000157356262,2.9463000297546387
1683008648355399700,15.261399658203125,0.1753999888896942,0.7271999716758728,1.8722000122070312
1683008648375399700,15.281399658203124,-0.6069999933242798,1.0113999843597412,0.6462000012397766
1683008648395399700,15.301399658203126,0.23839999735355377,0.755299985408783,0.08269999921321869
1683008648415399700,15.321399658203125,1.7704999446868896,0.29749998450279236,0.7172999978065491
1683008648435399700,15.341399658203125,2.9375998973846436,-0.03920000046491623,2.1057000160217285
1683008648455399700,15.361399658203124,2.4928998947143555,-0.30820000171661377,2.5887999534606934
1683008648475399700,15.381399658203126,0.8791999816894531,-0.3944999873638153,1.5029000043869019
1683008648495399700,15.401399658203125,-0.15349999070167542,-0.7443999648094177,0.48159998655319214
1683008648515399700,15.421399658203125,-0.7590000033378601,-0.873699963092804,-0.7001999616622925
1683008648535399700,15.441399658203125,-1.3622000217437744,-0.6908000111579895,-1.9406999349594116
1683008648555399700,15.461399658203124,-1.7028999328613281,-0.4519999921321869,-2.638000011444092
1683008648575399700,15.481399658203125,-1.5156999826431274,-0.2538999915122986,-2.6771998405456543
1683008648595401200,15.501401123046875,-1.254599928855896,-0.15369999408721924,-2.631899833679199
1683008648615399700,15.521399658203125,-1.0369999408721924,-0.18219999969005585,-2.8282999992370605
1683008648635401200,15.541401123046874,-0.7240999937057495,-0.2581000030040741,-3.0120999813079834
1683008648655399700,15.561399658203126,-0.26179999113082886,-0.19659999012947083,-2.843400001525879
1683008648675399700,15.581399658203125,0.00699999975040555,-0.05119999870657921,-2.4793999195098877
1683008648695401200,15.601401123046875,-0.10939999669790268,0.2028999924659729,-1.7640999555587769
1683008648715399700,15.621399658203124,-0.320499986410141,0.5112999677658081,-1.167099952697754
1683008648735399700,15.641399658203126,-0.4675000011920929,0.7339000105857849,-0.7455999851226807
1683008648755399700,15.661399658203125,-0.5932999849319458,0.8274999856948853,-0.2556000053882599
1683008648775401200,15.681401123046875,-0.5877999663352966,0.699400007724762,0.23559999465942383
1683008648795399700,15.701399658203124,-0.28689998388290405,0.3929999768733978,0.8784999847412109
1683008648815399700,15.721399658203126,0.17029999196529388,0.12999999523162842,1.7960999011993408
1683008648835402800,15.74140283203125,0.3467999994754791,0.033900000154972076,2.4457998275756836
1683008648855399700,15.761399658203125,0.3148999810218811,0.25540000200271606,2.4584999084472656
1683008648875399700,15.781399658203124,0.4528999924659729,0.22439999878406525,2.661799907684326
1683008648895399700,15.801399658203126,0.8140999674797058,-0.1525999903678894,3.3314998149871826
1683008648915401200,15.821401123046876,1.0061999559402466,-0.21869999170303345,3.2789998054504395
1683008648935399700,15.841399658203125,0.4271000027656555,-0.04309999942779541,2.378200054168701
1683008648955399700,15.861399658203124,-0.20269998908042908,0.12269999831914902,1.5318999290466309
1683008648975401200,15.881401123046874,-0.04829999804496765,-0.02239999920129776,1.5211999416351318
1683008648995399700,15.901399658203125,0.7069999575614929,-0.5843999981880188,2.901099920272827
1683008649015399700,15.921399658203125,1.3072999715805054,-1.0548999309539795,4.5416998863220215
1683008649035399700,15.941399658203125,1.2410999536514282,-1.1726999282836914,4.762700080871582
1683008649055401200,15.961401123046874,0.9529999494552612,-1.1047999858856201,3.1302998065948486
1683008649075399700,15.981399658203125,0.5015000104904175,-1.0241999626159668,0.9164999723434448
1683008649095399700,16.001399658203123,0.27320000529289246,-1.0648999214172363,-0.7537999749183655
1683008649115399700,16.021399658203126,-0.43789997696876526,-1.216499924659729,-2.0274999141693115
1683008649135401200,16.041401123046874,-1.4874999523162842,-1.2982999086380005,-2.9438998699188232
1683008649155399700,16.061399658203126,-2.0655999183654785,-1.254699945449829,-3.262699842453003
1683008649175399700,16.081399658203125,-2.0325000286102295,-1.3234999179840088,-3.176499843597412
1683008649195401200,16.101401123046877,-1.8753999471664429,-1.3914999961853027,-3.5110998153686523
1683008649215399700,16.121399658203124,-1.2875999212265015,-1.3040999174118042,-3.36299991607666
1683008649235402800,16.14140283203125,-0.7335999608039856,-1.090999960899353,-2.7102999687194824
1683008649255402800,16.16140283203125,-0.24689999222755432,-0.9115999937057495,-1.8016999959945679
1683008649275402800,16.18140283203125,0.1712999939918518,-0.6372999548912048,-1.055299997329712
1683008649295399700,16.201399658203126,0.4124999940395355,-0.32330000400543213,-0.7985999584197998
1683008649315399700,16.221399658203126,0.49629998207092285,-0.15779998898506165,-0.8888999819755554
1683008649335402800,16.24140283203125,0.6499999761581421,-0.029999999329447746,-0.7976999878883362
1683008649355402800,16.26140283203125,0.920699954032898,0.05900000035762787,-0.24529999494552612
1683008649375399700,16.281399658203124,1.2142999172210693,0.0004999999655410647,1.0195000171661377
1683008649395399700,16.301399658203124,1.4879000186920166,0.00019999999494757503,2.2407000064849854
1683008649415402800,16.32140283203125,1.459399938583374,0.12860000133514404,2.645699977874756
1683008649435402800,16.34140283203125,1.2975000143051147,0.4558999836444855,2.0446999073028564
1683008649455399700,16.361399658203126,1.301800012588501,0.27300000190734863,1.904099941253662
1683008649475402800,16.38140283203125,1.5968999862670898,-0.2669999897480011,2.79830002784729
1683008649495402800,16.40140283203125,1.8133999109268188,-0.19209998846054077,3.2933998107910156
1683008649515402800,16.42140283203125,1.4812999963760376,0.21040000021457672,3.2056000232696533
1683008649535399700,16.441399658203125,0.8468999862670898,0.9368000030517578,1.7078999280929565
1683008649555401200,16.461401123046876,0.6743999719619751,1.330399990081787,-0.004900000058114529
1683008649575399700,16.481399658203124,1.2958999872207642,1.108199954032898,-0.17719998955726624
1683008649595399700,16.501399658203123,1.4984999895095825,0.3447999954223633,1.1384999752044678
1683008649615399700,16.521399658203126,0.38089999556541443,-0.1014999970793724,1.7781000137329102
1683008649635401200,16.541401123046874,-1.0907999277114868,-0.13609999418258667,1.1832000017166138
1683008649655399700,16.561399658203126,-1.812399983406067,-0.2962000072002411,0.35429999232292175
1683008649675402800,16.58140283203125,-1.3125,-0.3157999813556671,-0.670699954032898
1683008649695399700,16.601399658203125,-0.8931999802589417,-0.45649999380111694,-1.5509999990463257
1683008649715399700,16.621399658203124,-0.8628999590873718,-0.6523000001907349,-2.2646000385284424
1683008649735402800,16.64140283203125,-1.0073000192642212,-0.7985999584197998,-2.6982998847961426
1683008649755402800,16.66140283203125,-1.1092000007629395,-0.8696999549865723,-2.7939999103546143
1683008649775402800,16.68140283203125,-1.0400999784469604,-0.8361999988555908,-2.832199811935425
1683008649795399700,16.701399658203126,-0.82669997215271,-0.7103999853134155,-2.8406999111175537
1683008649815399700,16.721399658203126,-0.3474999964237213,-0.5112000107765198,-2.5752999782562256
1683008649835401200,16.741401123046874,-0.19820000231266022,-0.3568999767303467,-2.183799982070923
1683008649855399700,16.761399658203125,-0.09719999879598618,-0.08689999580383301,-1.7633999586105347
1683008649875399700,16.781399658203124,-0.22439999878406525,0.10909999907016754,-1.4306999444961548
1683008649895399700,16.801399658203124,-0.4120999872684479,0.23229999840259552,-1.1072999238967896
1683008649915401200,16.821401123046876,-0.494299978017807,0.30570000410079956,-0.704800009727478
1683008649935399700,16.841399658203127,-0.5175999999046326,0.3861999809741974,-0.2924000024795532
1683008649955399700,16.861399658203126,-0.4010999798774719,0.4140999913215637,0.26649999618530273
1683008649975404300,16.881404296875,-0.18719999492168427,0.4560000002384186,1.0412999391555786
1683008649995399700,16.901399658203125,0.20499999821186066,0.8093999624252319,1.7958999872207642
1683008650015399700,16.921399658203125,0.4380999803543091,1.0677000284194946,2.629499912261963
1683008650035399700,16.941399658203125,0.11999999731779099,1.1895999908447266,2.8975000381469727
1683008650055401200,16.961401123046876,-0.33730000257492065,0.8434999585151672,2.796599864959717
1683008650075399700,16.981399658203124,-0.27639999985694885,0.01939999870955944,2.8394999504089355
1683008650095399700,17.001399658203123,0.015399999916553497,-0.740399956703186,3.2523000240325928
1683008650115399700,17.021399658203126,-0.12539999186992645,-0.7651000022888184,2.500699996948242
1683008650135401200,17.041401123046874,-0.4723999798297882,-0.27959999442100525,1.2192000150680542
1683008650155402800,17.06140283203125,-0.5597999691963196,0.07069999724626541,0.15609999001026154
1683008650175399700,17.081399658203125,-0.06799999624490738,-0.4528999924659729,0.7002999782562256
1683008650195399700,17.101399658203125,1.035099983215332,-1.1309000253677368,2.812999963760376
1683008650215399700,17.121399658203124,1.5518999099731445,-1.1417999267578125,4.68589973449707
1683008650235402800,17.14140283203125,1.086899995803833,-0.6976000070571899,4.322000026702881
1683008650255399700,17.161399658203123,0.2602999806404114,-0.5436999797821045,2.1903998851776123
1683008650275401200,17.181401123046875,0.15129999816417694,-0.6389999985694885,-0.35089999437332153
1683008650295399700,17.201399658203126,0.017999999225139618,-1.1270999908447266,-1.9824999570846558
1683008650315399700,17.221399658203126,-0.36820000410079956,-1.3695999383926392,-3.3357999324798584
1683008650335402800,17.24140283203125,-0.593999981880188,-1.5049999952316284,-3.9526000022888184
1683008650355399700,17.261399658203125,-0.8169999718666077,-1.4627999067306519,-3.6374998092651367
1683008650375399700,17.281399658203124,-0.9283999800682068,-1.1348999738693237,-3.0546000003814697
1683008650395402800,17.30140283203125,-0.6505999565124512,-0.8631999492645264,-2.4550998210906982
1683008650415402800,17.32140283203125,-0.034199997782707214,-0.6252999901771545,-2.0290000438690186
1683008650435399700,17.341399658203127,0.3791999816894531,-0.48539999127388,-1.7651000022888184
1683008650455399700,17.361399658203126,0.5015000104904175,-0.39980000257492065,-1.3737999200820923
1683008650475399700,17.381399658203126,0.4728999733924866,-0.2874000072479248,-1.1502000093460083
1683008650495402800,17.40140283203125,0.38909998536109924,-0.21040000021457672,-0.9244999885559082
1683008650515402800,17.42140283203125,0.511900007724762,-0.06629999727010727,-0.8924999833106995
1683008650535399700,17.441399658203125,0.6908000111579895,-0.04639999940991402,-0.7497000098228455
1683008650555401200,17.461401123046876,1.2472000122070312,-0.029999999329447746,-0.07639999687671661
1683008650575399700,17.481399658203124,1.739799976348877,0.0348999984562397,1.1713999509811401
1683008650595402800,17.50140283203125,1.7949999570846558,0.15479999780654907,2.1591999530792236
1683008650615399700,17.521399658203126,1.636099934577942,0.3822999894618988,2.664599895477295
1683008650635399700,17.541399658203126,1.4419000148773193,0.39229997992515564,2.948499917984009
1683008650655399700,17.561399658203126,1.3945000171661377,0.0843999981880188,3.251499891281128
1683008650675402800,17.58140283203125,1.4961999654769897,0.01269999984651804,3.0799999237060547
1683008650695402800,17.60140283203125,1.0820000171661377,0.13459999859333038,2.6257998943328857
1683008650715399700,17.621399658203124,0.42309999465942383,0.4684999883174896,1.6988999843597412
1683008650735399700,17.641399658203124,-0.211899995803833,0.9158999919891357,0.07509999722242355
1683008650755402800,17.66140283203125,-0.2784000039100647,0.9747999906539917,-1.0710999965667725
1683008650775402800,17.68140283203125,0.19499999284744263,0.4635999798774719,-0.1459999978542328
1683008650795399700,17.701399658203126,0.5794999599456787,-0.06809999793767929,1.625599980354309
1683008650815401200,17.721401123046874,-0.01939999870955944,-0.33489999175071716,2.7585999965667725
1683008650835401200,17.741401123046874,-0.5595999956130981,-0.540399968624115,2.30049991607666
1683008650855402800,17.76140283203125,-0.45639997720718384,-0.7455999851226807,0.6588999629020691
1683008650875402800,17.78140283203125,-0.30629998445510864,-1.097599983215332,-0.731499969959259
1683008650895399700,17.801399658203124,-0.44759997725486755,-1.3072999715805054,-2.015399932861328
1683008650915401200,17.821401123046876,-0.8890999555587769,-1.4175999164581299,-2.8890998363494873
1683008650935399700,17.841399658203127,-1.142300009727478,-1.1859999895095825,-3.155900001525879
1683008650955399700,17.861399658203126,-1.3655999898910522,-0.9477999806404114,-2.819700002670288
1683008650975401200,17.881401123046874,-1.3805999755859375,-0.5967999696731567,-2.7063000202178955
1683008650995399700,17.901399658203125,-1.0383999347686768,-0.28839999437332153,-2.4938998222351074
1683008651015399700,17.921399658203125,-0.6574999690055847,-0.007499999832361937,-2.213099956512451
1683008651035399700,17.941399658203125,-0.3942999839782715,0.19129998981952667,-1.6969000101089478
1683008651055401200,17.961401123046876,-0.42229998111724854,0.3515999913215637,-1.3579000234603882
1683008651075399700,17.981399658203124,-0.5084999799728394,0.6383999586105347,-1.0384999513626099
1683008651095402800,18.00140283203125,-0.4902999997138977,0.8154999613761902,-0.5708000063896179
1683008651115402800,18.02140283203125,-0.4765999913215637,0.8481000065803528,-0.023099999874830246
1683008651135401200,18.041401123046874,-0.41419997811317444,0.8323999643325806,0.5051000118255615
1683008651155405800,18.06140576171875,-0.2809000015258789,0.7728999853134155,1.1407999992370605
1683008651175401200,18.081401123046874,-0.02850000001490116,0.810699999332428,1.6682000160217285
1683008651195399700,18.101399658203125,0.1274999976158142,0.807699978351593,2.1069998741149902
1683008651215399700,18.121399658203124,0.1639000028371811,0.8098999857902527,2.5
1683008651235399700,18.141399658203124,0.16659998893737793,0.6139000058174133,2.8968000411987305
1683008651255402800,18.16140283203125,0.3553999960422516,0.0989999994635582,3.845599889755249
1683008651275401200,18.181401123046875,0.5485000014305115,-0.09779999405145645,3.949899911880493
1683008651295399700,18.201399658203126,0.5331999659538269,-0.2830999791622162,3.5279998779296875
1683008651315399700,18.221399658203126,0.4903999865055084,0.04129999876022339,2.4682998657226562
1683008651335402800,18.24140283203125,0.2732999920845032,0.21549999713897705,1.1923999786376953
1683008651355402800,18.26140283203125,0.31610000133514404,-0.1582999974489212,0.8242999911308289
1683008651375402800,18.28140283203125,0.9339999556541443,-0.6917999982833862,1.5765999555587769
1683008651395402800,18.30140283203125,1.292699933052063,-0.8905999660491943,2.0597000122070312
1683008651415402800,18.32140283203125,0.7908999919891357,-0.6373999714851379,1.5
1683008651435402800,18.34140283203125,0.09679999947547913,-0.41999998688697815,0.5764999985694885
1683008651455399700,18.361399658203126,0.06579999625682831,-0.19269999861717224,-0.42149999737739563
1683008651475401200,18.381401123046874,0.0819999948143959,-0.12929999828338623,-1.1978999376296997
1683008651495402800,18.40140283203125,-0.19689999520778656,-0.32339999079704285,-1.7775999307632446
1683008651515402800,18.42140283203125,-0.5325999855995178,-0.5794000029563904,-2.2230000495910645
1683008651535399700,18.441399658203125,-0.707099974155426,-0.8014000058174133,-2.688699960708618
1683008651555401200,18.461401123046876,-0.7157999873161316,-0.998199999332428,-2.994499921798706
1683008651575399700,18.481399658203124,-0.49799999594688416,-1.0368999242782593,-3.082199811935425
1683008651595399700,18.501399658203123,-0.21459999680519104,-1.1259000301361084,-2.691699981689453
1683008651615399700,18.521399658203126,-0.018799999728798866,-1.1420999765396118,-2.091099977493286
1683008651635399700,18.541399658203126,0.15359999239444733,-1.107800006866455,-1.465399980545044
1683008651655401200,18.561401123046874,0.3549000024795532,-0.9478999972343445,-1.280900001525879
1683008651675401200,18.581401123046874,0.5622000098228455,-0.7221999764442444,-1.2596999406814575
1683008651695402800,18.60140283203125,0.7708999514579773,-0.5690000057220459,-1.0893999338150024
1683008651715402800,18.62140283203125,1.0377999544143677,-0.49139997363090515,-0.48969998955726624
1683008651735399700,18.641399658203124,1.5584999322891235,-0.4757999777793884,0.5860999822616577
1683008651755399700,18.661399658203123,1.8563998937606812,-0.361299991607666,1.7747999429702759
1683008651775401200,18.681401123046875,1.9382998943328857,-0.06929999589920044,2.471799850463867
1683008651795399700,18.701399658203126,1.5161999464035034,0.40709999203681946,2.260699987411499
1683008651815399700,18.721399658203126,0.9156000018119812,0.6438999772071838,1.6763999462127686
1683008651835415300,18.741415283203125,1.0542999505996704,0.1590999960899353,2.172600030899048
1683008651855399700,18.761399658203125,1.3047999143600464,-0.18459999561309814,2.9175000190734863
1683008651875399700,18.781399658203124,0.6748999953269958,0.08429999649524689,2.1965999603271484
1683008651895399700,18.801399658203124,-0.13329999148845673,0.49309998750686646,0.873699963092804
1683008651915401200,18.821401123046876,-0.28790000081062317,0.5798999667167664,-0.44839999079704285
1683008651935399700,18.841399658203127,0.2797999978065491,0.4260999858379364,-0.8905999660491943
1683008651955399700,18.861399658203126,1.111199975013733,0.04050000011920929,0.18979999423027039
1683008651975401200,18.881401123046874,1.407099962234497,0.06399999558925629,1.5324000120162964
1683008651995402800,18.90140283203125,0.32989999651908875,0.13300000131130219,2.130499839782715
1683008652015402800,18.92140283203125,-0.5343999862670898,0.19110000133514404,1.967099905014038
1683008652035399700,18.941399658203125,-0.864799976348877,0.05289999768137932,1.4048999547958374
1683008652055399700,18.961399658203124,-0.5995000004768372,-0.026599999517202377,0.09939999878406525
1683008652075402800,18.98140283203125,-0.6805999875068665,-0.26809999346733093,-1.138800024986267
1683008652095402800,19.00140283203125,-1.1435999870300293,-0.5752999782562256,-2.162899971008301
1683008652115399700,19.021399658203126,-1.4424999952316284,-0.6944999694824219,-2.9354000091552734
1683008652135401200,19.041401123046874,-1.3811999559402466,-0.6425999999046326,-3.1432998180389404
1683008652155399700,19.061399658203126,-1.1450999975204468,-0.5205000042915344,-2.915099859237671
1683008652175399700,19.081399658203125,-0.8222999572753906,-0.28669998049736023,-2.7091000080108643
1683008652195401200,19.101401123046877,-0.6787999868392944,-0.13539999723434448,-2.338599920272827
1683008652215399700,19.121399658203124,-0.41909998655319214,0.1264999955892563,-1.8305999040603638
1683008652235399700,19.141399658203124,-0.3100000023841858,0.335999995470047,-1.5275999307632446
1683008652255399700,19.161399658203123,-0.38769999146461487,0.5525999665260315,-1.3418999910354614
1683008652275401200,19.181401123046875,-0.5638999938964844,0.7561999559402466,-1.0382000207901
1683008652295399700,19.201399658203126,-0.6937999725341797,0.8491999506950378,-0.5277999639511108
1683008652315399700,19.221399658203126,-0.6295999884605408,1.0135999917984009,-0.016699999570846558
1683008652335401200,19.241401123046874,-0.5085999965667725,0.8568999767303467,0.8282999992370605
1683008652355399700,19.261399658203125,-0.29729998111724854,0.7107999920845032,1.6826999187469482
1683008652375399700,19.281399658203124,-0.11419999599456787,0.6488999724388123,2.34060001373291
1683008652395399700,19.301399658203124,-0.11059999465942383,0.6978999972343445,2.695199966430664
1683008652415401200,19.321401123046876,-0.0357000008225441,0.3628999888896942,3.267400026321411
1683008652435399700,19.341399658203127,0.5895000100135803,-0.3127000033855438,4.224299907684326
1683008652455399700,19.361399658203126,1.128600001335144,-0.5703999996185303,4.457699775695801
1683008652475399700,19.381399658203126,0.7728999853134155,-0.1973000019788742,3.2136998176574707
1683008652495399700,19.401399658203125,0.0478999987244606,0.25689998269081116,1.402899980545044
1683008652515399700,19.421399658203125,0.1597999930381775,-0.26170000433921814,1.4031000137329102
1683008652535402800,19.44140283203125,0.9398999810218811,-1.07260000705719,3.0929999351501465
1683008652555402800,19.46140283203125,1.0673999786376953,-1.3574999570846558,4.604300022125244
1683008652575399700,19.481399658203124,0.448199987411499,-1.132599949836731,3.537400007247925
1683008652595399700,19.501399658203123,0.05419999733567238,-0.9972999691963196,1.6186000108718872
1683008652615399700,19.521399658203126,0.3651999831199646,-1.061900019645691,-0.47519999742507935
1683008652635401200,19.541401123046874,0.2809999883174896,-1.1615999937057495,-2.2238998413085938
1683008652655399700,19.561399658203126,-0.41359999775886536,-1.3482999801635742,-3.470899820327759
1683008652675399700,19.581399658203125,-0.977899968624115,-1.4142999649047852,-3.951900005340576
1683008652695401200,19.601401123046877,-1.286199927330017,-1.3418999910354614,-3.621500015258789
1683008652715401200,19.621401123046876,-1.1899999380111694,-1.059999942779541,-2.977099895477295
1683008652735399700,19.641399658203124,-0.6832999587059021,-0.7892999649047852,-2.374799966812134
1683008652755399700,19.661399658203123,-0.2410999983549118,-0.6606000065803528,-1.8885999917984009
1683008652775402800,19.68140283203125,0.1573999971151352,-0.6359999775886536,-1.6066999435424805
1683008652795402800,19.70140283203125,0.5242999792098999,-0.7416999936103821,-1.4606999158859253
1683008652815399700,19.721399658203126,0.6953999996185303,-0.823199987411499,-1.351099967956543
1683008652835401200,19.741401123046874,0.6430000066757202,-0.8242999911308289,-1.4824999570846558
1683008652855402800,19.76140283203125,0.6205999851226807,-0.7037999629974365,-1.5333999395370483
1683008652875402800,19.78140283203125,0.8255999684333801,-0.5813999772071838,-1.1830999851226807
1683008652895401200,19.801401123046876,1.1407999992370605,-0.45389997959136963,-0.16939999163150787
1683008652915399700,19.821399658203124,1.462999939918518,-0.3595999777317047,1.1928999423980713
1683008652935402800,19.84140283203125,1.6798999309539795,-0.20269998908042908,2.3660998344421387
1683008652955399700,19.861399658203126,1.4882999658584595,0.21939998865127563,2.5680999755859375
1683008652975399700,19.881399658203126,0.8134999871253967,0.5898000001907349,1.7559999227523804
1683008652995399700,19.901399658203125,0.5374999642372131,0.5239999890327454,1.6523000001907349
1683008653015402800,19.92140283203125,0.6757999658584595,0.05040000006556511,3.4038000106811523
1683008653035399700,19.941399658203125,0.17499999701976776,0.27549999952316284,3.575899839401245
1683008653055401200,19.961401123046876,-0.9833999872207642,1.0705000162124634,1.5298999547958374
1683008653075399700,19.981399658203124,-1.5348999500274658,0.8317999839782715,-0.2150999903678894
1683008653095402800,20.00140283203125,-0.204599991440773,0.3018999993801117,-0.6665999889373779
1683008653115399700,20.021399658203126,1.4910999536514282,-0.4405999779701233,0.4702000021934509
1683008653135401200,20.041401123046874,2.6747000217437744,-0.6541000008583069,1.8950999975204468
1683008653155399700,20.061399658203126,2.4595999717712402,-0.6615999937057495,2.6552999019622803
1683008653175399700,20.081399658203125,1.104200005531311,-0.609499990940094,2.1664998531341553
1683008653195399700,20.101399658203125,0.15029999613761902,-0.5169999599456787,0.9217000007629395
1683008653215402800,20.12140283203125,-0.2563999891281128,-0.23389999568462372,-0.5051999688148499
1683008653235399700,20.141399658203124,-0.9652999639511108,-0.09369999915361404,-1.6552999019622803
1683008653255399700,20.161399658203123,-1.6354999542236328,-0.026499999687075615,-2.681999921798706
1683008653275401200,20.181401123046875,-1.780900001525879,0.045899998396635056,-3.243799924850464
1683008653295402800,20.20140283203125,-1.4055999517440796,0.11589999496936798,-3.183199882507324
1683008653315399700,20.221399658203126,-0.9172999858856201,0.22789999842643738,-2.9793999195098877
1683008653335402800,20.24140283203125,-0.6398000121116638,0.2696000039577484,-2.6982998847961426
1683008653355399700,20.261399658203125,-0.28039997816085815,0.3774999976158142,-2.5137999057769775
1683008653375402800,20.28140283203125,0.004100000020116568,0.5705999732017517,-2.15120005607605
1683008653395399700,20.301399658203124,-0.07239999622106552,0.7428999543190002,-1.5828999280929565
1683008653415401200,20.321401123046876,-0.3594000041484833,1.0097999572753906,-1.1627999544143677
1683008653435401200,20.341401123046875,-0.5397999882698059,1.1232999563217163,-0.614799976348877
1683008653455402800,20.36140283203125,-0.6129999756813049,1.2056999206542969,-0.08619999885559082
1683008653475399700,20.381399658203126,-0.5623999834060669,0.9585999846458435,0.5605999827384949
1683008653495399700,20.401399658203125,-0.08329999446868896,0.6344999670982361,1.1395999193191528
1683008653515402800,20.42140283203125,0.41009998321533203,0.5288000106811523,1.786099910736084
1683008653535402800,20.44140283203125,0.578000009059906,0.5327999591827393,2.433199882507324
1683008653555401200,20.461401123046876,0.3986999988555908,0.412200003862381,2.8557000160217285
1683008653575399700,20.481399658203124,0.2565999925136566,0.025100000202655792,3.2904999256134033
1683008653595402800,20.50140283203125,0.3991999924182892,-0.5945000052452087,3.9848999977111816
1683008653615402800,20.52140283203125,0.5464999675750732,-0.7752000093460083,3.9355998039245605
1683008653635399700,20.541399658203126,0.38019999861717224,-0.343999981880188,3.1731998920440674
1683008653655399700,20.561399658203126,-0.14389999210834503,0.15549999475479126,1.8605999946594238
1683008653675402800,20.58140283203125,-0.4147000014781952,0.1516999900341034,0.3203999996185303
1683008653695402800,20.60140283203125,-0.09559999406337738,-0.5690000057220459,0.19929999113082886
1683008653715399700,20.621399658203124,0.933899998664856,-1.5930999517440796,1.4643999338150024
1683008653735399700,20.641399658203124,1.879599928855896,-2.0002999305725098,2.608099937438965
1683008653755399700,20.661399658203123,1.7989000082015991,-1.539099931716919,2.2059998512268066
1683008653775402800,20.68140283203125,0.821399986743927,-1.268399953842163,1.0842000246047974
1683008653795399700,20.701399658203126,0.19669999182224274,-0.9557999968528748,-0.3188999891281128
1683008653815401200,20.721401123046874,-0.1451999992132187,-0.8288999795913696,-1.341599941253662
1683008653835404300,20.741404296875,-0.4959999918937683,-0.6389999985694885,-2.102099895477295
1683008653855402800,20.76140283203125,-1.0442999601364136,-0.4682999849319458,-2.5116000175476074
1683008653875399700,20.781399658203124,-1.3625999689102173,-0.37359997630119324,-2.564499855041504
1683008653895401200,20.801401123046876,-1.24809992313385,-0.30809998512268066,-2.561300039291382
1683008653915401200,20.821401123046876,-0.8344999551773071,-0.3814999759197235,-2.5762999057769775
1683008653935399700,20.841399658203127,-0.21289999783039093,-0.5023999810218811,-2.4054999351501465
1683008653955401200,20.861401123046875,0.27889999747276306,-0.5888999700546265,-2.089400053024292
1683008653975399700,20.881399658203126,0.4553000032901764,-0.5430999994277954,-1.6674000024795532
1683008653995399700,20.901399658203125,0.36739999055862427,-0.45260000228881836,-1.3040999174118042
1683008654015399700,20.921399658203125,0.4065999984741211,-0.3652999997138977,-0.9382999539375305
1683008654035399700,20.941399658203125,0.6913999915122986,-0.23279999196529388,-0.5898999571800232
1683008654055401200,20.961401123046876,1.114300012588501,-0.18239998817443848,0.15060000121593475
1683008654075399700,20.981399658203124,1.5358999967575073,-0.13419999182224274,1.240299940109253
1683008654095402800,21.00140283203125,1.876599907875061,-0.11739999800920486,2.2973999977111816
1683008654115402800,21.02140283203125,1.9879999160766602,0.1404999941587448,2.745800018310547
1683008654135401200,21.041401123046874,1.7831000089645386,0.2483000010251999,2.601099967956543
1683008654155401200,21.061401123046874,1.6074999570846558,-0.0632999986410141,2.8076000213623047
1683008654175399700,21.081399658203125,1.5491999387741089,-0.41279998421669006,3.4498000144958496
1683008654195399700,21.101399658203125,1.1187000274658203,-0.3401999771595001,3.3942999839782715
1683008654215399700,21.121399658203124,0.3893999755382538,0.3779999911785126,1.9928998947143555
1683008654235399700,21.141399658203124,-0.536799967288971,1.111899971961975,-0.3278000056743622
1683008654255399700,21.161399658203123,-0.5015999674797058,1.3776999711990356,-1.7670999765396118
1683008654275401200,21.181401123046875,-0.0072999997064471245,0.9039999842643738,-1.1632000207901
1683008654295399700,21.201399658203126,0.5436999797821045,0.3905999958515167,0.9451999664306641
1683008654315399700,21.221399658203126,0.18199999630451202,-0.028099998831748962,2.9696998596191406
1683008654335401200,21.241401123046874,-0.5656999945640564,-0.42579999566078186,2.962899923324585
1683008654355402800,21.26140283203125,-0.5565999746322632,-0.9110999703407288,1.347000002861023
1683008654375399700,21.281399658203124,0.09829999506473541,-1.2619999647140503,-0.42489999532699585
1683008654395399700,21.301399658203124,-0.016200000420212746,-1.4318000078201294,-1.8802999258041382
1683008654415401200,21.321401123046876,-0.5751000046730042,-1.3880000114440918,-2.9666998386383057
1683008654435399700,21.341399658203127,-1.267899990081787,-1.2411999702453613,-3.380999803543091
1683008654455399700,21.361399658203126,-1.625499963760376,-0.9091999530792236,-3.268699884414673
1683008654475399700,21.381399658203126,-1.4645999670028687,-0.45639997720718384,-2.9433999061584473
1683008654495401200,21.401401123046874,-0.9648999571800232,-0.14270000159740448,-2.4289000034332275
1683008654515401200,21.421401123046873,-0.4625999927520752,0.15289999544620514,-1.9910999536514282
1683008654535399700,21.441399658203125,-0.23999999463558197,0.3304999768733978,-1.6032999753952026
1683008654555401200,21.461401123046876,-0.24539999663829803,0.4973999857902527,-1.285599946975708
1683008654575399700,21.481399658203124,-0.30399999022483826,0.7240999937057495,-1.2412999868392944
1683008654595399700,21.501399658203123,-0.3360999822616577,0.9485999941825867,-1.2014999389648438
1683008654615401200,21.521401123046875,-0.4301999807357788,1.1618000268936157,-0.9231999516487122
1683008654635401200,21.541401123046874,-0.6274999976158142,1.3133000135421753,-0.4693000018596649
1683008654655399700,21.561399658203126,-0.9587999582290649,1.2293999195098877,0.25609999895095825
1683008654675399700,21.581399658203125,-0.986799955368042,1.1195999383926392,1.195199966430664
1683008654695399700,21.601399658203125,-0.8359000086784363,1.0368000268936157,2.3101999759674072
1683008654715401200,21.621401123046876,-0.7246999740600586,0.9644999504089355,3.0820000171661377
1683008654735399700,21.641399658203124,-0.6700999736785889,0.7446999549865723,3.198199987411499
1683008654755399700,21.661399658203123,-0.08339999616146088,0.12389999628067017,2.8200998306274414
1683008654775401200,21.681401123046875,0.6430999636650085,-0.34779998660087585,2.654399871826172
1683008654795399700,21.701399658203126,0.8756999969482422,-0.6383000016212463,2.644700050354004
1683008654815401200,21.721401123046874,0.6722999811172485,-0.29350000619888306,2.131500005722046
1683008654835399700,21.741399658203125,0.24709999561309814,-0.027899999171495438,1.5463999509811401
1683008654855399700,21.761399658203125,0.4404999911785126,-0.3822999894618988,1.7824000120162964
1683008654875402800,21.78140283203125,1.1539000272750854,-0.9225999712944031,2.805500030517578
1683008654895401200,21.801401123046876,1.6521999835968018,-1.1554999351501465,3.6277999877929688
1683008654915401200,21.821401123046876,1.4386999607086182,-1.0714999437332153,3.356299877166748
1683008654935399700,21.841399658203127,0.7221999764442444,-0.8414999842643738,2.0267999172210693
1683008654955399700,21.861399658203126,0.2839999794960022,-0.6406999826431274,0.17389999330043793
1683008654975401200,21.881401123046874,0.15160000324249268,-0.5716999769210815,-1.597599983215332
1683008654995399700,21.901399658203125,0.10189999639987946,-0.5449999570846558,-3.00600004196167
1683008655015399700,21.921399658203125,-0.16759999096393585,-0.7730000019073486,-3.767899990081787
1683008655035399700,21.941399658203125,-0.5065999627113342,-0.9454999566078186,-3.910799980163574
1683008655055401200,21.961401123046876,-1.017899990081787,-0.972599983215332,-3.4560999870300293
1683008655075399700,21.981399658203124,-1.1675000190734863,-0.7960000038146973,-2.635499954223633
1683008655095402800,22.00140283203125,-0.9350999593734741,-0.6392999887466431,-1.82669997215271
1683008655115399700,22.021399658203126,-0.49049997329711914,-0.5266000032424927,-1.1755999326705933
1683008655135401200,22.041401123046874,0.19219999015331268,-0.49379998445510864,-0.7597999572753906
1683008655155399700,22.061399658203126,0.7353000044822693,-0.42559999227523804,-0.6172999739646912
1683008655175399700,22.081399658203125,1.007200002670288,-0.32889997959136963,-0.5023999810218811
1683008655195402800,22.10140283203125,1.1144999265670776,-0.2451999932527542,-0.4542999863624573
1683008655215399700,22.121399658203124,1.3258999586105347,-0.28139999508857727,-0.13040000200271606
1683008655235399700,22.141399658203124,1.7716999053955078,-0.4388999938964844,0.6252999901771545
1683008655255399700,22.161399658203123,2.106600046157837,-0.4666999876499176,1.4017999172210693
1683008655275401200,22.181401123046875,2.0557000637054443,-0.37439998984336853,1.689099907875061
1683008655295402800,22.20140283203125,1.5899999141693115,-0.26249998807907104,1.0471999645233154
1683008655315399700,22.221399658203126,1.3104000091552734,-0.6880999803543091,1.0361000299453735
1683008655335401200,22.241401123046874,1.4169999361038208,-1.108299970626831,2.2411999702453613
1683008655355401200,22.261401123046873,1.0479999780654907,-1.034500002861023,3.433499813079834
1683008655375399700,22.281399658203124,0.5557000041007996,-0.1111999973654747,2.958199977874756
1683008655395401200,22.301401123046876,-0.04189999774098396,0.6424999833106995,1.200600028038025
1683008655415401200,22.321401123046876,1.0015000104904175,0.8941999673843384,0.01549999974668026
1683008655435399700,22.341399658203127,2.4052000045776367,0.5843999981880188,0.6295999884605408
1683008655455399700,22.361399658203126,2.8660998344421387,0.48019999265670776,1.8644999265670776
1683008655475399700,22.381399658203126,1.3114999532699585,0.10399999469518661,2.5550999641418457
1683008655495399700,22.401399658203125,-0.07490000128746033,0.02719999849796295,2.0232999324798584
1683008655515399700,22.421399658203125,-0.9091999530792236,-0.5169999599456787,0.6579999923706055
1683008655535399700,22.441399658203125,-0.7870999574661255,-0.8039000034332275,-1.2681000232696533
1683008655555401200,22.461401123046876,-0.8015999794006348,-0.7724999785423279,-2.8529999256134033
1683008655575399700,22.481399658203124,-0.8379999995231628,-0.5404999852180481,-3.7197999954223633
1683008655595402800,22.50140283203125,-1.0127999782562256,-0.35009998083114624,-3.593400001525879
1683008655615399700,22.521399658203126,-1.3865000009536743,-0.17599999904632568,-3.289299964904785
1683008655635401200,22.541401123046874,-1.5396000146865845,-0.0632999986410141,-3.1131999492645264
1683008655655399700,22.561399658203126,-1.2408000230789185,0.11559999734163284,-2.805999994277954
1683008655675401200,22.581401123046874,-0.6987999677658081,0.34630000591278076,-2.3210999965667725
1683008655695399700,22.601399658203125,-0.3495999872684479,0.49229997396469116,-1.740399956703186
1683008655715401200,22.621401123046876,-0.20889998972415924,0.6171999573707581,-1.2688000202178955
1683008655735399700,22.641399658203124,-0.2531999945640564,0.7404999732971191,-0.9230999946594238
1683008655755399700,22.661399658203123,-0.27079999446868896,0.9687999486923218,-0.7224000096321106
1683008655775402800,22.68140283203125,-0.22669999301433563,1.056999921798706,-0.2654999792575836
1683008655795402800,22.70140283203125,-0.25509998202323914,1.0529999732971191,0.2506999969482422
1683008655815399700,22.721399658203126,-0.250900000333786,0.9634999632835388,1.0699999332427979
1683008655835401200,22.741401123046874,-0.257999986410141,0.8335999846458435,2.1211998462677
1683008655855399700,22.761399658203125,-0.4193999767303467,0.7300999760627747,2.846099853515625
1683008655875402800,22.78140283203125,-0.4244999885559082,0.6108999848365784,2.9639999866485596
1683008655895402800,22.80140283203125,0.0714000016450882,0.15029999613761902,2.646399974822998
1683008655915401200,22.821401123046876,0.7179999947547913,-0.40459999442100525,2.735499858856201
1683008655935399700,22.841399658203127,0.8107999563217163,-0.5543000102043152,2.481799840927124
1683008655955399700,22.861399658203126,0.49129998683929443,-0.31630000472068787,1.746899962425232
1683008655975402800,22.88140283203125,0.27230000495910645,0.065700002014637,1.3047000169754028
1683008655995402800,22.90140283203125,0.4936999976634979,0.06619999557733536,1.851599931716919
1683008656015399700,22.921399658203125,1.0828999280929565,-0.42170000076293945,3.5966999530792236
1683008656035399700,22.941399658203125,1.3210999965667725,-1.0988999605178833,5.292599678039551
1683008656055399700,22.961399658203124,0.98499995470047,-1.5042999982833862,4.338799953460693
1683008656075399700,22.981399658203124,0.5767999887466431,-1.8393999338150024,2.3752999305725098
1683008656095402800,23.00140283203125,0.7410999536514282,-2.087100028991699,0.32889997959136963
1683008656115402800,23.02140283203125,0.820099949836731,-1.8543999195098877,-1.6088999509811401
1683008656135402800,23.04140283203125,0.211899995803833,-1.5534999370574951,-2.9485998153686523
1683008656155399700,23.061399658203126,-1.0923999547958374,-1.1237999200820923,-3.8090999126434326
1683008656175399700,23.081399658203125,-2.06469988822937,-0.7549999952316284,-3.720399856567383
1683008656195401200,23.101401123046877,-1.9189999103546143,-0.691100001335144,-3.1928999423980713
1683008656215402800,23.12140283203125,-1.6279000043869019,-0.46789997816085815,-2.7827999591827393
1683008656235399700,23.141399658203124,-1.281499981880188,-0.3206000030040741,-2.3128998279571533
1683008656255399700,23.161399658203123,-0.7408999800682068,-0.3507999777793884,-1.8743000030517578
1683008656275401200,23.181401123046875,-0.23639999330043793,-0.4447999894618988,-1.674399971961975
1683008656295399700,23.201399658203126,0.09129999577999115,-0.46299999952316284,-1.6923999786376953
1683008656315401200,23.221401123046874,0.2224999964237213,-0.33559998869895935,-1.494499921798706
1683008656335402800,23.24140283203125,0.3237999975681305,-0.025200000032782555,-1.031499981880188
1683008656355399700,23.261399658203125,0.3561999797821045,0.20149999856948853,-0.35249999165534973
1683008656375399700,23.281399658203124,0.6909999847412109,0.3075999915599823,0.5602999925613403
1683008656395399700,23.301399658203124,0.8964999914169312,0.32339999079704285,1.6854000091552734
1683008656415401200,23.321401123046876,1.0205999612808228,0.32819998264312744,3.150599956512451
1683008656435399700,23.341399658203127,0.8137999773025513,0.5185999870300293,3.517899990081787
1683008656455399700,23.361399658203126,0.09009999781847,0.6118999719619751,2.4114999771118164
1683008656475399700,23.381399658203126,-0.007199999876320362,0.2401999980211258,1.6280999183654785
1683008656495399700,23.401399658203125,0.597000002861023,-0.4659999907016754,2.9540998935699463
1683008656515399700,23.421399658203125,1.0484999418258667,-0.28929999470710754,3.7129998207092285
1683008656535399700,23.441399658203125,0.4851999878883362,0.2955999970436096,2.5748000144958496
1683008656555401200,23.461401123046876,0.0762999951839447,0.655299961566925,0.1362999975681305
1683008656575399700,23.481399658203124,0.7020999789237976,0.5841999650001526,-1.6039999723434448
1683008656595399700,23.501399658203123,1.6103999614715576,0.10569999366998672,-1.403999924659729
1683008656615399700,23.521399658203126,2.4998998641967773,-0.5062999725341797,0.36149999499320984
1683008656635401200,23.541401123046874,2.0855000019073486,-0.8567999601364136,2.184000015258789
1683008656655399700,23.561399658203126,0.6098999977111816,-0.7849000096321106,2.1826999187469482
1683008656675399700,23.581399658203125,-0.3953000009059906,-0.5394999980926514,1.0479999780654907
1683008656695401200,23.601401123046877,-0.6326000094413757,-0.4504999816417694,-0.3009999990463257
1683008656715401200,23.621401123046876,-0.3416999876499176,-0.25049999356269836,-1.671199917793274
1683008656735399700,23.641399658203124,-0.5248000025749207,-0.12780000269412994,-2.7360999584198
1683008656755402800,23.66140283203125,-0.8570999503135681,-0.06059999763965607,-3.1004998683929443
1683008656775401200,23.681401123046875,-1.1136000156402588,-0.05849999934434891,-3.0314998626708984
1683008656795399700,23.701399658203126,-1.2369999885559082,0.02159999869763851,-2.897199869155884
1683008656815399700,23.721399658203126,-0.9511999487876892,0.1396999955177307,-2.536799907684326
1683008656835399700,23.741399658203125,-0.5676000118255615,0.26659998297691345,-2.06850004196167
1683008656855399700,23.761399658203125,-0.4399999976158142,0.26919999718666077,-1.5214999914169312
1683008656875399700,23.781399658203124,-0.42729997634887695,0.3856000006198883,-1.0633000135421753
1683008656895402800,23.80140283203125,-0.3877999782562256,0.4131999909877777,-0.4377000033855438
1683008656915401200,23.821401123046876,-0.41189998388290405,0.42899999022483826,-0.026899999007582664
1683008656935399700,23.841399658203127,-0.46230000257492065,0.46369999647140503,-0.00699999975040555
1683008656955399700,23.861399658203126,-0.4834999740123749,0.40070000290870667,-0.03399999812245369
1683008656975399700,23.881399658203126,-0.2791000008583069,0.30730000138282776,0.17629998922348022
1683008656995399700,23.901399658203125,-0.0828000009059906,0.24969999492168427,0.8276999592781067
1683008657015399700,23.921399658203125,0.0486999973654747,0.2678999900817871,1.466399908065796
1683008657035399700,23.941399658203125,0.09179999679327011,0.27719998359680176,2.259999990463257
1683008657055401200,23.961401123046876,0.10159999877214432,0.13689999282360077,3.024899959564209
1683008657075399700,23.981399658203124,0.3310000002384186,-0.25589999556541443,3.930499792098999
1683008657095401200,24.001401123046875,0.8465999960899353,-0.3959999978542328,4.133999824523926
1683008657115399700,24.021399658203126,1.0746999979019165,-0.27730000019073486,3.5288000106811523
1683008657135401200,24.041401123046874,0.6966999769210815,0.21369999647140503,2.246799945831299
1683008657155399700,24.061399658203126,0.17559999227523804,0.46209999918937683,0.5914999842643738
1683008657175399700,24.081399658203125,0.16380000114440918,0.0835999995470047,-0.07289999723434448
1683008657195401200,24.101401123046877,0.7651000022888184,-1.0250999927520752,0.9435999989509583
1683008657215399700,24.121399658203124,1.847599983215332,-1.5465999841690063,1.8940999507904053
1683008657235399700,24.141399658203124,1.3765000104904175,-1.6886999607086182,2.3750998973846436
1683008657255399700,24.161399658203123,0.4921000003814697,-1.3285999298095703,1.5793999433517456
1683008657275401200,24.181401123046875,-0.3937000036239624,-1.1239999532699585,0.22769999504089355
1683008657295399700,24.201399658203126,-0.710599958896637,-0.9686999917030334,-1.0971999168395996
1683008657315399700,24.221399658203126,-0.7268999814987183,-0.9540999531745911,-1.865399956703186
1683008657335402800,24.24140283203125,-0.9038999676704407,-0.8740999698638916,-2.291800022125244
1683008657355402800,24.26140283203125,-1.1131999492645264,-0.8168999552726746,-2.420599937438965
1683008657375399700,24.281399658203124,-1.0543999671936035,-0.7371999621391296,-2.650599956512451
1683008657395399700,24.301399658203124,-0.7192999720573425,-0.7132999897003174,-2.78059983253479
1683008657415401200,24.321401123046876,-0.2474999874830246,-0.6621999740600586,-2.682799816131592
1683008657435399700,24.341399658203127,0.001500000013038516,-0.5916999578475952,-2.40939998626709
1683008657455399700,24.361399658203126,0.05959999933838844,-0.4846999943256378,-1.855199933052063
1683008657475399700,24.381399658203126,-0.03269999846816063,-0.30959999561309814,-1.2360999584197998
1683008657495399700,24.401399658203125,0.08619999885559082,-0.05999999865889549,-0.7554000020027161
1683008657515399700,24.421399658203125,0.09109999984502792,0.11069999635219574,-0.3732999861240387
1683008657535399700,24.441399658203125,0.0729999989271164,0.20600000023841858,0.00989999994635582
1683008657555401200,24.461401123046876,0.2671999931335449,0.14739999175071716,0.6098999977111816
1683008657575399700,24.481399658203124,0.8398999571800232,-0.04079999774694443,1.53249990940094
1683008657595399700,24.501399658203123,1.4747999906539917,-0.14229999482631683,2.462599992752075
1683008657615399700,24.521399658203126,1.4958999156951904,0.034199997782707214,2.71560001373291
1683008657635399700,24.541399658203126,1.110700011253357,0.366599977016449,2.120499849319458
1683008657655399700,24.561399658203126,1.166100025177002,0.15770000219345093,2.5118000507354736
1683008657675399700,24.581399658203125,1.4067999124526978,-0.09559999406337738,3.2662999629974365
1683008657695402800,24.60140283203125,0.9803999662399292,0.23579999804496765,2.4385998249053955
1683008657715402800,24.62140283203125,0.11889999359846115,0.7199999690055847,0.740399956703186
1683008657735399700,24.641399658203124,-0.02279999852180481,0.8959999680519104,-0.6492999792098999
1683008657755399700,24.661399658203123,0.8230999708175659,0.6155999898910522,-0.6229000091552734
1683008657775401200,24.681401123046875,1.6845999956130981,0.1111999973654747,0.9398999810218811
1683008657795399700,24.701399658203126,1.9257999658584595,-0.26179999113082886,2.6449999809265137
