time,seconds_elapsed,z,y,x
1683008633115399700,0.021399658203125,2.7973999977111816,-0.9924999475479126,9.346599578857422
1683008633135402800,0.04140283203125,2.7973999977111816,-0.9924999475479126,9.346599578857422
1683008633155407600,0.06140771484375,2.7973999977111816,-0.9924999475479126,9.346599578857422
1683008633175399700,0.081399658203125,0.9888999462127686,-0.545199990272522,9.741399765014648
1683008633195402800,0.10140283203125,0.9991999864578247,-0.5430999994277954,9.740399360656738
1683008633215402800,0.12140283203125,1.0728999376296997,-0.5327999591827393,9.733200073242188
1683008633235399700,0.141399658203125,1.1859999895095825,-0.5988999605178833,9.71619987487793
1683008633255401200,0.161401123046875,1.225600004196167,-0.6132999658584595,9.710399627685547
1683008633275399700,0.181399658203125,1.2864999771118164,-0.6125999689102173,9.702499389648438
1683008633295399700,0.201399658203125,1.3478000164031982,-0.5977999567985535,9.695099830627441
1683008633315399700,0.221399658203125,1.3745999336242676,-0.5902999639511108,9.691800117492676
1683008633335401200,0.241401123046875,1.441100001335144,-0.5490999817848206,9.684599876403809
1683008633355399700,0.261399658203125,1.5058999061584473,-0.4659999907016754,9.679100036621094
1683008633375402800,0.28140283203125,1.5490999221801758,-0.38089999556541443,9.675999641418457
1683008633395399700,0.301399658203125,1.645900011062622,-0.3123999834060669,9.662399291992188
1683008633415401200,0.321401123046875,1.7720999717712402,-0.2513999938964844,9.641900062561035
1683008633435402800,0.34140283203125,1.8289999961853027,-0.2586999833583832,9.630999565124512
1683008633455402800,0.36140283203125,1.8750998973846436,-0.27230000495910645,9.62179946899414
1683008633475402800,0.38140283203125,1.9391999244689941,-0.26809999346733093,9.609199523925781
1683008633495402800,0.40140283203125,2.0262999534606934,-0.2069999873638153,9.592700004577637
1683008633515399700,0.421399658203125,2.107599973678589,-0.0982000008225441,9.576899528503418
1683008633535399700,0.441399658203125,2.1830999851226807,0.009099999442696571,9.560500144958496
1683008633555399700,0.461399658203125,2.2734999656677246,0.11859999597072601,9.538700103759766
1683008633575399700,0.481399658203125,2.334399938583374,0.18479999899864197,9.522899627685547
1683008633595402800,0.50140283203125,2.359999895095825,0.2312999963760376,9.515600204467773
1683008633615401200,0.521401123046875,2.364500045776367,0.28669998049736023,9.512899398803711
1683008633635402800,0.54140283203125,2.3443000316619873,0.34540000557899475,9.515999794006348
1683008633655399700,0.561399658203125,2.3125998973846436,0.3781999945640564,9.522500038146973
1683008633675402800,0.58140283203125,2.288100004196167,0.39319998025894165,9.527799606323242
1683008633695402800,0.60140283203125,2.2767999172210693,0.3886999785900116,9.530699729919434
1683008633715399700,0.621399658203125,2.2360000610351562,0.3686999976634979,9.541199684143066
1683008633735402800,0.64140283203125,2.2002999782562256,0.3610999882221222,9.549699783325195
1683008633755402800,0.66140283203125,2.192699909210205,0.37379997968673706,9.550999641418457
1683008633775399700,0.681399658203125,2.2179999351501465,0.3871999979019165,9.544599533081055
1683008633795399700,0.701399658203125,2.257200002670288,0.39409998059272766,9.535099983215332
1683008633815399700,0.721399658203125,2.272899866104126,0.3926999866962433,9.531499862670898
1683008633835399700,0.741399658203125,2.2431998252868652,0.37209999561309814,9.539299964904785
1683008633855402800,0.76140283203125,2.2194998264312744,0.3594000041484833,9.54539966583252
1683008633875402800,0.78140283203125,2.198199987411499,0.36910000443458557,9.54990005493164
1683008633895399700,0.801399658203125,2.1559998989105225,0.39879998564720154,9.558300018310547
1683008633915399700,0.821399658203125,2.1036999225616455,0.4267999827861786,9.56879997253418
1683008633935402800,0.84140283203125,2.069200038909912,0.48649999499320984,9.573399543762207
1683008633955399700,0.861399658203125,2.044600009918213,0.5598999857902527,9.574699401855469
1683008633975401200,0.881401123046875,2.0318000316619873,0.6072999835014343,9.574600219726562
1683008633995402800,0.90140283203125,2.037099838256836,0.6449999809265137,9.571000099182129
1683008634015402800,0.92140283203125,2.045799970626831,0.6588000059127808,9.56820011138916
1683008634035399700,0.941399658203125,2.044100046157837,0.6723999977111816,9.567599296569824
1683008634055402800,0.96140283203125,2.0307998657226562,0.6732000112533569,9.570399284362793
1683008634075399700,0.981399658203125,1.994399905204773,0.6764000058174133,9.577799797058105
1683008634095399700,1.001399658203125,1.9417999982833862,0.6832000017166138,9.588099479675293
1683008634115401200,1.021401123046875,1.9113999605178833,0.6722999811172485,9.594999313354492
1683008634135399700,1.041399658203125,1.9138998985290527,0.6441999673843384,9.596399307250977
1683008634155399700,1.061399658203125,1.9357999563217163,0.616599977016449,9.593799591064453
1683008634175399700,1.081399658203125,1.903999924659729,0.6044999957084656,9.60099983215332
1683008634195402800,1.10140283203125,1.8466999530792236,0.6026999950408936,9.612299919128418
1683008634215402800,1.12140283203125,1.9246000051498413,0.633899986743927,9.594999313354492
1683008634235399700,1.141399658203125,2.0957000255584717,0.635699987411499,9.558899879455566
1683008634255401200,1.161401123046875,2.2702999114990234,0.5521999597549438,9.524199485778809
1683008634275399700,1.181399658203125,2.3457000255584717,0.4940999746322632,9.509099960327148
1683008634295402800,1.20140283203125,2.242799997329712,0.5932999849319458,9.528200149536133
1683008634315402800,1.22140283203125,2.139699935913086,0.7863999605178833,9.5378999710083
1683008634335401200,1.241401123046875,2.157599925994873,0.9314000010490417,9.52079963684082
1683008634355399700,1.261399658203125,2.271199941635132,1.0002999305725098,9.48740005493164
1683008634375399700,1.281399658203125,2.387699842453003,1.055799961090088,9.452699661254883
1683008634395399700,1.301399658203125,2.4711999893188477,1.117799997329712,9.424099922180176
1683008634415401200,1.321401123046875,2.5170998573303223,1.1786999702453613,9.404500007629395
1683008634435399700,1.341399658203125,2.5411999225616455,1.2258999347686768,9.391900062561035
1683008634455399700,1.361399658203125,2.5620999336242676,1.2590999603271484,9.3818998336792
1683008634475401200,1.381401123046875,2.6106998920440674,1.2731999158859253,9.366600036621094
1683008634495402800,1.40140283203125,2.665099859237671,1.274999976158142,9.35099983215332
1683008634515402800,1.42140283203125,2.731299877166748,1.2618999481201172,9.333600044250488
1683008634535399700,1.441399658203125,2.784600019454956,1.2419999837875366,9.320499420166016
1683008634555401200,1.461401123046875,2.807999849319458,1.2243000268936157,9.315899848937988
1683008634575402800,1.48140283203125,2.796599864959717,1.2109999656677246,9.321000099182129
1683008634595402800,1.50140283203125,2.7771999835968018,1.2037999629974365,9.327799797058105
1683008634615401200,1.521401123046875,2.777099847793579,1.195099949836731,9.328899383544922
1683008634635399700,1.541399658203125,2.809799909591675,1.177799940109253,9.32129955291748
1683008634655399700,1.561399658203125,2.8378000259399414,1.1542999744415283,9.315799713134766
1683008634675399700,1.581399658203125,2.8489999771118164,1.12909996509552,9.315400123596191
1683008634695399700,1.601399658203125,2.8533999919891357,1.104699969291687,9.316999435424805
1683008634715399700,1.621399658203125,2.8773999214172363,1.083299994468689,9.312199592590332
1683008634735399700,1.641399658203125,2.922799825668335,1.063599944114685,9.300299644470215
1683008634755401200,1.661401123046875,2.9651999473571777,1.0591000318527222,9.287399291992188
1683008634775399700,1.681399658203125,3.0130999088287354,1.0657999515533447,9.271200180053711
1683008634795402800,1.70140283203125,3.075699806213379,1.0885999202728271,9.247900009155273
1683008634815402800,1.72140283203125,3.1355998516082764,1.1065999269485474,9.225600242614746
1683008634835401200,1.741401123046875,3.182499885559082,1.0951999425888062,9.210899353027344
1683008634855399700,1.761399658203125,3.2326998710632324,1.038100004196167,9.20009994506836
1683008634875402800,1.78140283203125,3.2592999935150146,0.9692999720573425,9.198200225830078
1683008634895402800,1.80140283203125,3.2460999488830566,0.9226999878883362,9.207599639892578
1683008634915401200,1.821401123046875,3.2007999420166016,0.9036999940872192,9.225299835205078
1683008634935399700,1.841399658203125,3.1387999057769775,0.8952999711036682,9.24739933013916
1683008634955399700,1.861399658203125,3.1011998653411865,0.8837999701499939,9.261199951171875
1683008634975401200,1.881401123046875,3.088899850845337,0.8858000040054321,9.265199661254883
1683008634995399700,1.901399658203125,3.0959999561309814,0.8986999988555908,9.261499404907227
1683008635015399700,1.921399658203125,3.124500036239624,0.9140999913215637,9.250499725341797
1683008635035399700,1.941399658203125,3.137199878692627,0.9294999837875366,9.244599342346191
1683008635055401200,1.961401123046875,3.123199939727783,0.9315999746322632,9.249099731445312
1683008635075399700,1.981399658203125,3.100299835205078,0.901699960231781,9.25979995727539
1683008635095399700,2.001399658203125,3.069700002670288,0.8522999882698059,9.274700164794922
1683008635115401200,2.021401123046875,3.0404999256134033,0.793999969959259,9.289400100708008
1683008635135399700,2.041399658203125,3.0169999599456787,0.7447999715805054,9.301199913024902
1683008635155402800,2.06140283203125,2.996999979019165,0.7077999711036682,9.310500144958496
1683008635175402800,2.08140283203125,2.9665000438690186,0.6811000108718872,9.32229995727539
1683008635195399700,2.101399658203125,2.9373998641967773,0.6593999862670898,9.333000183105469
1683008635215399700,2.121399658203125,2.922799825668335,0.6365000009536743,9.339200019836426
1683008635235402800,2.14140283203125,2.911799907684326,0.6150000095367432,9.344099998474121
1683008635255402800,2.16140283203125,2.8976998329162598,0.5938000082969666,9.349800109863281
1683008635275399700,2.181399658203125,2.879999876022339,0.5744999647140503,9.356499671936035
1683008635295399700,2.201399658203125,2.8420000076293945,0.555400013923645,9.36929988861084
1683008635315399700,2.221399658203125,2.77839994430542,0.5383999943733215,9.389399528503418
1683008635335401200,2.241401123046875,2.7136998176574707,0.5317999720573425,9.408599853515625
1683008635355399700,2.261399658203125,2.6878998279571533,0.5379999876022339,9.41569995880127
1683008635375399700,2.281399658203125,2.7079999446868896,0.553600013256073,9.4089994430542
1683008635395399700,2.301399658203125,2.7063000202178955,0.5640999674797058,9.408899307250977
1683008635415401200,2.321401123046875,2.656100034713745,0.552899956703186,9.423799514770508
1683008635435399700,2.341399658203125,2.6150999069213867,0.5360000133514404,9.436299324035645
1683008635455399700,2.361399658203125,2.623699903488159,0.5270999670028687,9.434399604797363
1683008635475402800,2.38140283203125,2.7067999839782715,0.529699981212616,9.410699844360352
1683008635495402800,2.40140283203125,2.7697999477386475,0.5408999919891357,9.39169979095459
1683008635515399700,2.421399658203125,2.7520999908447266,0.5511000156402588,9.39639949798584
1683008635535402800,2.44140283203125,2.6836998462677,0.5734999775886536,9.414799690246582
1683008635555402800,2.46140283203125,2.6556999683380127,0.6171999573707581,9.419899940490723
1683008635575399700,2.481399658203125,2.706199884414673,0.6768999695777893,9.40149974822998
1683008635595399700,2.501399658203125,2.7791998386383057,0.7376999855041504,9.375499725341797
1683008635615401200,2.521401123046875,2.839200019836426,0.7929999828338623,9.352999687194824
1683008635635399700,2.541399658203125,2.8685998916625977,0.8430999517440796,9.339699745178223
1683008635655399700,2.561399658203125,2.881899833679199,0.8811999559402466,9.331999778747559
1683008635675402800,2.58140283203125,2.899199962615967,0.9012999534606934,9.324799537658691
1683008635695399700,2.601399658203125,2.9198999404907227,0.9023000001907349,9.31820011138916
1683008635715399700,2.621399658203125,2.9291999340057373,0.8931999802589417,9.31619930267334
1683008635735399700,2.641399658203125,2.938499927520752,0.8747999668121338,9.3149995803833
1683008635755401200,2.661401123046875,2.954699993133545,0.8513999581336975,9.311999320983887
1683008635775399700,2.681399658203125,2.977099895477295,0.8181999921798706,9.307899475097656
1683008635795399700,2.701399658203125,2.9975998401641846,0.7833999991416931,9.304299354553223
1683008635815399700,2.721399658203125,3.004499912261963,0.7530999779701233,9.30459976196289
1683008635835401200,2.741401123046875,3.006500005722046,0.7167999744415283,9.30679988861084
1683008635855399700,2.761399658203125,3.0060999393463135,0.6721000075340271,9.31029987335205
1683008635875399700,2.781399658203125,3.0044000148773193,0.6262999773025513,9.314000129699707
1683008635895399700,2.801399658203125,2.9886999130249023,0.5810999870300293,9.321999549865723
1683008635915401200,2.821401123046875,2.9626998901367188,0.5371999740600586,9.332900047302246
1683008635935399700,2.841399658203125,2.9308998584747314,0.5042999982833862,9.344799995422363
1683008635955399700,2.861399658203125,2.918799877166748,0.4908999800682068,9.349299430847168
1683008635975401200,2.881401123046875,2.945499897003174,0.49129998683929443,9.340899467468262
1683008635995402800,2.90140283203125,3.0055999755859375,0.5060999989509583,9.320899963378906
1683008636015402800,2.92140283203125,3.054299831390381,0.5108000040054321,9.304800033569336
1683008636035399700,2.941399658203125,3.0748000144958496,0.47939997911453247,9.299699783325195
1683008636055402800,2.96140283203125,3.086699962615967,0.43359997868537903,9.297999382019043
1683008636075402800,2.98140283203125,3.096099853515625,0.37950000166893005,9.2972993850708
1683008636095399700,3.001399658203125,3.140199899673462,0.35019999742507935,9.283599853515625
1683008636115402800,3.02140283203125,3.146699905395508,0.35089999437332153,9.281399726867676
1683008636135399700,3.041399658203125,3.114300012588501,0.3513999879360199,9.2923002243042
1683008636155399700,3.061399658203125,3.067499876022339,0.3499999940395355,9.307899475097656
1683008636175399700,3.081399658203125,3.0486998558044434,0.35659998655319214,9.313799858093262
1683008636195399700,3.101399658203125,3.0720999240875244,0.36169999837875366,9.305899620056152
1683008636215399700,3.121399658203125,3.1159000396728516,0.3637999892234802,9.291299819946289
1683008636235399700,3.141399658203125,3.149600028991699,0.373199999332428,9.279500007629395
1683008636255399700,3.161399658203125,3.151399850845337,0.37449997663497925,9.278900146484375
1683008636275399700,3.181399658203125,3.1260998249053955,0.3568999767303467,9.28809928894043
1683008636295402800,3.20140283203125,3.096299886703491,0.3328000009059906,9.298999786376953
1683008636315399700,3.221399658203125,3.0742998123168945,0.3057999908924103,9.307199478149414
1683008636335401200,3.241401123046875,3.054299831390381,0.28509998321533203,9.314499855041504
1683008636355399700,3.261399658203125,3.0332000255584717,0.27959999442100525,9.321499824523926
1683008636375399700,3.281399658203125,3.005699872970581,0.2830999791622162,9.330299377441406
1683008636395399700,3.301399658203125,2.978799819946289,0.2856000065803528,9.338899612426758
1683008636415402800,3.32140283203125,2.9670000076293945,0.2924000024795532,9.342399597167969
1683008636435402800,3.34140283203125,2.9661998748779297,0.307699978351593,9.342199325561523
1683008636455399700,3.361399658203125,2.962599992752075,0.31759998202323914,9.342999458312988
1683008636475401200,3.381401123046875,2.944200038909912,0.31529998779296875,9.348899841308594
1683008636495399700,3.401399658203125,2.901899814605713,0.30239999294281006,9.362500190734863
1683008636515399700,3.421399658203125,2.8389999866485596,0.2930999994277954,9.382100105285645
1683008636535399700,3.441399658203125,2.7751998901367188,0.29189997911453247,9.401199340820312
1683008636555399700,3.461399658203125,2.7451999187469482,0.3050000071525574,9.409599304199219
1683008636575399700,3.481399658203125,2.7570998668670654,0.3292999863624573,9.40530014038086
1683008636595399700,3.501399658203125,2.774899959564209,0.34619998931884766,9.399399757385254
1683008636615401200,3.521401123046875,2.7291998863220215,0.33820000290870667,9.41309928894043
1683008636635402800,3.54140283203125,2.666100025177002,0.3163999915122986,9.431900024414062
1683008636655399700,3.561399658203125,2.6385998725891113,0.29909998178482056,9.440199851989746
1683008636675402800,3.58140283203125,2.686300039291382,0.28769999742507935,9.42710018157959
1683008636695402800,3.60140283203125,2.7812998294830322,0.28279998898506165,9.399700164794922
1683008636715399700,3.621399658203125,2.825700044631958,0.26499998569488525,9.386899948120117
1683008636735399700,3.641399658203125,2.8071999549865723,0.2587999999523163,9.392600059509277
1683008636755402800,3.66140283203125,2.7681000232696533,0.2821999788284302,9.403599739074707
1683008636775402800,3.68140283203125,2.7684998512268066,0.313400000333786,9.40250015258789
1683008636795399700,3.701399658203125,2.820199966430664,0.3325999975204468,9.38640022277832
1683008636815399700,3.721399658203125,2.8912999629974365,0.35089999437332153,9.364099502563477
1683008636835401200,3.741401123046875,2.9453999996185303,0.3752000033855438,9.34630012512207
1683008636855399700,3.761399658203125,2.979099988937378,0.3955000042915344,9.334799766540527
1683008636875399700,3.781399658203125,3.0048999786376953,0.4077000021934509,9.326000213623047
1683008636895399700,3.801399658203125,3.0269999504089355,0.4025000035762787,9.318999290466309
1683008636915401200,3.821401123046875,3.0367000102996826,0.38419997692108154,9.316699981689453
1683008636935399700,3.841399658203125,3.035799980163574,0.36629998683929443,9.317699432373047
1683008636955399700,3.861399658203125,3.035799980163574,0.3570999801158905,9.317999839782715
1683008636975401200,3.881401123046875,3.0434999465942383,0.3561999797821045,9.315499305725098
1683008636995402800,3.90140283203125,3.057299852371216,0.35929998755455017,9.31089973449707
1683008637015402800,3.92140283203125,3.072700023651123,0.3637000024318695,9.305699348449707
1683008637035399700,3.941399658203125,3.087599992752075,0.37070000171661377,9.30049991607666
1683008637055401200,3.961401123046875,3.104599952697754,0.3822999894618988,9.294300079345703
1683008637075399700,3.981399658203125,3.1223998069763184,0.39259999990463257,9.2878999710083
1683008637095399700,4.001399658203125,3.1325998306274414,0.4017999768257141,9.284099578857422
1683008637115401200,4.021401123046875,3.1301000118255615,0.41290000081062317,9.284500122070312
1683008637135399700,4.041399658203125,3.124799966812134,0.4275999963283539,9.285599708557129
1683008637155399700,4.061399658203125,3.135999917984009,0.4602999985218048,9.280200004577637
1683008637175399700,4.081399658203125,3.180799961090088,0.519599974155426,9.261799812316895
1683008637195399700,4.101399658203125,3.2525999546051025,0.5878999829292297,9.232799530029297
1683008637215399700,4.121399658203125,3.3100998401641846,0.6377999782562256,9.208999633789062
1683008637235402800,4.14140283203125,3.3404998779296875,0.6495999693870544,9.197199821472168
1683008637255404300,4.161404296875,3.345099925994873,0.63919997215271,9.19629955291748
1683008637275399700,4.181399658203125,3.3564000129699707,0.6283999681472778,9.192899703979492
1683008637295399700,4.201399658203125,3.367799997329712,0.6245999932289124,9.188899993896484
1683008637315399700,4.221399658203125,3.315500020980835,0.6205999851226807,9.208199501037598
1683008637335399700,4.241399658203125,3.228099822998047,0.6062999963760376,9.24020004272461
1683008637355399700,4.261399658203125,3.1703999042510986,0.6176999807357788,9.2593994140625
1683008637375399700,4.281399658203125,3.1933999061584473,0.6477000117301941,9.24940013885498
1683008637395399700,4.301399658203125,3.287799835205078,0.6728000044822693,9.214499473571777
1683008637415401200,4.321401123046875,3.386199951171875,0.6786999702453613,9.178400039672852
1683008637435399700,4.341399658203125,3.4333999156951904,0.6631999611854553,9.16189956665039
1683008637455399700,4.361399658203125,3.4316999912261963,0.6151999831199646,9.165900230407715
1683008637475401200,4.381401123046875,3.4054999351501465,0.5322999954223633,9.180899620056152
1683008637495399700,4.401399658203125,3.367300033569336,0.43719998002052307,9.199999809265137
1683008637515399700,4.421399658203125,3.3245999813079834,0.3520999848842621,9.219099998474121
1683008637535399700,4.441399658203125,3.299799919128418,0.2947999835014343,9.229999542236328
1683008637555399700,4.461399658203125,3.302999973297119,0.26339998841285706,9.2298002243042
1683008637575399700,4.481399658203125,3.3167998790740967,0.25369998812675476,9.225199699401855
1683008637595399700,4.501399658203125,3.3315999507904053,0.25459998846054077,9.219799995422363
1683008637615402800,4.52140283203125,3.3524999618530273,0.2441999912261963,9.212499618530273
1683008637635399700,4.541399658203125,3.3657000064849854,0.21789999306201935,9.20829963684082
1683008637655399700,4.561399658203125,3.3516998291015625,0.18230000138282776,9.214200019836426
1683008637675399700,4.581399658203125,3.319499969482422,0.14970000088214874,9.226499557495117
1683008637695399700,4.601399658203125,3.2836999893188477,0.11649999767541885,9.239699363708496
1683008637715402800,4.62140283203125,3.24429988861084,0.09149999916553497,9.253899574279785
1683008637735402800,4.64140283203125,3.2114999294281006,0.08060000091791153,9.26550006866455
1683008637755401200,4.661401123046875,3.2139999866485596,0.09319999814033508,9.26449966430664
1683008637775401200,4.681401123046875,3.2410998344421387,0.11949999630451202,9.25469970703125
1683008637795399700,4.701399658203125,3.2448999881744385,0.1395999938249588,9.25309944152832
1683008637815399700,4.721399658203125,3.2044999599456787,0.13599999248981476,9.267199516296387
1683008637835401200,4.741401123046875,3.1735999584198,0.13529999554157257,9.277899742126465
1683008637855399700,4.761399658203125,3.1712000370025635,0.1516999900341034,9.278499603271484
1683008637875399700,4.781399658203125,3.2114999294281006,0.17069999873638153,9.264299392700195
1683008637895399700,4.801399658203125,3.260699987411499,0.19419999420642853,9.246600151062012
1683008637915401200,4.821401123046875,3.2588999271392822,0.1973000019788742,9.247200012207031
1683008637935399700,4.841399658203125,3.2146999835968018,0.1832999885082245,9.262899398803711
1683008637955399700,4.861399658203125,3.1731998920440674,0.18239998817443848,9.277199745178223
1683008637975401200,4.881401123046875,3.172999858856201,0.19929999113082886,9.276899337768555
1683008637995399700,4.901399658203125,3.211199998855591,0.2246999889612198,9.263199806213379
1683008638015399700,4.921399658203125,3.267199993133545,0.2529999911785126,9.242899894714355
1683008638035399700,4.941399658203125,3.328199863433838,0.2815999984741211,9.220199584960938
1683008638055401200,4.961401123046875,3.399399995803833,0.30239999294281006,9.193599700927734
1683008638075399700,4.981399658203125,3.4768998622894287,0.3179999887943268,9.163999557495117
1683008638095399700,5.001399658203125,3.5508999824523926,0.323199987411499,9.13539981842041
1683008638115401200,5.021401123046875,3.624799966812134,0.3100000023841858,9.106800079345703
1683008638135399700,5.041399658203125,3.686999797821045,0.28679999709129333,9.082499504089355
1683008638155399700,5.061399658203125,3.7482998371124268,0.26109999418258667,9.058199882507324
1683008638175399700,5.081399658203125,3.8011999130249023,0.2458999902009964,9.036600112915039
1683008638195402800,5.10140283203125,3.845899820327759,0.24069999158382416,9.017799377441406
1683008638215402800,5.12140283203125,3.8828999996185303,0.2361999899148941,9.001999855041504
1683008638235399700,5.141399658203125,3.9045000076293945,0.23719999194145203,8.99269962310791
1683008638255399700,5.161399658203125,3.913800001144409,0.24309998750686646,8.988399505615234
1683008638275399700,5.181399658203125,3.9265999794006348,0.24199999868869781,8.98289966583252
1683008638295399700,5.201399658203125,3.9325997829437256,0.2377999871969223,8.980400085449219
1683008638315399700,5.221399658203125,3.9313998222351074,0.2298000007867813,8.981100082397461
1683008638335401200,5.241401123046875,3.919099807739258,0.21779999136924744,8.986800193786621
1683008638355402800,5.26140283203125,3.8997998237609863,0.21480000019073486,8.995299339294434
1683008638375402800,5.28140283203125,3.8922998905181885,0.21930000185966492,8.99839973449707
1683008638395399700,5.301399658203125,3.9031999111175537,0.23770000040531158,8.993199348449707
1683008638415401200,5.321401123046875,3.9313998222351074,0.2630999982357025,8.980199813842773
1683008638435399700,5.341399658203125,3.964399814605713,0.2766999900341034,8.965299606323242
1683008638455399700,5.361399658203125,3.994799852371216,0.27390000224113464,8.951899528503418
1683008638475401200,5.381401123046875,4.014199733734131,0.2533999979496002,8.94379997253418
1683008638495399700,5.401399658203125,4.042799949645996,0.23669999837875366,8.931300163269043
1683008638515399700,5.421399658203125,4.0625,0.23909999430179596,8.9222993850708
1683008638535399700,5.441399658203125,4.049900054931641,0.24699999392032623,8.927899360656738
1683008638555401200,5.461401123046875,4.0264997482299805,0.23979999125003815,8.938599586486816
1683008638575399700,5.481399658203125,4.008599758148193,0.23420000076293945,8.946800231933594
1683008638595402800,5.50140283203125,4.02839994430542,0.2498999983072281,8.9375
1683008638615402800,5.52140283203125,4.064300060272217,0.26909998059272766,8.920599937438965
1683008638635399700,5.541399658203125,4.081900119781494,0.2797999978065491,8.912300109863281
1683008638655399700,5.561399658203125,4.0742998123168945,0.2824999988079071,8.91569995880127
1683008638675399700,5.581399658203125,4.053899765014648,0.26989999413490295,8.925299644470215
1683008638695401200,5.601401123046875,4.0391998291015625,0.25220000743865967,8.932600021362305
1683008638715401200,5.621401123046875,4.041899681091309,0.23319999873638153,8.93179988861084
1683008638735399700,5.641399658203125,4.04010009765625,0.20899999141693115,8.933199882507324
1683008638755401200,5.661401123046875,4.026700019836426,0.1761000007390976,8.9399995803833
1683008638775401200,5.681401123046875,4.001999855041504,0.13979999721050262,8.951700210571289
1683008638795399700,5.701399658203125,3.972599983215332,0.1070999950170517,8.965299606323242
1683008638815399700,5.721399658203125,3.9398999214172363,0.08190000057220459,8.979999542236328
1683008638835402800,5.74140283203125,3.921599864959717,0.06650000065565109,8.988100051879883
1683008638855402800,5.76140283203125,3.921099901199341,0.05769999697804451,8.988399505615234
1683008638875402800,5.78140283203125,3.919099807739258,0.05389999970793724,8.989299774169922
1683008638895399700,5.801399658203125,3.906799793243408,0.048899997025728226,8.994599342346191
1683008638915401200,5.821401123046875,3.88349986076355,0.03449999913573265,9.004799842834473
1683008638935399700,5.841399658203125,3.8407998085021973,0.014599999412894249,9.023200035095215
1683008638955399700,5.861399658203125,3.778599977493286,-0.005200000014156103,9.049399375915527
1683008638975401200,5.881401123046875,3.714599847793579,-0.019199999049305916,9.075799942016602
1683008638995402800,5.90140283203125,3.6873998641967773,-0.020099999383091927,9.086899757385254
1683008639015399700,5.921399658203125,3.696199893951416,-0.0031999999191612005,9.083399772644043
1683008639035401200,5.941401123046875,3.6828999519348145,0.010799999348819256,9.088699340820312
1683008639055401200,5.961401123046875,3.640699863433838,0.010300000198185444,9.10569953918457
1683008639075399700,5.981399658203125,3.606799840927124,0.004100000020116568,9.119199752807617
1683008639095399700,6.001399658203125,3.5927999019622803,-0.009800000116229057,9.124699592590332
1683008639115399700,6.021399658203125,3.6175999641418457,-0.01939999870955944,9.114899635314941
1683008639135399700,6.041399658203125,3.6146998405456543,-0.028599999845027924,9.116000175476074
1683008639155399700,6.061399658203125,3.561699867248535,-0.0429999977350235,9.136799812316895
1683008639175399700,6.081399658203125,3.4891998767852783,-0.04309999942779541,9.164799690246582
1683008639195399700,6.101399658203125,3.447999954223633,-0.025200000032782555,9.180399894714355
1683008639215399700,6.121399658203125,3.4515998363494873,0.0058999997563660145,9.179100036621094
1683008639235399700,6.141399658203125,3.473599910736084,0.03460000082850456,9.170700073242188
1683008639255401200,6.161401123046875,3.491499900817871,0.06289999932050705,9.163800239562988
1683008639275402800,6.18140283203125,3.493799924850464,0.09269999712705612,9.162599563598633
1683008639295402800,6.20140283203125,3.4979000091552734,0.11580000072717667,9.160799980163574
1683008639315399700,6.221399658203125,3.512199878692627,0.12919999659061432,9.155099868774414
1683008639335401200,6.241401123046875,3.5260000228881836,0.1322999894618988,9.149799346923828
1683008639355399700,6.261399658203125,3.533900022506714,0.12770000100135803,9.14680004119873
1683008639375399700,6.281399658203125,3.5391998291015625,0.12549999356269836,9.144800186157227
1683008639395401200,6.301401123046875,3.5481998920440674,0.1216999962925911,9.141399383544922
1683008639415401200,6.321401123046875,3.5607998371124268,0.11789999902248383,9.136499404907227
1683008639435399700,6.341399658203125,3.576900005340576,0.11400000005960464,9.13029956817627
1683008639455402800,6.36140283203125,3.599799871444702,0.11389999836683273,9.121299743652344
1683008639475401200,6.381401123046875,3.6230998039245605,0.11490000039339066,9.11199951171875
1683008639495399700,6.401399658203125,3.643899917602539,0.11400000005960464,9.103699684143066
1683008639515399700,6.421399658203125,3.653899908065796,0.11129999905824661,9.099800109863281
1683008639535402800,6.44140283203125,3.657899856567383,0.10700000077486038,9.098199844360352
1683008639555402800,6.46140283203125,3.6833999156951904,0.08329999446868896,9.088199615478516
1683008639575399700,6.481399658203125,3.7189998626708984,0.03909999877214432,9.07390022277832
1683008639595399700,6.501399658203125,3.7304999828338623,0.002699999837204814,9.069299697875977
1683008639615401200,6.521401123046875,3.72979998588562,-0.013299999758601189,9.069600105285645
1683008639635399700,6.541399658203125,3.7298998832702637,-0.017899999395012856,9.069499969482422
1683008639655399700,6.561399658203125,3.759999990463257,-0.0284000001847744,9.057099342346191
1683008639675399700,6.581399658203125,3.8235998153686523,-0.030399998649954796,9.030399322509766
1683008639695399700,6.601399658203125,3.86929988861084,-0.03370000049471855,9.010899543762207
1683008639715402800,6.62140283203125,3.875,-0.05889999866485596,9.008299827575684
1683008639735399700,6.641399658203125,3.846299886703491,-0.08909999579191208,9.020400047302246
1683008639755401200,6.661401123046875,3.7839999198913574,-0.10659999400377274,9.046500205993652
1683008639775399700,6.681399658203125,3.739799976348877,-0.10759999603033066,9.064799308776855
1683008639795399700,6.701399658203125,3.753199815750122,-0.0803999975323677,9.059599876403809
1683008639815399700,6.721399658203125,3.807499885559082,-0.03869999945163727,9.037199974060059
1683008639835401200,6.741401123046875,3.8618998527526855,0.006599999964237213,9.014200210571289
1683008639855399700,6.761399658203125,3.9062998294830322,0.04729999974370003,8.99489974975586
1683008639875402800,6.78140283203125,3.926499843597412,0.05829999968409538,8.986000061035156
1683008639895402800,6.80140283203125,3.9347000122070312,0.04270000010728836,8.982500076293945
1683008639915399700,6.821399658203125,3.934999942779541,0.010699999518692493,8.982500076293945
1683008639935399700,6.841399658203125,3.922499895095825,-0.029899999499320984,8.987899780273438
1683008639955402800,6.86140283203125,3.901099920272827,-0.07649999856948853,8.996899604797363
1683008639975402800,6.88140283203125,3.879699945449829,-0.12119999527931213,9.00570011138916
1683008639995399700,6.901399658203125,3.852599859237671,-0.1565999984741211,9.016799926757812
1683008640015399700,6.921399658203125,3.824699878692627,-0.1761000007390976,9.028299331665039
1683008640035399700,6.941399658203125,3.8076000213623047,-0.18709999322891235,9.035299301147461
1683008640055401200,6.961401123046875,3.801999807357788,-0.19769999384880066,9.037400245666504
1683008640075399700,6.981399658203125,3.7961997985839844,-0.21660000085830688,9.039400100708008
1683008640095399700,7.001399658203125,3.773899793624878,-0.2443999946117401,9.047999382019043
1683008640115401200,7.021401123046875,3.7301998138427734,-0.27629998326301575,9.065199851989746
1683008640135399700,7.041399658203125,3.670499801635742,-0.31209999322891235,9.088399887084961
1683008640155399700,7.061399658203125,3.592899799346924,-0.3578999936580658,9.11769962310791
1683008640175399700,7.081399658203125,3.499199867248535,-0.4147999882698059,9.151599884033203
1683008640195399700,7.101399658203125,3.403599977493286,-0.4731999933719635,9.184800148010254
1683008640215399700,7.121399658203125,3.3307998180389404,-0.5331999659538269,9.208199501037598
1683008640235399700,7.141399658203125,3.3032000064849854,-0.5999000072479248,9.21399974822998
1683008640255402800,7.16140283203125,3.263700008392334,-0.6782999634742737,9.222700119018555
1683008640275401200,7.181401123046875,3.1310999393463135,-0.7724999785423279,9.261099815368652
1683008640295402800,7.20140283203125,2.9902000427246094,-0.8624999523162842,9.299699783325195
1683008640315402800,7.22140283203125,2.895699977874756,-0.9175999760627747,9.324299812316895
1683008640335401200,7.241401123046875,2.853099822998047,-0.937999963760376,9.335399627685547
1683008640355399700,7.261399658203125,2.8374998569488525,-0.9469999670982361,9.339200019836426
1683008640375399700,7.281399658203125,2.7986998558044434,-0.9301999807357788,9.35260009765625
1683008640395402800,7.30140283203125,2.743499994277954,-0.8828999996185303,9.373499870300293
1683008640415402800,7.32140283203125,2.676499843597412,-0.8198999762535095,9.398599624633789
1683008640435399700,7.341399658203125,2.6103999614715576,-0.7479999661445618,9.423099517822266
1683008640455399700,7.361399658203125,2.5706000328063965,-0.6729999780654907,9.43970012664795
1683008640475401200,7.381401123046875,2.5657999515533447,-0.6067000031471252,9.445499420166016
1683008640495399700,7.401399658203125,2.5799999237060547,-0.5511000156402588,9.445099830627441
1683008640515399700,7.421399658203125,2.59879994392395,-0.5054000020027161,9.442500114440918
1683008640535399700,7.441399658203125,2.6089999675750732,-0.46789997816085815,9.44159984588623
1683008640555401200,7.461401123046875,2.602299928665161,-0.4327999949455261,9.445099830627441
1683008640575402800,7.48140283203125,2.579900026321411,-0.40070000290870667,9.45259952545166
1683008640595399700,7.501399658203125,2.5441999435424805,-0.3739999830722809,9.463399887084961
1683008640615401200,7.521401123046875,2.4955999851226807,-0.3536999821662903,9.477099418640137
1683008640635399700,7.541399658203125,2.4251999855041504,-0.3407999873161316,9.49590015411377
1683008640655399700,7.561399658203125,2.336599826812744,-0.33649998903274536,9.518199920654297
1683008640675399700,7.581399658203125,2.241299867630005,-0.35029998421669006,9.540599822998047
1683008640695399700,7.601399658203125,2.180799961090088,-0.3540000021457672,9.554499626159668
1683008640715399700,7.621399658203125,2.16729998588562,-0.3529999852180481,9.557600021362305
1683008640735399700,7.641399658203125,2.1728999614715576,-0.34360000491142273,9.556599617004395
1683008640755399700,7.661399658203125,2.175299882888794,-0.32359999418258667,9.55679988861084
1683008640775399700,7.681399658203125,2.1689000129699707,-0.29829999804496765,9.559100151062012
1683008640795402800,7.70140283203125,2.1659998893737793,-0.26010000705718994,9.56089973449707
1683008640815399700,7.721399658203125,2.1843998432159424,-0.20649999380111694,9.557999610900879
1683008640835399700,7.741399658203125,2.235299825668335,-0.13259999454021454,9.547499656677246
1683008640855399700,7.761399658203125,2.32099986076355,-0.049300000071525574,9.527899742126465
1683008640875402800,7.78140283203125,2.4212000370025635,0.013100000098347664,9.502999305725098
1683008640895401200,7.801401123046875,2.525599956512451,0.05939999967813492,9.47559928894043
1683008640915402800,7.82140283203125,2.6096999645233154,0.09709999710321426,9.452499389648438
1683008640935399700,7.841399658203125,2.6419999599456787,0.13239999115467072,9.443099975585938
1683008640955399700,7.861399658203125,2.611599922180176,0.155799999833107,9.451199531555176
1683008640975401200,7.881401123046875,2.5276999473571777,0.15369999408721924,9.473999977111816
1683008640995402800,7.90140283203125,2.447199821472168,0.13040000200271606,9.495399475097656
1683008641015402800,7.92140283203125,2.4082999229431152,0.12269999831914902,9.505499839782715
1683008641035399700,7.941399658203125,2.4235999584198,0.13079999387264252,9.501500129699707
1683008641055401200,7.961401123046875,2.4926998615264893,0.142099991440773,9.483399391174316
1683008641075399700,7.981399658203125,2.5597000122070312,0.1551000028848648,9.465399742126465
1683008641095399700,8.001399658203125,2.59089994430542,0.1753999888896942,9.456500053405762
1683008641115401200,8.021401123046875,2.5843000411987305,0.2052999883890152,9.4576997756958
1683008641135399700,8.041399658203124,2.555999994277954,0.21930000185966492,9.465099334716797
1683008641155402800,8.06140283203125,2.5321998596191406,0.2020999938249588,9.47189998626709
1683008641175402800,8.08140283203125,2.5116000175476074,0.16419999301433563,9.478099822998047
1683008641195399700,8.101399658203125,2.4803998470306396,0.12219999730587006,9.486899375915527
1683008641215399700,8.121399658203124,2.421099901199341,0.08509999513626099,9.502599716186523
1683008641235399700,8.141399658203126,2.3457000255584717,0.05089999735355377,9.52180004119873
1683008641255399700,8.161399658203125,2.2718000411987305,0.0139999995008111,9.539799690246582
1683008641275399700,8.181399658203125,2.2100000381469727,-0.0284000001847744,9.554299354553223
1683008641295399700,8.201399658203124,2.1534998416900635,-0.07959999889135361,9.566899299621582
1683008641315399700,8.221399658203126,2.0927999019622803,-0.13759998977184296,9.579699516296387
1683008641335401200,8.241401123046876,2.029899835586548,-0.19519999623298645,9.592199325561523
1683008641355399700,8.261399658203125,1.9644999504089355,-0.24979999661445618,9.604599952697754
1683008641375399700,8.281399658203124,1.9127999544143677,-0.2944999933242798,9.613699913024902
1683008641395399700,8.301399658203126,1.896399974822998,-0.3212999999523163,9.61609935760498
1683008641415401200,8.321401123046876,1.9016999006271362,-0.3367999792098999,9.614500045776367
1683008641435399700,8.341399658203125,1.8854999542236328,-0.3545999825000763,9.61709976196289
1683008641455399700,8.361399658203124,1.8359999656677246,-0.38429999351501465,9.625499725341797
1683008641475401200,8.381401123046874,1.7924000024795532,-0.3999999761581421,9.633099555969238
1683008641495399700,8.401399658203125,1.7771999835968018,-0.3935999870300293,9.636199951171875
1683008641515399700,8.421399658203125,1.8118000030517578,-0.3718000054359436,9.630599975585938
1683008641535399700,8.441399658203125,1.842099905014038,-0.33219999074935913,9.626299858093262
1683008641555401200,8.461401123046874,1.8324999809265137,-0.29330000281333923,9.629399299621582
1683008641575399700,8.481399658203125,1.7878999710083008,-0.2450999915599823,9.639100074768066
1683008641595399700,8.501399658203125,1.7589999437332153,-0.17009998857975006,9.645999908447266
1683008641615401200,8.521401123046875,1.7774999141693115,-0.08079999685287476,9.643799781799316
1683008641635399700,8.541399658203124,1.8298999071121216,-0.007599999662488699,9.6343994140625
1683008641655399700,8.561399658203126,1.8736999034881592,0.040699999779462814,9.625800132751465
1683008641675399700,8.581399658203125,1.8915998935699463,0.06419999897480011,9.622200012207031
1683008641695399700,8.601399658203125,1.8945999145507812,0.06659999489784241,9.621600151062012
1683008641715399700,8.621399658203124,1.8988999128341675,0.056299999356269836,9.620800018310547
1683008641735399700,8.641399658203126,1.9138998985290527,0.04349999874830246,9.617899894714355
1683008641755399700,8.661399658203125,1.9354000091552734,0.01899999938905239,9.613699913024902
1683008641775399700,8.681399658203125,1.93559992313385,-0.01809999905526638,9.613699913024902
1683008641795399700,8.701399658203124,1.9084999561309814,-0.061400000005960464,9.61889934539795
1683008641815399700,8.721399658203126,1.869499921798706,-0.1078999936580658,9.626099586486816
1683008641835401200,8.741401123046876,1.8507999181747437,-0.15039999783039093,9.629199981689453
1683008641855399700,8.761399658203125,1.8460999727249146,-0.1931999921798706,9.629300117492676
1683008641875399700,8.781399658203124,1.8588999509811401,-0.2386000007390976,9.625800132751465
1683008641895399700,8.801399658203126,1.8865000009536743,-0.284199982881546,9.619199752807617
1683008641915401200,8.821401123046876,1.9175999164581299,-0.3294999897480011,9.611599922180176
1683008641935399700,8.841399658203125,1.938599944114685,-0.36980000138282776,9.605899810791016
1683008641955399700,8.861399658203124,1.9510999917984009,-0.3950999975204468,9.602399826049805
1683008641975401200,8.881401123046874,1.9728999137878418,-0.40289998054504395,9.597599983215332
1683008641995399700,8.901399658203125,2.0219998359680176,-0.39389997720718384,9.587800025939941
1683008642015399700,8.921399658203125,2.100600004196167,-0.37880000472068787,9.571499824523926
1683008642035399700,8.941399658203125,2.177000045776367,-0.36329999566078186,9.554999351501465
1683008642055401200,8.961401123046874,2.2358999252319336,-0.36479997634887695,9.541299819946289
1683008642075399700,8.981399658203125,2.2973999977111816,-0.3732999861240387,9.526399612426758
1683008642095399700,9.001399658203125,2.3622000217437744,-0.3668999969959259,9.510799407958984
1683008642115401200,9.021401123046875,2.401900053024292,-0.33169999718666077,9.502099990844727
1683008642135399700,9.041399658203124,2.3825998306274414,-0.275299996137619,9.50879955291748
1683008642155399700,9.061399658203126,2.32669997215271,-0.21289999783039093,9.524199485778809
1683008642175399700,9.081399658203125,2.2818000316619873,-0.13779999315738678,9.536399841308594
1683008642195399700,9.101399658203125,2.277899980545044,-0.05159999802708626,9.538199424743652
1683008642215399700,9.121399658203124,2.3345999717712402,0.014999999664723873,9.5246000289917
1683008642235402800,9.14140283203125,2.4201998710632324,0.045499999076128006,9.503199577331543
1683008642255399700,9.161399658203125,2.4652998447418213,0.03929999843239784,9.491600036621094
1683008642275401200,9.181401123046875,2.4382998943328857,0.013700000010430813,9.498600006103516
1683008642295399700,9.201399658203124,2.381700038909912,-0.010699999518692493,9.512999534606934
1683008642315399700,9.221399658203126,2.323699951171875,-0.03269999846816063,9.527299880981445
1683008642335402800,9.24140283203125,2.270599842071533,-0.06069999933242798,9.539899826049805
1683008642355399700,9.261399658203125,2.2263998985290527,-0.09299999475479126,9.55009937286377
1683008642375399700,9.281399658203124,2.191499948501587,-0.12150000035762787,9.557799339294434
1683008642395399700,9.301399658203126,2.1512999534606934,-0.13679999113082886,9.566699981689453
1683008642415401200,9.321401123046876,2.107800006866455,-0.14169999957084656,9.576299667358398
1683008642435399700,9.341399658203125,2.0664000511169434,-0.13429999351501465,9.58549976348877
1683008642455399700,9.361399658203124,2.0311999320983887,-0.12079999595880508,9.593199729919434
1683008642475401200,9.381401123046874,1.9976999759674072,-0.12060000002384186,9.600199699401855
1683008642495399700,9.401399658203125,1.9498999118804932,-0.14229999482631683,9.609700202941895
1683008642515399700,9.421399658203125,1.8798999786376953,-0.1727999895811081,9.623199462890625
1683008642535399700,9.441399658203125,1.83489990234375,-0.18940000236034393,9.631499290466309
1683008642555399700,9.461399658203124,1.862899899482727,-0.17499999701976776,9.626399993896484
1683008642575399700,9.481399658203125,1.9253000020980835,-0.15079998970031738,9.61460018157959
1683008642595399700,9.501399658203125,1.9625999927520752,-0.1453000009059906,9.607099533081055
1683008642615401200,9.521401123046875,1.9528999328613281,-0.14989998936653137,9.609000205993652
1683008642635401200,9.541401123046874,1.9584999084472656,-0.1388999968767166,9.607999801635742
1683008642655399700,9.561399658203126,1.9704999923706055,-0.12439999729394913,9.605799674987793
1683008642675399700,9.581399658203125,1.9828999042510986,-0.13809999823570251,9.602999687194824
1683008642695399700,9.601399658203125,1.997399926185608,-0.17989999055862427,9.599299430847168
1683008642715399700,9.621399658203124,2.0060999393463135,-0.19219999015331268,9.597299575805664
1683008642735399700,9.641399658203126,2.020699977874756,-0.11249999701976776,9.595499992370605
1683008642755399700,9.661399658203125,2.0578999519348145,0.005499999970197678,9.588199615478516
1683008642775401200,9.681401123046875,2.125200033187866,0.10209999978542328,9.572999954223633
1683008642795399700,9.701399658203124,2.1942999362945557,0.16869999468326569,9.55639934539795
1683008642815399700,9.721399658203126,2.236999988555908,0.2076999992132187,9.54580020904541
1683008642835401200,9.741401123046876,2.24429988861084,0.24039998650550842,9.543299674987793
1683008642855399700,9.761399658203125,2.227299928665161,0.27320000529289246,9.54640007019043
1683008642875399700,9.781399658203124,2.208099842071533,0.28919997811317444,9.550399780273438
1683008642895399700,9.801399658203126,2.199199914932251,0.290800005197525,9.552399635314941
1683008642915401200,9.821401123046876,2.202699899673462,0.27959999442100525,9.551899909973145
1683008642935399700,9.841399658203125,2.2074999809265137,0.2574999928474426,9.551400184631348
1683008642955399700,9.861399658203124,2.197999954223633,0.23089998960494995,9.554299354553223
1683008642975401200,9.881401123046874,2.179800033569336,0.20009998977184296,9.559199333190918
1683008642995399700,9.901399658203125,2.1659998893737793,0.17180000245571136,9.562899589538574
1683008643015399700,9.921399658203125,2.1651999950408936,0.14319999516010284,9.563499450683594
1683008643035399700,9.941399658203125,2.1743998527526855,0.11509999632835388,9.561800003051758
1683008643055401200,9.961401123046874,2.1873998641967773,0.0949999988079071,9.559100151062012
1683008643075399700,9.981399658203125,2.1870999336242676,0.07499999552965164,9.55929946899414
1683008643095399700,10.001399658203125,2.1833999156951904,0.05909999832510948,9.560199737548828
1683008643115401200,10.021401123046875,2.1953999996185303,0.06159999966621399,9.557499885559082
1683008643135399700,10.041399658203124,2.2405998706817627,0.08749999850988388,9.546799659729004
1683008643155399700,10.061399658203126,2.3071000576019287,0.11869999766349792,9.530599594116211
1683008643175399700,10.081399658203125,2.3768999576568604,0.11389999836683273,9.513500213623047
1683008643195399700,10.101399658203125,2.468600034713745,0.11829999834299088,9.490099906921387
1683008643215399700,10.121399658203124,2.5683000087738037,0.17260000109672546,9.462699890136719
1683008643235399700,10.141399658203126,2.606299877166748,0.2506999969482422,9.450599670410156
1683008643255399700,10.161399658203125,2.555500030517578,0.3127000033855438,9.462599754333496
1683008643275399700,10.181399658203125,2.4631998538970947,0.34360000491142273,9.486000061035156
1683008643295399700,10.201399658203124,2.399099826812744,0.37219998240470886,9.501299858093262
1683008643315399700,10.221399658203126,2.385200023651123,0.42149999737739563,9.502799987792969
1683008643335401200,10.241401123046876,2.4265999794006348,0.4772999882698059,9.48960018157959
1683008643355399700,10.261399658203125,2.4926998615264893,0.526199996471405,9.469900131225586
1683008643375399700,10.281399658203124,2.5326998233795166,0.5673999786376953,9.456899642944336
1683008643395399700,10.301399658203126,2.530400037765503,0.5986999869346619,9.455599784851074
1683008643415399700,10.321399658203125,2.504199981689453,0.6107000112533569,9.461799621582031
1683008643435399700,10.341399658203125,2.47160005569458,0.6014999747276306,9.47089958190918
1683008643455399700,10.361399658203124,2.4375,0.5759999752044678,9.48129940032959
1683008643475401200,10.381401123046874,2.398900032043457,0.5449999570846558,9.493000030517578
1683008643495399700,10.401399658203125,2.3571999073028564,0.5142999887466431,9.505199432373047
1683008643515399700,10.421399658203125,2.3155999183654785,0.4845999777317047,9.517000198364258
1683008643535399700,10.441399658203125,2.275399923324585,0.4569000005722046,9.527999877929688
1683008643555399700,10.461399658203124,2.2376999855041504,0.43059998750686646,9.538199424743652
1683008643575399700,10.481399658203125,2.1965999603271484,0.406499981880188,9.548799514770508
1683008643595399700,10.501399658203125,2.152899980545044,0.37770000100135803,9.55989933013916
1683008643615399700,10.521399658203125,2.099799871444702,0.34119999408721924,9.573100090026855
1683008643635399700,10.541399658203124,2.0332999229431152,0.29979997873306274,9.588799476623535
1683008643655401200,10.561401123046876,1.9752999544143677,0.26170000433921814,9.601999282836914
1683008643675399700,10.581399658203125,1.9591999053955078,0.24639999866485596,9.60569953918457
1683008643695399700,10.601399658203125,1.9842000007629395,0.24899999797344208,9.600500106811523
1683008643715399700,10.621399658203124,1.9815999269485474,0.23659999668598175,9.601399421691895
1683008643735399700,10.641399658203126,1.9350999593734741,0.1955999881029129,9.611800193786621
1683008643755399700,10.661399658203125,1.892199993133545,0.15680000185966492,9.620999336242676
1683008643775401200,10.681401123046875,1.9210000038146973,0.14019998908042908,9.615599632263184
1683008643795399700,10.701399658203124,1.9924999475479126,0.1419999897480011,9.60099983215332
1683008643815399700,10.721399658203126,2.0414998531341553,0.14079999923706055,9.590700149536133
1683008643835401200,10.741401123046876,2.0408999919891357,0.13409999012947083,9.590899467468262
1683008643855399700,10.761399658203125,2.004699945449829,0.15189999341964722,9.598299980163574
1683008643875399700,10.781399658203124,2.0020999908447266,0.19859999418258667,9.597999572753906
1683008643895399700,10.801399658203126,2.067199945449829,0.2525999844074249,9.582900047302246
1683008643915401200,10.821401123046876,2.164799928665161,0.2919999957084656,9.560199737548828
1683008643935399700,10.841399658203125,2.2547998428344727,0.3132999837398529,9.538700103759766
1683008643955399700,10.861399658203124,2.306299924850464,0.32029998302459717,9.526199340820312
1683008643975401200,10.881401123046874,2.311499834060669,0.3270999789237976,9.5246000289917
1683008643995399700,10.901399658203125,2.3008999824523926,0.3303000032901764,9.527099609375
1683008644015399700,10.921399658203125,2.294800043106079,0.3197999894618988,9.528999328613281
1683008644035399700,10.941399658203125,2.2901999950408936,0.29889997839927673,9.530699729919434
1683008644055401200,10.961401123046874,2.2836999893188477,0.2700999975204468,9.533199310302734
1683008644075399700,10.981399658203125,2.2779998779296875,0.23339998722076416,9.535499572753906
1683008644095399700,11.001399658203125,2.2711000442504883,0.19419999420642853,9.538000106811523
1683008644115402800,11.02140283203125,2.265899896621704,0.1581999957561493,9.539899826049805
1683008644135401200,11.041401123046874,2.2634999752044678,0.1298999935388565,9.540900230407715
1683008644155399700,11.061399658203126,2.2679998874664307,0.11019999533891678,9.54010009765625
1683008644175399700,11.081399658203125,2.2839999198913574,0.09539999812841415,9.536399841308594
1683008644195399700,11.101399658203125,2.3032000064849854,0.0794999971985817,9.531999588012695
1683008644215399700,11.121399658203124,2.31469988822937,0.055299997329711914,9.52929973602295
1683008644235399700,11.141399658203126,2.3197999000549316,0.03790000081062317,9.528200149536133
1683008644255399700,11.161399658203125,2.330199956893921,0.036399997770786285,9.525599479675293
1683008644275399700,11.181399658203125,2.356799840927124,0.05729999765753746,9.519000053405762
1683008644295399700,11.201399658203124,2.4077999591827393,0.08259999752044678,9.505999565124512
1683008644315399700,11.221399658203126,2.4928998947143555,0.11149999499320984,9.483799934387207
1683008644335399700,11.241399658203125,2.585599899291992,0.14589999616146088,9.458499908447266
1683008644355399700,11.261399658203125,2.671799898147583,0.203699991106987,9.43340015411377
1683008644375399700,11.281399658203124,2.7059998512268066,0.2678999900817871,9.42199993133545
1683008644395399700,11.301399658203126,2.6922998428344727,0.30660000443458557,9.424799919128418
1683008644415401200,11.321401123046876,2.663800001144409,0.3084999918937683,9.432799339294434
1683008644435399700,11.341399658203125,2.6442999839782715,0.296999990940094,9.438699722290039
1683008644455399700,11.361399658203124,2.646199941635132,0.30149999260902405,9.437999725341797
1683008644475401200,11.381401123046874,2.6875998973846436,0.321399986743927,9.425600051879883
1683008644495399700,11.401399658203125,2.734799861907959,0.3506999909877777,9.410999298095703
1683008644515399700,11.421399658203125,2.7538998126983643,0.3807999789714813,9.40429973602295
1683008644535399700,11.441399658203125,2.748499870300293,0.4098999798297882,9.404600143432617
1683008644555401200,11.461401123046874,2.7373998165130615,0.43529999256134033,9.406700134277344
1683008644575399700,11.481399658203125,2.7301998138427734,0.4505999982357025,9.408100128173828
1683008644595399700,11.501399658203125,2.725800037384033,0.45569998025894165,9.409099578857422
1683008644615401200,11.521401123046875,2.717099905014038,0.45229998230934143,9.411799430847168
1683008644635401200,11.541401123046874,2.689499855041504,0.4424999952316284,9.420199394226074
1683008644655399700,11.561399658203126,2.6440999507904053,0.4325999915599823,9.433499336242676
1683008644675399700,11.581399658203125,2.601099967956543,0.42100000381469727,9.446000099182129
1683008644695399700,11.601399658203125,2.5673999786376953,0.41130000352859497,9.455599784851074
1683008644715399700,11.621399658203124,2.538300037384033,0.40369999408721924,9.463799476623535
1683008644735399700,11.641399658203126,2.5077998638153076,0.39159998297691345,9.472399711608887
1683008644755399700,11.661399658203125,2.468600034713745,0.3610999882221222,9.48390007019043
1683008644775401200,11.681401123046875,2.4158999919891357,0.3068999946117401,9.49940013885498
1683008644795399700,11.701399658203124,2.3522000312805176,0.2360999882221222,9.517399787902832
1683008644815399700,11.721399658203126,2.3041000366210938,0.15879999101161957,9.530699729919434
1683008644835401200,11.741401123046876,2.2874999046325684,0.09380000084638596,9.535599708557129
1683008644855399700,11.761399658203125,2.274399995803833,0.03480000048875809,9.53909969329834
1683008644875399700,11.781399658203124,2.208699941635132,-0.047199998050928116,9.554499626159668
1683008644895399700,11.801399658203126,2.109099864959717,-0.12770000100135803,9.576299667358398
1683008644915401200,11.821401123046876,2.0553998947143555,-0.17239999771118164,9.587200164794922
1683008644935399700,11.841399658203125,2.056999921798706,-0.1947999894618988,9.586400032043457
1683008644955399700,11.861399658203124,2.079900026321411,-0.2184000015258789,9.580999374389648
1683008644975401200,11.881401123046874,2.087399959564209,-0.24699999392032623,9.578700065612793
1683008644995399700,11.901399658203125,2.0613999366760254,-0.25609999895095825,9.584099769592285
1683008645015399700,11.921399658203125,2.03439998626709,-0.21949999034404755,9.590700149536133
1683008645035399700,11.941399658203125,2.045599937438965,-0.16120000183582306,9.589499473571777
1683008645055401200,11.961401123046874,2.097399950027466,-0.09719999879598618,9.57919979095459
1683008645075399700,11.981399658203125,2.1499998569488525,-0.03189999982714653,9.567899703979492
1683008645095399700,12.001399658203125,2.174799919128418,0.020999999716877937,9.562399864196777
1683008645115401200,12.021401123046875,2.172800064086914,0.04779999703168869,9.562699317932129
1683008645135401200,12.041401123046874,2.1661999225616455,0.053599998354911804,9.564199447631836
1683008645155399700,12.061399658203126,2.1640000343322754,0.046799998730421066,9.56470012664795
1683008645175399700,12.081399658203125,2.166800022125244,0.033799998462200165,9.564099311828613
1683008645195399700,12.101399658203125,2.1654999256134033,0.015699999406933784,9.564499855041504
1683008645215399700,12.121399658203124,2.1529998779296875,-0.004100000020116568,9.567299842834473
1683008645235399700,12.141399658203126,2.140399932861328,-0.02459999918937683,9.570099830627441
1683008645255399700,12.161399658203125,2.1414999961853027,-0.04569999873638153,9.569799423217773
1683008645275401200,12.181401123046875,2.1542999744415283,-0.06079999729990959,9.566800117492676
1683008645295399700,12.201399658203124,2.1747000217437744,-0.06849999725818634,9.562199592590332
1683008645315399700,12.221399658203126,2.1887998580932617,-0.07779999822378159,9.558899879455566
1683008645335401200,12.241401123046876,2.1905999183654785,-0.09079999476671219,9.55840015411377
1683008645355399700,12.261399658203125,2.1828999519348145,-0.10599999874830246,9.559999465942383
1683008645375399700,12.281399658203124,2.1858999729156494,-0.11769999563694,9.559199333190918
1683008645395399700,12.301399658203126,2.2219998836517334,-0.11309999972581863,9.550899505615234
1683008645415401200,12.321401123046876,2.3069000244140625,-0.09049999713897705,9.531000137329102
1683008645435399700,12.341399658203125,2.4098000526428223,-0.05219999700784683,9.50570011138916
1683008645455399700,12.361399658203124,2.4960999488830566,-0.01899999938905239,9.483599662780762
1683008645475401200,12.381401123046874,2.5706000328063965,-0.005499999970197678,9.463699340820312
1683008645495399700,12.401399658203125,2.6464998722076416,-0.001500000013038516,9.442699432373047
1683008645515399700,12.421399658203125,2.6958999633789062,-0.009099999442696571,9.428699493408203
1683008645535399700,12.441399658203125,2.6717000007629395,-0.03219999745488167,9.435599327087402
1683008645555401200,12.461401123046874,2.5855000019073486,-0.06109999865293503,9.459400177001953
1683008645575399700,12.481399658203125,2.504499912261963,-0.07840000092983246,9.480999946594238
1683008645595399700,12.501399658203125,2.4879000186920166,-0.0625,9.485599517822266
1683008645615401200,12.521401123046875,2.533599853515625,-0.03739999979734421,9.473599433898926
1683008645635401200,12.541401123046874,2.6145999431610107,-0.0210999995470047,9.451600074768066
1683008645655399700,12.561399658203126,2.6796998977661133,-0.006000000052154064,9.43340015411377
1683008645675399700,12.581399658203125,2.694999933242798,0.013100000098347664,9.428999900817871
1683008645695399700,12.601399658203125,2.6845998764038086,0.024699999019503593,9.431900024414062
1683008645715399700,12.621399658203124,2.6793999671936035,0.018299998715519905,9.43340015411377
1683008645735399700,12.641399658203126,2.6740000247955322,-0.008999999612569809,9.434999465942383
1683008645755399700,12.661399658203125,2.6606998443603516,-0.04939999803900719,9.438599586486816
1683008645775401200,12.681401123046875,2.625999927520752,-0.08579999953508377,9.448100090026855
1683008645795399700,12.701399658203124,2.5739998817443848,-0.11309999972581863,9.4621000289917
1683008645815399700,12.721399658203126,2.5149998664855957,-0.13349999487400055,9.477700233459473
1683008645835401200,12.741401123046876,2.455399990081787,-0.15529999136924744,9.493000030517578
1683008645855399700,12.761399658203125,2.398099899291992,-0.17919999361038208,9.50719928741455
1683008645875399700,12.781399658203124,2.341899871826172,-0.21079999208450317,9.520500183105469
1683008645895399700,12.801399658203126,2.2784998416900635,-0.25040000677108765,9.534899711608887
1683008645915401200,12.821401123046876,2.204200029373169,-0.3001999855041504,9.550899505615234
1683008645935399700,12.841399658203125,2.125499963760376,-0.3528999984264374,9.566999435424805
1683008645955399700,12.861399658203124,2.0600998401641846,-0.39149999618530273,9.57979965209961
1683008645975401200,12.881401123046874,2.027400016784668,-0.4099999964237213,9.585999488830566
1683008645995399700,12.901399658203125,2.011699914932251,-0.41679999232292175,9.58899974822998
1683008646015399700,12.921399658203125,1.9744999408721924,-0.43449997901916504,9.59589958190918
1683008646035399700,12.941399658203125,1.9299999475479126,-0.46059998869895935,9.603799819946289
1683008646055401200,12.961401123046874,1.9112999439239502,-0.471699982881546,9.606900215148926
1683008646075399700,12.981399658203125,1.941999912261963,-0.4504999816417694,9.601799964904785
1683008646095399700,13.001399658203125,2.023699998855591,-0.4025000035762787,9.5871000289917
1683008646115401200,13.021401123046875,2.1054999828338623,-0.36169999837875366,9.571100234985352
1683008646135401200,13.041401123046874,2.142899990081787,-0.3292999863624573,9.563899993896484
1683008646155399700,13.061399658203126,2.134999990463257,-0.2590000033378601,9.567899703979492
1683008646175399700,13.081399658203125,2.138700008392334,-0.16179999709129333,9.569199562072754
1683008646195399700,13.101399658203125,2.190999984741211,-0.08789999783039093,9.558300018310547
1683008646215399700,13.121399658203124,2.2611000537872314,-0.046699997037649155,9.542200088500977
1683008646235399700,13.141399658203126,2.3041999340057373,-0.02070000022649765,9.531999588012695
1683008646255399700,13.161399658203125,2.30649995803833,-0.005699999630451202,9.531499862670898
1683008646275401200,13.181401123046875,2.284899950027466,-0.0071000000461936,9.536699295043945
1683008646295399700,13.201399658203124,2.257499933242798,-0.02279999852180481,9.54319953918457
1683008646315399700,13.221399658203126,2.2344000339508057,-0.04879999905824661,9.548500061035156
1683008646335401200,13.241401123046876,2.2114999294281006,-0.08489999920129776,9.55359935760498
1683008646355399700,13.261399658203125,2.1743998527526855,-0.13319998979568481,9.561599731445312
1683008646375399700,13.281399658203124,2.1270999908447266,-0.18889999389648438,9.57129955291748
1683008646395399700,13.301399658203126,2.0880000591278076,-0.24650000035762787,9.578499794006348
1683008646415401200,13.321401123046876,2.072700023651123,-0.29440000653266907,9.580499649047852
1683008646435399700,13.341399658203125,2.0759999752044678,-0.3303000032901764,9.57859992980957
1683008646455399700,13.361399658203124,2.082200050354004,-0.35670000314712524,9.576299667358398
1683008646475401200,13.381401123046874,2.0832998752593994,-0.3788999915122986,9.575200080871582
1683008646495399700,13.401399658203125,2.0794999599456787,-0.4007999897003174,9.575200080871582
1683008646515399700,13.421399658203125,2.0789999961853027,-0.4221999943256378,9.574399948120117
1683008646535399700,13.441399658203125,2.0939998626708984,-0.4391999840736389,9.570300102233887
1683008646555401200,13.461401123046874,2.135200023651123,-0.44449999928474426,9.560999870300293
1683008646575399700,13.481399658203125,2.1922998428344727,-0.4315999746322632,9.548600196838379
1683008646595399700,13.501399658203125,2.2523000240325928,-0.4050000011920929,9.535799980163574
1683008646615399700,13.521399658203125,2.3229000568389893,-0.38119998574256897,9.519899368286133
1683008646635401200,13.541401123046874,2.3989999294281006,-0.3594000041484833,9.501799583435059
1683008646655399700,13.561399658203126,2.4776999950408936,-0.3357999920845032,9.482500076293945
1683008646675402800,13.58140283203125,2.5157999992370605,-0.3114999830722809,9.473299980163574
1683008646695399700,13.601399658203125,2.4911999702453613,-0.29989999532699585,9.48009967803955
1683008646715399700,13.621399658203124,2.4254000186920166,-0.29829999804496765,9.497200012207031
1683008646735399700,13.641399658203126,2.375,-0.29159998893737793,9.510199546813965
1683008646755399700,13.661399658203125,2.3919999599456787,-0.24249999225139618,9.507299423217773
1683008646775401200,13.681401123046875,2.4738998413085938,-0.17659999430179596,9.487799644470215
1683008646795399700,13.701399658203124,2.5757999420166016,-0.11589999496936798,9.461599349975586
1683008646815399700,13.721399658203126,2.6394999027252197,-0.05179999768733978,9.444499969482422
1683008646835401200,13.741401123046876,2.6542999744415283,0.014699999243021011,9.440499305725098
1683008646855399700,13.761399658203125,2.638700008392334,0.0648999959230423,9.44469928741455
1683008646875399700,13.781399658203124,2.615299940109253,0.08540000021457672,9.451000213623047
1683008646895399700,13.801399658203126,2.5931999683380127,0.0843999981880188,9.457099914550781
1683008646915401200,13.821401123046876,2.559499979019165,0.07989999651908875,9.466400146484375
1683008646935399700,13.841399658203125,2.5120999813079834,0.0819999948143959,9.479000091552734
1683008646955399700,13.861399658203124,2.464599847793579,0.09030000120401382,9.491399765014648
1683008646975401200,13.881401123046874,2.4258999824523926,0.09649999439716339,9.501299858093262
1683008646995399700,13.901399658203125,2.3954999446868896,0.09669999778270721,9.508999824523926
1683008647015399700,13.921399658203125,2.3668999671936035,0.0949999988079071,9.516200065612793
1683008647035399700,13.941399658203125,2.332200050354004,0.09139999747276306,9.524799346923828
1683008647055401200,13.961401123046874,2.287899971008301,0.07849999517202377,9.535599708557129
1683008647075399700,13.981399658203125,2.233299970626831,0.04969999939203262,9.548799514770508
1683008647095399700,14.001399658203125,2.1814000606536865,0.013799999840557575,9.56089973449707
1683008647115399700,14.021399658203125,2.162600040435791,-0.00989999994635582,9.565199851989746
1683008647135399700,14.041399658203124,2.1717000007629395,-0.026899999007582664,9.56309986114502
1683008647155399700,14.061399658203126,2.151700019836426,-0.06749999523162842,9.567399978637695
1683008647175399700,14.081399658203125,2.0769999027252197,-0.14469999074935913,9.583000183105469
1683008647195399700,14.101399658203125,2.0062999725341797,-0.2166999876499176,9.596699714660645
1683008647215399700,14.121399658203124,1.996999979019165,-0.2529999911785126,9.597799301147461
1683008647235399700,14.141399658203126,2.055999994277954,-0.2532999813556671,9.585299491882324
1683008647255399700,14.161399658203125,2.1115000247955322,-0.2360999882221222,9.573699951171875
1683008647275401200,14.181401123046875,2.126800060272217,-0.21369999647140503,9.570799827575684
1683008647295399700,14.201399658203124,2.086899995803833,-0.18060000240802765,9.580299377441406
1683008647315399700,14.221399658203126,2.0564000606536865,-0.12770000100135803,9.587699890136719
1683008647335401200,14.241401123046876,2.081699848175049,-0.07479999959468842,9.582799911499023
1683008647355399700,14.261399658203125,2.1417999267578125,-0.042799998074769974,9.56969928741455
1683008647375399700,14.281399658203124,2.191699981689453,-0.02709999866783619,9.558499336242676
1683008647395399700,14.301399658203126,2.2100000381469727,-0.022599998861551285,9.554299354553223
1683008647415401200,14.321401123046876,2.2072999477386475,-0.03019999898970127,9.554900169372559
1683008647435399700,14.341399658203125,2.210599899291992,-0.042399998754262924,9.554100036621094
1683008647455399700,14.361399658203124,2.2186999320983887,-0.06059999763965607,9.55210018157959
1683008647475401200,14.381401123046874,2.213599920272827,-0.09269999712705612,9.552999496459961
1683008647495399700,14.401399658203125,2.2009999752044678,-0.13429999351501465,9.555500030517578
1683008647515399700,14.421399658203125,2.1937999725341797,-0.17949999868869781,9.55639934539795
1683008647535399700,14.441399658203125,2.1921000480651855,-0.22630000114440918,9.55579948425293
1683008647555401200,14.461401123046874,2.1895999908447266,-0.2736999988555908,9.555099487304688
1683008647575399700,14.481399658203125,2.1915998458862305,-0.31529998779296875,9.553400039672852
1683008647595399700,14.501399658203125,2.201200008392334,-0.3490999937057495,9.550000190734863
1683008647615399700,14.521399658203125,2.2149999141693115,-0.3764999806880951,9.545700073242188
1683008647635401200,14.541401123046874,2.232800006866455,-0.3974999785423279,9.54069995880127
1683008647655399700,14.561399658203126,2.2509000301361084,-0.40869998931884766,9.535999298095703
1683008647675399700,14.581399658203125,2.273699998855591,-0.4145999848842621,9.530399322509766
1683008647695399700,14.601399658203125,2.2964999675750732,-0.41119998693466187,9.524999618530273
1683008647715399700,14.621399658203124,2.325199842453003,-0.3902999758720398,9.518899917602539
1683008647735399700,14.641399658203126,2.3705999851226807,-0.34929999709129333,9.509300231933594
1683008647755399700,14.661399658203125,2.4375,-0.28929999470710754,9.494400024414062
1683008647775401200,14.681401123046875,2.5119998455047607,-0.23279999196529388,9.476499557495117
1683008647795399700,14.701399658203124,2.5864999294281006,-0.1841999888420105,9.457599639892578
1683008647815399700,14.721399658203126,2.647899866104126,-0.13599999248981476,9.441399574279785
1683008647835401200,14.741401123046876,2.6863999366760254,-0.08999999612569809,9.430999755859375
1683008647855399700,14.761399658203125,2.6713998317718506,-0.04809999838471413,9.435599327087402
1683008647875399700,14.781399658203124,2.606299877166748,-0.015099999494850636,9.453899383544922
1683008647895399700,14.801399658203126,2.5219998359680176,0.011799999512732029,9.476699829101562
1683008647915401200,14.821401123046876,2.4716999530792236,0.0494999997317791,9.489899635314941
1683008647935399700,14.841399658203125,2.4823999404907227,0.11219999939203262,9.486499786376953
1683008647955401200,14.861401123046875,2.5604000091552734,0.17669999599456787,9.464799880981445
1683008647975399700,14.881399658203126,2.6557998657226562,0.23729999363422394,9.43709945678711
1683008647995399700,14.901399658203125,2.713599920272827,0.2920999825000763,9.41919994354248
1683008648015399700,14.921399658203125,2.7129998207092285,0.32739999890327454,9.41819953918457
1683008648035399700,14.941399658203125,2.6771998405456543,0.33719998598098755,9.427999496459961
1683008648055399700,14.961399658203124,2.638000011444092,0.3158999979496002,9.439799308776855
1683008648075399700,14.981399658203125,2.599799871444702,0.26579999923706055,9.45199966430664
1683008648095399700,15.001399658203125,2.5463998317718506,0.20409999787807465,9.467999458312988
1683008648115399700,15.021399658203125,2.4730000495910645,0.13989999890327454,9.48859977722168
1683008648135399700,15.041399658203124,2.395900011062622,0.07800000160932541,9.509099960327148
1683008648155399700,15.061399658203126,2.32669997215271,0.023799998685717583,9.52649974822998
1683008648175399700,15.081399658203125,2.2627999782562256,-0.020800000056624413,9.541899681091309
1683008648195399700,15.101399658203125,2.197700023651123,-0.06149999797344208,9.557000160217285
1683008648215399700,15.121399658203124,2.126999855041504,-0.09869999438524246,9.572599411010742
1683008648235399700,15.141399658203126,2.055500030517578,-0.1305999904870987,9.587900161743164
1683008648255399700,15.161399658203125,1.997499942779541,-0.1551000028848648,9.599699974060059
1683008648275399700,15.181399658203125,1.9709999561309814,-0.16859999299049377,9.604999542236328
1683008648295399700,15.201399658203124,1.9821999073028564,-0.17219999432563782,9.60260009765625
1683008648315399700,15.221399658203126,1.9900999069213867,-0.18140000104904175,9.600799560546875
1683008648335399700,15.241399658203125,1.9615999460220337,-0.20960000157356262,9.606100082397461
1683008648355399700,15.261399658203125,1.9328999519348145,-0.23680000007152557,9.611299514770508
1683008648375399700,15.281399658203124,1.930899977684021,-0.24650000035762787,9.611499786376953
1683008648395399700,15.301399658203126,1.9581999778747559,-0.23549999296665192,9.606200218200684
1683008648415399700,15.321399658203125,1.9950999021530151,-0.20919999480247498,9.599199295043945
1683008648435399700,15.341399658203125,2.024399995803833,-0.18619999289512634,9.593599319458008
1683008648455399700,15.361399658203124,2.0376999378204346,-0.17219999432563782,9.590999603271484
1683008648475399700,15.381399658203126,2.0528998374938965,-0.13499999046325684,9.588399887084961
1683008648495399700,15.401399658203125,2.0952000617980957,-0.06939999759197235,9.579899787902832
1683008648515399700,15.421399658203125,2.16129994392395,-0.008799999952316284,9.565499305725098
1683008648535399700,15.441399658203125,2.2251999378204346,0.04349999874830246,9.550700187683105
1683008648555399700,15.461399658203124,2.261899948120117,0.07930000126361847,9.541799545288086
1683008648575399700,15.481399658203125,2.260999917984009,0.09699999541044235,9.541899681091309
1683008648595401200,15.501401123046875,2.2451000213623047,0.10459999740123749,9.545599937438965
1683008648615399700,15.521399658203125,2.243299961090088,0.1136000007390976,9.545899391174316
1683008648635401200,15.541401123046874,2.253999948501587,0.120899997651577,9.543299674987793
1683008648655399700,15.561399658203126,2.262399911880493,0.11819999665021896,9.541299819946289
1683008648675399700,15.581399658203125,2.2679998874664307,0.10019999742507935,9.540200233459473
1683008648695401200,15.601401123046875,2.2667999267578125,0.07159999758005142,9.54069995880127
1683008648715399700,15.621399658203124,2.262199878692627,0.037699997425079346,9.541999816894531
1683008648735399700,15.641399658203126,2.2620999813079834,0.011299999430775642,9.542099952697754
1683008648755399700,15.661399658203125,2.260499954223633,-0.003700000001117587,9.542499542236328
1683008648775401200,15.681401123046875,2.264699935913086,-0.0030999998562037945,9.541500091552734
1683008648795399700,15.701399658203124,2.2874999046325684,0.008899999782443047,9.536099433898926
1683008648815399700,15.721399658203126,2.310699939727783,0.016999999061226845,9.530499458312988
1683008648835402800,15.74140283203125,2.320499897003174,0.015099999494850636,9.52810001373291
1683008648855399700,15.761399658203125,2.3327999114990234,0.009200000204145908,9.525099754333496
1683008648875399700,15.781399658203124,2.3615000247955322,0.0010999999940395355,9.517999649047852
1683008648895399700,15.801399658203126,2.4121999740600586,0.005499999970197678,9.50529956817627
1683008648915401200,15.821401123046876,2.4749999046325684,0.003000000026077032,9.489099502563477
1683008648935399700,15.841399658203125,2.553999900817871,-0.005799999926239252,9.468199729919434
1683008648955399700,15.861399658203124,2.6150999069213867,-0.014800000004470348,9.451499938964844
1683008648975401200,15.881401123046874,2.6470999717712402,-0.026599999517202377,9.442500114440918
1683008648995399700,15.901399658203125,2.6369998455047607,-0.033299997448921204,9.445300102233887
1683008649015399700,15.921399658203125,2.5760998725891113,-0.043299999088048935,9.4621000289917
1683008649035399700,15.941399658203125,2.4853999614715576,-0.05299999937415123,9.486299514770508
1683008649055401200,15.961401123046874,2.4301998615264893,-0.042500000447034836,9.50059986114502
1683008649075399700,15.981399658203125,2.4403998851776123,0.0142000000923872,9.498099327087402
1683008649095399700,16.001399658203123,2.5018999576568604,0.08419999480247498,9.48169994354248
1683008649115399700,16.021399658203126,2.5757999420166016,0.15729999542236328,9.460999488830566
1683008649135401200,16.041401123046874,2.625,0.23909999430179596,9.445699691772461
1683008649155399700,16.061399658203126,2.634399890899658,0.3132999837398529,9.440899848937988
1683008649175399700,16.081399658203125,2.6208999156951904,0.36239999532699585,9.442899703979492
1683008649195401200,16.101401123046877,2.6108999252319336,0.4009999930858612,9.444099426269531
1683008649215399700,16.121399658203124,2.6115000247955322,0.42149999737739563,9.443099975585938
1683008649235402800,16.14140283203125,2.596799850463867,0.41429999470710754,9.447400093078613
1683008649255402800,16.16140283203125,2.551499843597412,0.3917999863624573,9.460700035095215
1683008649275402800,16.18140283203125,2.4861998558044434,0.3626999855041504,9.479299545288086
1683008649295399700,16.201399658203126,2.4214999675750732,0.33309999108314514,9.497099876403809
1683008649315399700,16.221399658203126,2.376999855041504,0.3146999776363373,9.508999824523926
1683008649335402800,16.24140283203125,2.3506999015808105,0.3046000003814697,9.515799522399902
1683008649355402800,16.26140283203125,2.325199842453003,0.2938999831676483,9.52239990234375
1683008649375399700,16.281399658203124,2.28659987449646,0.27399998903274536,9.532400131225586
1683008649395399700,16.301399658203124,2.2286999225616455,0.24479998648166656,9.546799659729004
1683008649415402800,16.32140283203125,2.1591999530792236,0.21449999511241913,9.563499450683594
1683008649435402800,16.34140283203125,2.105299949645996,0.19119998812675476,9.576000213623047
1683008649455399700,16.361399658203126,2.0911998748779297,0.17799998819828033,9.579400062561035
1683008649475402800,16.38140283203125,2.100100040435791,0.16899999976158142,9.57759952545166
1683008649495402800,16.40140283203125,2.0797998905181885,0.13329999148845673,9.582599639892578
1683008649515402800,16.42140283203125,2.0392000675201416,0.0738999992609024,9.591899871826172
1683008649535399700,16.441399658203125,2.006700038909912,0.014399999752640724,9.599100112915039
1683008649555401200,16.461401123046876,2.02239990234375,-0.026099998503923416,9.595799446105957
1683008649575399700,16.481399658203124,2.0873000621795654,-0.03929999843239784,9.581799507141113
1683008649595399700,16.501399658203123,2.1396000385284424,-0.04079999774694443,9.570199966430664
1683008649615399700,16.521399658203126,2.149099826812744,-0.0357000008225441,9.568099975585938
1683008649635401200,16.541401123046874,2.120499849319458,-0.010900000110268593,9.574600219726562
1683008649655399700,16.561399658203126,2.096799850463867,0.03150000050663948,9.57979965209961
1683008649675402800,16.58140283203125,2.1166999340057373,0.0803999975323677,9.57509994506836
1683008649695399700,16.601399658203125,2.1679999828338623,0.13289999961853027,9.562999725341797
1683008649715399700,16.621399658203124,2.2161998748779297,0.19139999151229858,9.550999641418457
1683008649735402800,16.64140283203125,2.2428998947143555,0.24939998984336853,9.543399810791016
1683008649755402800,16.66140283203125,2.246799945831299,0.3008999824523926,9.540999412536621
1683008649775402800,16.68140283203125,2.246299982070923,0.335999995470047,9.539899826049805
1683008649795399700,16.701399658203126,2.248699903488159,0.35740000009536743,9.538599967956543
1683008649815399700,16.721399658203126,2.25,0.36409997940063477,9.538000106811523
1683008649835401200,16.741401123046874,2.247799873352051,0.3568999767303467,9.538799285888672
1683008649855399700,16.761399658203125,2.244799852371216,0.3418999910354614,9.54010009765625
1683008649875399700,16.781399658203124,2.2446000576019287,0.322299987077713,9.540800094604492
1683008649895399700,16.801399658203124,2.2458999156951904,0.30699998140335083,9.540999412536621
1683008649915401200,16.821401123046876,2.249699831008911,0.2924000024795532,9.540599822998047
1683008649935399700,16.841399658203127,2.2533998489379883,0.280599981546402,9.54010009765625
1683008649955399700,16.861399658203126,2.2546000480651855,0.27230000495910645,9.539999961853027
1683008649975404300,16.881404296875,2.2563998699188232,0.259799987077713,9.539899826049805
1683008649995399700,16.901399658203125,2.2563998699188232,0.23979999125003815,9.540499687194824
1683008650015399700,16.921399658203125,2.258699893951416,0.21689999103546143,9.540499687194824
1683008650035399700,16.941399658203125,2.2726998329162598,0.2125999927520752,9.537199974060059
1683008650055401200,16.961401123046876,2.2985999584198,0.24489998817443848,9.53030014038086
1683008650075399700,16.981399658203124,2.345599889755249,0.3138999938964844,9.516799926757812
1683008650095399700,17.001399658203123,2.416599988937378,0.3874000012874603,9.496299743652344
1683008650115399700,17.021399658203126,2.4986000061035156,0.4315999746322632,9.473099708557129
1683008650135401200,17.041401123046874,2.5807998180389404,0.4462999999523163,9.450399398803711
1683008650155402800,17.06140283203125,2.6387999057769775,0.4390999972820282,9.434700012207031
1683008650175399700,17.081399658203125,2.656899929046631,0.4332999885082245,9.429800033569336
1683008650195399700,17.101399658203125,2.6029999256134033,0.42479997873306274,9.445300102233887
1683008650215399700,17.121399658203124,2.4981000423431396,0.39649999141693115,9.474800109863281
1683008650235402800,17.14140283203125,2.3845999240875244,0.36419999599456787,9.50529956817627
1683008650255399700,17.161399658203123,2.3285999298095703,0.37700000405311584,9.518599510192871
1683008650275401200,17.181401123046875,2.349299907684326,0.45260000228881836,9.510299682617188
1683008650295399700,17.201399658203126,2.4335999488830566,0.5386999845504761,9.48449993133545
1683008650315399700,17.221399658203126,2.5256998538970947,0.6243000030517578,9.4552001953125
1683008650335402800,17.24140283203125,2.5848000049591064,0.691100001335144,9.434499740600586
1683008650355399700,17.261399658203125,2.582200050354004,0.7174999713897705,9.433300018310547
1683008650375399700,17.281399658203124,2.5267999172210693,0.7131999731063843,9.448599815368652
1683008650395402800,17.30140283203125,2.464900016784668,0.6866999864578247,9.466899871826172
1683008650415402800,17.32140283203125,2.41729998588562,0.6448999643325806,9.482099533081055
1683008650435399700,17.341399658203127,2.386199951171875,0.6029999852180481,9.49269962310791
1683008650455399700,17.361399658203126,2.352099895477295,0.5665000081062317,9.503499984741211
1683008650475399700,17.381399658203126,2.3120999336242676,0.5324999690055847,9.515199661254883
1683008650495402800,17.40140283203125,2.2781999111175537,0.5045999884605408,9.52489948272705
1683008650515402800,17.42140283203125,2.253499984741211,0.4781999886035919,9.53219985961914
1683008650535399700,17.441399658203125,2.241299867630005,0.44839999079704285,9.536499977111816
1683008650555401200,17.461401123046876,2.2339999675750732,0.4123999774456024,9.539799690246582
1683008650575399700,17.481399658203124,2.212100028991699,0.3572999835014343,9.547100067138672
1683008650595402800,17.50140283203125,2.166800022125244,0.2962999939918518,9.559599876403809
1683008650615399700,17.521399658203126,2.1098999977111816,0.23539999127388,9.573999404907227
1683008650635399700,17.541399658203126,2.0687999725341797,0.17639999091625214,9.58430004119873
1683008650655399700,17.561399658203126,2.067199945449829,0.13130000233650208,9.585299491882324
1683008650675402800,17.58140283203125,2.092900037765503,0.08529999852180481,9.580299377441406
1683008650695402800,17.60140283203125,2.124699831008911,0.03199999779462814,9.573599815368652
1683008650715399700,17.621399658203124,2.146199941635132,-0.017400000244379044,9.56879997253418
1683008650735399700,17.641399658203124,2.1633999347686768,-0.06269999593496323,9.564799308776855
1683008650755402800,17.66140283203125,2.210399866104126,-0.08240000158548355,9.553899765014648
1683008650775402800,17.68140283203125,2.26639986038208,-0.0810999944806099,9.540800094604492
1683008650795399700,17.701399658203126,2.293799877166748,-0.07889999449253082,9.534199714660645
1683008650815401200,17.721401123046874,2.2749998569488525,-0.06709999591112137,9.538799285888672
1683008650835401200,17.741401123046874,2.2463998794555664,-0.028299998492002487,9.54580020904541
1683008650855402800,17.76140283203125,2.270699977874756,0.04939999803900719,9.539999961853027
1683008650875402800,17.78140283203125,2.3559000492095947,0.14639998972415924,9.51830005645752
1683008650895399700,17.801399658203124,2.4677000045776367,0.23839999735355377,9.48799991607666
1683008650915401200,17.821401123046876,2.565999984741211,0.31929999589920044,9.45949935913086
1683008650935399700,17.841399658203127,2.6231000423431396,0.37209999561309814,9.441899299621582
1683008650955399700,17.861399658203126,2.630699872970581,0.3887999951839447,9.439199447631836
1683008650975401200,17.881401123046874,2.616299867630005,0.38109999895095825,9.443499565124512
1683008650995399700,17.901399658203125,2.6073999404907227,0.3569999933242798,9.4468994140625
1683008651015399700,17.921399658203125,2.5992000102996826,0.3212999999523163,9.450399398803711
1683008651035399700,17.941399658203125,2.5909998416900635,0.2793000042438507,9.453999519348145
1683008651055401200,17.961401123046876,2.579699993133545,0.23669999837875366,9.458199501037598
1683008651075399700,17.981399658203124,2.5678999423980713,0.19509999454021454,9.46239948272705
1683008651095402800,18.00140283203125,2.559499979019165,0.15529999136924744,9.465399742126465
1683008651115402800,18.02140283203125,2.5555999279022217,0.1225999966263771,9.467000007629395
1683008651135401200,18.041401123046874,2.552000045776367,0.09919999539852142,9.468199729919434
1683008651155405800,18.06140576171875,2.5462000370025635,0.08009999990463257,9.469900131225586
1683008651175401200,18.081401123046874,2.5390000343322754,0.06199999898672104,9.472000122070312
1683008651195399700,18.101399658203125,2.5299999713897705,0.045399997383356094,9.474499702453613
1683008651215399700,18.121399658203124,2.5327999591827393,0.033399999141693115,9.473799705505371
1683008651235399700,18.141399658203124,2.5497000217437744,0.03319999948143959,9.46929931640625
1683008651255402800,18.16140283203125,2.57669997215271,0.03819999843835831,9.461999893188477
1683008651275401200,18.181401123046875,2.599400043487549,0.039000000804662704,9.455699920654297
1683008651295399700,18.201399658203126,2.634199857711792,0.03790000081062317,9.446100234985352
1683008651315399700,18.221399658203126,2.6671998500823975,0.027300000190734863,9.43690013885498
1683008651335402800,18.24140283203125,2.697999954223633,0.009999999776482582,9.428099632263184
1683008651355402800,18.26140283203125,2.714099884033203,0.01119999960064888,9.423500061035156
1683008651375402800,18.28140283203125,2.704200029373169,0.015099999494850636,9.426400184631348
1683008651395402800,18.30140283203125,2.6789000034332275,0.007999999448657036,9.433599472045898
1683008651415402800,18.32140283203125,2.64139986038208,0,9.444199562072754
1683008651435402800,18.34140283203125,2.5999999046325684,0.008100000210106373,9.455599784851074
1683008651455399700,18.361399658203126,2.5720999240875244,0.025999998673796654,9.463199615478516
1683008651475401200,18.381401123046874,2.565700054168701,0.05089999735355377,9.464900016784668
1683008651495402800,18.40140283203125,2.560299873352051,0.08799999952316284,9.466099739074707
1683008651515402800,18.42140283203125,2.5429999828338623,0.13809999823570251,9.470099449157715
1683008651535399700,18.441399658203125,2.521399974822998,0.19339999556541443,9.474899291992188
1683008651555401200,18.461401123046876,2.51039981842041,0.24309998750686646,9.476699829101562
1683008651575399700,18.481399658203124,2.5083999633789062,0.2818000018596649,9.476200103759766
1683008651595399700,18.501399658203123,2.4995999336242676,0.30219998955726624,9.477899551391602
1683008651615399700,18.521399658203126,2.4704999923706055,0.3084999918937683,9.485300064086914
1683008651635399700,18.541399658203126,2.42549991607666,0.3037000000476837,9.497099876403809
1683008651655401200,18.561401123046874,2.38100004196167,0.29089999198913574,9.508699417114258
1683008651675401200,18.581401123046874,2.3501999378204346,0.2710999846458435,9.516900062561035
1683008651695402800,18.60140283203125,2.327899932861328,0.24539999663829803,9.523099899291992
1683008651715402800,18.62140283203125,2.2963998317718506,0.21679998934268951,9.531499862670898
1683008651735399700,18.641399658203124,2.246299982070923,0.18159998953342438,9.544099807739258
1683008651755399700,18.661399658203123,2.174099922180176,0.13580000400543213,9.561599731445312
1683008651775401200,18.681401123046875,2.0922000408172607,0.07909999787807465,9.580499649047852
1683008651795399700,18.701399658203126,2.023900032043457,0.024299999698996544,9.595399856567383
1683008651815399700,18.721399658203126,1.9967999458312988,-0.0064999996684491634,9.601099967956543
1683008651835415300,18.741415283203125,2.024899959564209,-0.012000000104308128,9.59529972076416
1683008651855399700,18.761399658203125,2.0685999393463135,-0.021299999207258224,9.585899353027344
1683008651875399700,18.781399658203124,2.0904998779296875,-0.044999998062849045,9.581099510192871
1683008651895399700,18.801399658203124,2.094599962234497,-0.06159999966621399,9.580100059509277
1683008651915401200,18.821401123046876,2.1022000312805176,-0.06989999860525131,9.578399658203125
1683008651935399700,18.841399658203127,2.1422998905181885,-0.0632999986410141,9.569499969482422
1683008651955399700,18.861399658203126,2.1935999393463135,-0.060099996626377106,9.557899475097656
1683008651975401200,18.881401123046874,2.231099843978882,-0.0835999995470047,9.549099922180176
1683008651995402800,18.90140283203125,2.2295000553131104,-0.11329999566078186,9.549099922180176
1683008652015402800,18.92140283203125,2.2014999389648438,-0.11259999871253967,9.5556001663208
1683008652035399700,18.941399658203125,2.188699960708618,-0.08229999989271164,9.558899879455566
1683008652055399700,18.961399658203124,2.2273998260498047,-0.032099999487400055,9.550199508666992
1683008652075402800,18.98140283203125,2.2986998558044434,0.03269999846816063,9.533299446105957
1683008652095402800,19.00140283203125,2.3595998287200928,0.10449999570846558,9.517899513244629
1683008652115399700,19.021399658203126,2.4034998416900635,0.17479999363422394,9.505899429321289
1683008652135401200,19.041401123046874,2.430500030517578,0.22089999914169312,9.498099327087402
1683008652155399700,19.061399658203126,2.439499855041504,0.2360999882221222,9.495399475097656
1683008652175399700,19.081399658203125,2.4403998851776123,0.22789999842643738,9.495299339294434
1683008652195401200,19.101401123046877,2.4342000484466553,0.20409999787807465,9.497499465942383
1683008652215399700,19.121399658203124,2.429499864578247,0.16759999096393585,9.49940013885498
1683008652235399700,19.141399658203124,2.428299903869629,0.12479999661445618,9.500399589538574
1683008652255399700,19.161399658203123,2.427500009536743,0.08469999581575394,9.500999450683594
1683008652275401200,19.181401123046875,2.4271998405456543,0.04779999703168869,9.501299858093262
1683008652295399700,19.201399658203126,2.4296000003814697,0.013700000010430813,9.500899314880371
1683008652315399700,19.221399658203126,2.434000015258789,-0.013299999758601189,9.499699592590332
1683008652335401200,19.241401123046874,2.4405999183654785,-0.03309999778866768,9.498000144958496
1683008652355399700,19.261399658203125,2.444999933242798,-0.04399999976158142,9.49679946899414
1683008652375399700,19.281399658203124,2.448199987411499,-0.05069999769330025,9.495999336242676
1683008652395399700,19.301399658203124,2.454399824142456,-0.050599999725818634,9.494400024414062
1683008652415401200,19.321401123046876,2.4677000045776367,-0.03929999843239784,9.490900039672852
1683008652435399700,19.341399658203127,2.4896998405456543,-0.010799999348819256,9.485300064086914
1683008652455399700,19.361399658203126,2.519399881362915,0.011399999260902405,9.477399826049805
1683008652475399700,19.381399658203126,2.561199903488159,0.020800000056624413,9.46619987487793
1683008652495399700,19.401399658203125,2.6095998287200928,0.03720000013709068,9.452899932861328
1683008652515399700,19.421399658203125,2.6447999477386475,0.06560000032186508,9.442999839782715
1683008652535402800,19.44140283203125,2.619799852371216,0.10170000046491623,9.449600219726562
1683008652555402800,19.46140283203125,2.5511999130249023,0.12189999967813492,9.468199729919434
1683008652575399700,19.481399658203124,2.4838998317718506,0.142099991440773,9.485799789428711
1683008652595399700,19.501399658203123,2.456199884414673,0.1833999902009964,9.492199897766113
1683008652615399700,19.521399658203126,2.468899965286255,0.24799999594688416,9.487500190734863
1683008652635401200,19.541401123046874,2.523599863052368,0.3182999789714813,9.470999717712402
1683008652655399700,19.561399658203126,2.5807998180389404,0.3872999846935272,9.45300006866455
1683008652675399700,19.581399658203125,2.605799913406372,0.44349998235702515,9.443599700927734
1683008652695401200,19.601401123046877,2.5904998779296875,0.4690999984741211,9.446599960327148
1683008652715401200,19.621401123046876,2.543299913406372,0.4715999960899353,9.45930004119873
1683008652735399700,19.641399658203124,2.4876999855041504,0.45579999685287476,9.474899291992188
1683008652755399700,19.661399658203123,2.437700033187866,0.4350999891757965,9.488800048828125
1683008652775402800,19.68140283203125,2.392199993133545,0.4202999770641327,9.501099586486816
1683008652795402800,19.70140283203125,2.3488998413085938,0.4180999994277954,9.511899948120117
1683008652815399700,19.721399658203126,2.315199851989746,0.421099990606308,9.520099639892578
1683008652835401200,19.741401123046874,2.2988998889923096,0.4221999943256378,9.52400016784668
1683008652855402800,19.76140283203125,2.291800022125244,0.4193999767303467,9.525799751281738
1683008652875402800,19.78140283203125,2.2829999923706055,0.4048999845981598,9.528499603271484
1683008652895401200,19.801401123046876,2.2619998455047607,0.37549999356269836,9.534799575805664
1683008652915399700,19.821399658203124,2.2242000102996826,0.33009999990463257,9.545299530029297
1683008652935402800,19.84140283203125,2.1740000247955322,0.27129998803138733,9.558699607849121
1683008652955399700,19.861399658203126,2.120499849319458,0.2021999955177307,9.572500228881836
1683008652975399700,19.881399658203126,2.089099884033203,0.14559999108314514,9.580399513244629
1683008652995399700,19.901399658203125,2.1101999282836914,0.11339999735355377,9.576199531555176
1683008653015402800,19.92140283203125,2.1385998725891113,0.07689999788999557,9.570300102233887
1683008653035399700,19.941399658203125,2.1196999549865723,0.01860000006854534,9.574699401855469
1683008653055401200,19.961401123046876,2.0915000438690186,-0.021199999377131462,9.580900192260742
1683008653075399700,19.981399658203124,2.093899965286255,-0.017899999395012856,9.580399513244629
1683008653095402800,20.00140283203125,2.1364998817443848,0.011799999512732029,9.571000099182129
1683008653115399700,20.021399658203126,2.176499843597412,0.03849999979138374,9.56190013885498
1683008653135401200,20.041401123046874,2.189300060272217,0.04609999805688858,9.559000015258789
1683008653155399700,20.061399658203126,2.1689999103546143,0.03399999812245369,9.563699722290039
1683008653175399700,20.081399658203125,2.131899833679199,0.030899999663233757,9.571999549865723
1683008653195399700,20.101399658203125,2.1345999240875244,0.05609999969601631,9.57129955291748
1683008653215402800,20.12140283203125,2.1980998516082764,0.07699999958276749,9.55679988861084
1683008653235399700,20.141399658203124,2.2695999145507812,0.09369999915361404,9.539899826049805
1683008653255399700,20.161399658203123,2.321899890899658,0.11479999870061874,9.526999473571777
1683008653275401200,20.181401123046875,2.3496999740600586,0.13050000369548798,9.519999504089355
1683008653295402800,20.20140283203125,2.356799840927124,0.12919999659061432,9.51830005645752
1683008653315399700,20.221399658203126,2.3489999771118164,0.1151999980211258,9.520400047302246
1683008653335402800,20.24140283203125,2.336400032043457,0.09319999814033508,9.523699760437012
1683008653355399700,20.261399658203125,2.3299999237060547,0.06369999796152115,9.525599479675293
1683008653375402800,20.28140283203125,2.3297998905181885,0.027499999850988388,9.525799751281738
1683008653395399700,20.301399658203124,2.3279998302459717,-0.01719999872148037,9.526199340820312
1683008653415401200,20.321401123046876,2.3207998275756836,-0.05859999731183052,9.527799606323242
1683008653435401200,20.341401123046875,2.3148000240325928,-0.09359999746084213,9.528999328613281
1683008653455402800,20.36140283203125,2.309499979019165,-0.11710000038146973,9.529999732971191
1683008653475399700,20.381399658203126,2.307999849319458,-0.1251000016927719,9.53030014038086
1683008653495399700,20.401399658203125,2.3093998432159424,-0.12459999322891235,9.529999732971191
1683008653515402800,20.42140283203125,2.3062000274658203,-0.1266999989748001,9.530699729919434
1683008653535402800,20.44140283203125,2.3050999641418457,-0.14059999585151672,9.530799865722656
1683008653555401200,20.461401123046876,2.3078999519348145,-0.14739999175071716,9.529999732971191
1683008653575399700,20.481399658203124,2.322499990463257,-0.13289999961853027,9.526700019836426
1683008653595402800,20.50140283203125,2.3564000129699707,-0.10159999877214432,9.518699645996094
1683008653615402800,20.52140283203125,2.3952999114990234,-0.0778999999165535,9.509200096130371
1683008653635399700,20.541399658203126,2.4440999031066895,-0.06780000030994415,9.496899604797363
1683008653655399700,20.561399658203126,2.4875998497009277,-0.06719999760389328,9.485599517822266
1683008653675402800,20.58140283203125,2.523099899291992,-0.053599998354911804,9.476299285888672
1683008653695402800,20.60140283203125,2.547299861907959,-0.009499999694526196,9.469999313354492
1683008653715399700,20.621399658203124,2.5473999977111816,0.033900000154972076,9.469900131225586
1683008653735399700,20.641399658203124,2.5332999229431152,0.04879999905824661,9.473599433898926
1683008653755399700,20.661399658203123,2.496299982070923,0.038599997758865356,9.483499526977539
1683008653775402800,20.68140283203125,2.4440999031066895,0.03269999846816063,9.497099876403809
1683008653795399700,20.701399658203126,2.4019999504089355,0.043800000101327896,9.507800102233887
1683008653815401200,20.721401123046874,2.390899896621704,0.054099999368190765,9.510499954223633
1683008653835404300,20.741404296875,2.4082999229431152,0.06039999797940254,9.506099700927734
1683008653855402800,20.76140283203125,2.41729998588562,0.06619999557733536,9.503799438476562
1683008653875399700,20.781399658203124,2.402099847793579,0.06960000097751617,9.507599830627441
1683008653895401200,20.801401123046876,2.3757998943328857,0.07270000129938126,9.514200210571289
1683008653915401200,20.821401123046876,2.3545000553131104,0.07750000059604645,9.519399642944336
1683008653935399700,20.841399658203127,2.331199884414673,0.08079999685287476,9.525099754333496
1683008653955401200,20.861401123046875,2.3001999855041504,0.07889999449253082,9.532699584960938
1683008653975399700,20.881399658203126,2.260999917984009,0.07239999622106552,9.542099952697754
1683008653995399700,20.901399658203125,2.2214999198913574,0.06030000001192093,9.551499366760254
1683008654015399700,20.921399658203125,2.191999912261963,0.04169999808073044,9.55840015411377
1683008654035399700,20.941399658203125,2.171999931335449,0.017099998891353607,9.562999725341797
1683008654055401200,20.961401123046876,2.15120005607605,-0.013700000010430813,9.567699432373047
1683008654075399700,20.981399658203124,2.1120998859405518,-0.05199999734759331,9.576299667358398
1683008654095402800,21.00140283203125,2.055799961090088,-0.09829999506473541,9.588199615478516
1683008654115402800,21.02140283203125,1.993399977684021,-0.15029999613761902,9.600699424743652
1683008654135401200,21.041401123046874,1.9530999660491943,-0.19929999113082886,9.608099937438965
1683008654155401200,21.061401123046874,1.952199935913086,-0.23079998791217804,9.607500076293945
1683008654175399700,21.081399658203125,1.9713000059127808,-0.2636999785900116,9.602799415588379
1683008654195399700,21.101399658203125,1.9800999164581299,-0.31679999828338623,9.59939956665039
1683008654215399700,21.121399658203124,1.9738999605178833,-0.3779999911785126,9.598400115966797
1683008654235399700,21.141399658203124,1.9783999919891357,-0.4351999759674072,9.595099449157715
1683008654255399700,21.161399658203123,2.0314998626708984,-0.4558999836444855,9.583000183105469
1683008654275401200,21.181401123046875,2.1059000492095947,-0.4430999755859375,9.567500114440918
1683008654295399700,21.201399658203126,2.1529998779296875,-0.42980000376701355,9.557700157165527
1683008654315399700,21.221399658203126,2.1322999000549316,-0.413100004196167,9.56309986114502
1683008654335401200,21.241401123046874,2.066200017929077,-0.358599990606308,9.579699516296387
1683008654355402800,21.26140283203125,2.0471999645233154,-0.2459999918937683,9.58739948272705
1683008654375399700,21.281399658203124,2.1178998947143555,-0.11079999804496765,9.57450008392334
1683008654395399700,21.301399658203124,2.232499837875366,0.009800000116229057,9.549099922180176
1683008654415401200,21.321401123046876,2.32069993019104,0.11319999396800995,9.527400016784668
1683008654435399700,21.341399658203127,2.34660005569458,0.18199999630451202,9.519999504089355
1683008654455399700,21.361399658203126,2.3217999935150146,0.21289999783039093,9.525400161743164
1683008654475399700,21.381399658203126,2.2883999347686768,0.21119999885559082,9.533499717712402
1683008654495401200,21.401401123046874,2.2690999507904053,0.1818999946117401,9.538700103759766
1683008654515401200,21.421401123046873,2.257200002670288,0.141199991106987,9.542200088500977
1683008654535399700,21.441399658203125,2.2405998706817627,0.10089999437332153,9.546699523925781
1683008654555401200,21.461401123046876,2.216599941253662,0.06149999797344208,9.552599906921387
1683008654575399700,21.481399658203124,2.196699857711792,0.0210999995470047,9.55739974975586
1683008654595399700,21.501399658203123,2.1993000507354736,-0.016999999061226845,9.55679988861084
1683008654615401200,21.521401123046875,2.2149999141693115,-0.053700000047683716,9.552999496459961
1683008654635401200,21.541401123046874,2.2259998321533203,-0.08749999850988388,9.550199508666992
1683008654655399700,21.561399658203126,2.22379994392395,-0.11149999499320984,9.55049991607666
1683008654675399700,21.581399658203125,2.2126998901367188,-0.1290999948978424,9.552800178527832
1683008654695399700,21.601399658203125,2.1989998817443848,-0.1444000005722046,9.55579948425293
1683008654715401200,21.621401123046876,2.1858999729156494,-0.15060000121593475,9.558699607849121
1683008654735399700,21.641399658203124,2.1803998947143555,-0.13660000264644623,9.560199737548828
1683008654755399700,21.661399658203123,2.2015998363494873,-0.09449999779462814,9.55579948425293
1683008654775401200,21.681401123046875,2.249699831008911,-0.03460000082850456,9.545000076293945
1683008654795399700,21.701399658203126,2.2916998863220215,0.010699999518692493,9.53499984741211
1683008654815401200,21.721401123046874,2.3185999393463135,0.02879999950528145,9.528499603271484
1683008654835399700,21.741399658203125,2.3320000171661377,0.027899999171495438,9.525199890136719
1683008654855399700,21.761399658203125,2.334699869155884,0.029199998825788498,9.5246000289917
1683008654875402800,21.78140283203125,2.307800054550171,0.03019999898970127,9.531099319458008
1683008654895401200,21.801401123046876,2.2605998516082764,0.017899999395012856,9.542499542236328
1683008654915401200,21.821401123046876,2.18969988822937,0.0026000000070780516,9.559000015258789
1683008654935399700,21.841399658203127,2.1215999126434326,-0.0017999999690800905,9.574299812316895
1683008654955399700,21.861399658203126,2.0792999267578125,0.02279999852180481,9.583600044250488
1683008654975401200,21.881401123046874,2.0939998626708984,0.0616999976336956,9.5802001953125
1683008654995399700,21.901399658203125,2.153599977493286,0.10369999706745148,9.56659984588623
1683008655015399700,21.921399658203125,2.207399845123291,0.1454000025987625,9.553799629211426
1683008655035399700,21.941399658203125,2.2226998805999756,0.18050000071525574,9.549699783325195
1683008655055401200,21.961401123046876,2.194700002670288,0.19789999723434448,9.55579948425293
1683008655075399700,21.981399658203124,2.138399839401245,0.18799999356269836,9.56879997253418
1683008655095402800,22.00140283203125,2.0725998878479004,0.15879999101161957,9.583700180053711
1683008655115399700,22.021399658203126,2.000699996948242,0.12449999898672104,9.599499702453613
1683008655135401200,22.041401123046874,1.9258999824523926,0.0916999951004982,9.61520004272461
1683008655155399700,22.061399658203126,1.8535999059677124,0.06279999762773514,9.629599571228027
1683008655175399700,22.081399658203125,1.7875999212265015,0.034699998795986176,9.642199516296387
1683008655195402800,22.10140283203125,1.7292999029159546,0.009800000116229057,9.652899742126465
1683008655215399700,22.121399658203124,1.674799919128418,-0.01269999984651804,9.66249942779541
1683008655235399700,22.141399658203124,1.6212999820709229,-0.04149999842047691,9.671599388122559
1683008655255399700,22.161399658203123,1.5707999467849731,-0.08240000158548355,9.67959976196289
1683008655275401200,22.181401123046875,1.5236999988555908,-0.1354999989271164,9.686599731445312
1683008655295402800,22.20140283203125,1.4891999959945679,-0.18850000202655792,9.690999984741211
1683008655315399700,22.221399658203126,1.4745999574661255,-0.23359999060630798,9.692299842834473
1683008655335401200,22.241401123046874,1.4563000202178955,-0.2938999831676483,9.693399429321289
1683008655355401200,22.261401123046873,1.4035999774932861,-0.39719998836517334,9.697500228881836
1683008655375399700,22.281399658203124,1.3270000219345093,-0.5260999798774719,9.702099800109863
1683008655395401200,22.301401123046876,1.2578999996185303,-0.6424999833106995,9.704299926757812
1683008655415401200,22.321401123046876,1.2343999147415161,-0.7077999711036682,9.702799797058105
1683008655435399700,22.341399658203127,1.2623999118804932,-0.7412999868392944,9.696700096130371
1683008655455399700,22.361399658203126,1.3113999366760254,-0.774399995803833,9.687600135803223
1683008655475399700,22.381399658203126,1.3263999223709106,-0.8003000020980835,9.683499336242676
1683008655495399700,22.401399658203125,1.3202999830245972,-0.7822999954223633,9.685799598693848
1683008655515399700,22.421399658203125,1.3406000137329102,-0.7185999751091003,9.687899589538574
1683008655535399700,22.441399658203125,1.4244999885559082,-0.6277999877929688,9.682299613952637
1683008655555401200,22.461401123046876,1.5468999147415161,-0.5414999723434448,9.668700218200684
1683008655575399700,22.481399658203124,1.6617999076843262,-0.47929999232292175,9.652899742126465
1683008655595402800,22.50140283203125,1.7188999652862549,-0.45389997959136963,9.644100189208984
1683008655615399700,22.521399658203126,1.71999990940094,-0.45159998536109924,9.644000053405762
1683008655635401200,22.541401123046874,1.7160999774932861,-0.4562999904155731,9.644499778747559
1683008655655399700,22.561399658203126,1.7310999631881714,-0.46869999170303345,9.641200065612793
1683008655675401200,22.581401123046874,1.74809992313385,-0.4932999908924103,9.636899948120117
1683008655695399700,22.601399658203125,1.7518999576568604,-0.5216999650001526,9.634699821472168
1683008655715401200,22.621401123046876,1.7486000061035156,-0.5485000014305115,9.63379955291748
1683008655735399700,22.641399658203124,1.7536998987197876,-0.5737999677658081,9.631400108337402
1683008655755399700,22.661399658203123,1.771299958229065,-0.5961999893188477,9.626899719238281
1683008655775402800,22.68140283203125,1.795799970626831,-0.6157000064849854,9.621099472045898
1683008655795402800,22.70140283203125,1.8240998983383179,-0.6313999891281128,9.614699363708496
1683008655815399700,22.721399658203126,1.8493999242782593,-0.6398999691009521,9.609299659729004
1683008655835401200,22.741401123046874,1.8564999103546143,-0.6473000049591064,9.607500076293945
1683008655855399700,22.761399658203125,1.851099967956543,-0.6516000032424927,9.608200073242188
1683008655875402800,22.78140283203125,1.8562999963760376,-0.6402999758720398,9.607999801635742
1683008655895402800,22.80140283203125,1.8996999263763428,-0.6013999581336975,9.601999282836914
1683008655915401200,22.821401123046876,1.968999981880188,-0.5464999675750732,9.591300010681152
1683008655935399700,22.841399658203127,2.033099889755249,-0.5047000050544739,9.5802001953125
1683008655955399700,22.861399658203126,2.0878000259399414,-0.4778999984264374,9.569799423217773
1683008655975402800,22.88140283203125,2.130199909210205,-0.46779999136924744,9.560999870300293
1683008655995402800,22.90140283203125,2.163800001144409,-0.4682999849319458,9.553400039672852
1683008656015399700,22.921399658203125,2.1629998683929443,-0.4607999920845032,9.553999900817871
1683008656035399700,22.941399658203125,2.1208999156951904,-0.4405999779701233,9.564399719238281
1683008656055399700,22.961399658203124,2.0745999813079834,-0.38830000162124634,9.576799392700195
1683008656075399700,22.981399658203124,2.0808000564575195,-0.28859999775886536,9.578999519348145
1683008656095402800,23.00140283203125,2.1517999172210693,-0.17819999158382416,9.565899848937988
1683008656115402800,23.02140283203125,2.2590999603271484,-0.08720000088214874,9.542399406433105
1683008656135402800,23.04140283203125,2.357300043106079,-0.025299999862909317,9.519000053405762
1683008656155399700,23.061399658203126,2.406399965286255,0.015699999406933784,9.506699562072754
1683008656175399700,23.081399658203125,2.407899856567383,0.03909999877214432,9.50629997253418
1683008656195401200,23.101401123046877,2.3994998931884766,0.043800000101327896,9.508399963378906
1683008656215402800,23.12140283203125,2.3927998542785645,0.036399997770786285,9.510099411010742
1683008656235399700,23.141399658203124,2.3896000385284424,0.026399999856948853,9.510899543762207
1683008656255399700,23.161399658203123,2.378700017929077,0.017400000244379044,9.513699531555176
1683008656275401200,23.181401123046875,2.3546998500823975,0.013299999758601189,9.519700050354004
1683008656295399700,23.201399658203126,2.32099986076355,0.011899999342858791,9.527999877929688
1683008656315401200,23.221401123046874,2.287899971008301,0.002199999988079071,9.535999298095703
1683008656335402800,23.24140283203125,2.255199909210205,-0.023799998685717583,9.543700218200684
1683008656355399700,23.261399658203125,2.2228000164031982,-0.06419999897480011,9.55109977722168
1683008656375399700,23.281399658203124,2.182299852371216,-0.11149999499320984,9.559999465942383
1683008656395399700,23.301399658203124,2.123800039291382,-0.156700000166893,9.572599411010742
1683008656415401200,23.321401123046876,2.048799991607666,-0.20069999992847443,9.588099479675293
1683008656435399700,23.341399658203127,1.9711999893188477,-0.24399998784065247,9.603300094604492
1683008656455399700,23.361399658203126,1.9298999309539795,-0.258899986743927,9.611299514770508
1683008656475399700,23.381399658203126,1.939099907875061,-0.2303999960422516,9.610199928283691
1683008656495399700,23.401399658203125,1.9526000022888184,-0.20080000162124634,9.608099937438965
1683008656515399700,23.421399658203125,1.9227999448776245,-0.20089998841285706,9.614099502563477
1683008656535399700,23.441399658203125,1.868299961090088,-0.21709999442100525,9.624499320983887
1683008656555401200,23.461401123046876,1.8358999490737915,-0.20419999957084656,9.630999565124512
1683008656575399700,23.481399658203124,1.8671998977661133,-0.16249999403953552,9.625800132751465
1683008656595399700,23.501399658203123,1.9394999742507935,-0.11549999564886093,9.612199783325195
1683008656615399700,23.521399658203126,1.9914000034332275,-0.0819999948143959,9.601900100708008
1683008656635401200,23.541401123046874,1.9840999841690063,-0.07479999959468842,9.603499412536621
1683008656655399700,23.561399658203126,1.9298999309539795,-0.0681999996304512,9.61460018157959
1683008656675399700,23.581399658203125,1.8956999778747559,-0.04879999905824661,9.621500015258789
1683008656695401200,23.601401123046877,1.917199969291687,-0.020099999383091927,9.617300033569336
1683008656715401200,23.621401123046876,1.9793999195098877,0.005399999674409628,9.604700088500977
1683008656735399700,23.641399658203124,2.044800043106079,0.02969999983906746,9.590999603271484
1683008656755402800,23.66140283203125,2.082900047302246,0.05079999938607216,9.5826997756958
1683008656775401200,23.681401123046875,2.084399938583374,0.05849999934434891,9.582300186157227
1683008656795399700,23.701399658203126,2.0706000328063965,0.056699998676776886,9.585299491882324
1683008656815399700,23.721399658203126,2.059299945831299,0.04649999737739563,9.587800025939941
1683008656835399700,23.741399658203125,2.0483999252319336,0.027499999850988388,9.59019947052002
1683008656855399700,23.761399658203125,2.0383999347686768,0.0052999998442828655,9.592399597167969
1683008656875399700,23.781399658203124,2.0257999897003174,-0.012899999506771564,9.595099449157715
1683008656895402800,23.80140283203125,2.015699863433838,-0.030799999833106995,9.597099304199219
1683008656915401200,23.821401123046876,2.0104000568389893,-0.04659999907016754,9.598199844360352
1683008656935399700,23.841399658203127,2.0118000507354736,-0.051899999380111694,9.597899436950684
1683008656955399700,23.861399658203126,2.023099899291992,-0.04769999906420708,9.595499992370605
1683008656975399700,23.881399658203126,2.044299840927124,-0.04259999841451645,9.591099739074707
1683008656995399700,23.901399658203125,2.063699960708618,-0.043800000101327896,9.586899757385254
1683008657015399700,23.921399658203125,2.069399833679199,-0.05209999904036522,9.585599899291992
1683008657035399700,23.941399658203125,2.0655999183654785,-0.06149999797344208,9.586400032043457
1683008657055401200,23.961401123046876,2.0655999183654785,-0.0681999996304512,9.586299896240234
1683008657075399700,23.981399658203124,2.0813000202178955,-0.06759999692440033,9.582900047302246
1683008657095401200,24.001401123046875,2.1148998737335205,-0.06480000168085098,9.575599670410156
1683008657115399700,24.021399658203126,2.1712000370025635,-0.06579999625682831,9.562999725341797
1683008657135401200,24.041401123046874,2.225600004196167,-0.06659999489784241,9.55049991607666
1683008657155399700,24.061399658203126,2.2760000228881836,-0.060099996626377106,9.538599967956543
1683008657175399700,24.081399658203125,2.3269999027252197,-0.024799998849630356,9.52649974822998
1683008657195401200,24.101401123046877,2.3533999919891357,0.024899998679757118,9.519999504089355
1683008657215399700,24.121399658203124,2.3494999408721924,0.06579999625682831,9.520699501037598
1683008657235399700,24.141399658203124,2.310699939727783,0.09019999951124191,9.529999732971191
1683008657255399700,24.161399658203123,2.2634999752044678,0.10269999504089355,9.541199684143066
1683008657275401200,24.181401123046875,2.2274999618530273,0.12370000034570694,9.549399375915527
1683008657295399700,24.201399658203126,2.2207999229431152,0.15469999611377716,9.550600051879883
1683008657315399700,24.221399658203126,2.2468998432159424,0.1793999969959259,9.543999671936035
1683008657335402800,24.24140283203125,2.2669999599456787,0.19749999046325684,9.538899421691895
1683008657355402800,24.26140283203125,2.260499954223633,0.20879998803138733,9.540200233459473
1683008657375399700,24.281399658203124,2.240999937057495,0.21739999949932098,9.544599533081055
1683008657395399700,24.301399658203124,2.2295000553131104,0.22289998829364777,9.547200202941895
1683008657415401200,24.321401123046876,2.2283999919891357,0.22089999914169312,9.547499656677246
1683008657435399700,24.341399658203127,2.2244999408721924,0.20919999480247498,9.548699378967285
1683008657455399700,24.361399658203126,2.2056000232696533,0.19049999117851257,9.553400039672852
1683008657475399700,24.381399658203126,2.170599937438965,0.16249999403953552,9.561999320983887
1683008657495399700,24.401399658203125,2.129999876022339,0.12860000133514404,9.571599960327148
1683008657515399700,24.421399658203125,2.085899829864502,0.09510000050067902,9.58169937133789
1683008657535399700,24.441399658203125,2.045099973678589,0.06849999725818634,9.590700149536133
1683008657555401200,24.461401123046876,2.0078999996185303,0.04859999939799309,9.598699569702148
1683008657575399700,24.481399658203124,1.9646999835968018,0.03099999949336052,9.607699394226074
1683008657595399700,24.501399658203123,1.9083999395370483,0.004999999888241291,9.619099617004395
1683008657615399700,24.521399658203126,1.847999930381775,-0.034199997782707214,9.630799293518066
1683008657635399700,24.541399658203126,1.8115999698638916,-0.07239999622106552,9.637499809265137
1683008657655399700,24.561399658203126,1.8051999807357788,-0.09889999777078629,9.638500213623047
1683008657675399700,24.581399658203125,1.799899935722351,-0.1297999918460846,9.639100074768066
1683008657695402800,24.60140283203125,1.7752000093460083,-0.1670999974012375,9.643099784851074
1683008657715402800,24.62140283203125,1.7637999057769775,-0.19049999117851257,9.644800186157227
1683008657735399700,24.641399658203124,1.7781999111175537,-0.1996999979019165,9.642000198364258
1683008657755399700,24.661399658203123,1.8147999048233032,-0.1938999891281128,9.635299682617188
1683008657775401200,24.681401123046875,1.8357999324798584,-0.17979998886585236,9.631499290466309
1683008657795399700,24.701399658203126,1.8300999402999878,-0.1695999950170517,9.632800102233887
1683008657815402800,24.72140283203125,1.8005999326705933,-0.15309999883174896,9.638599395751953
1683008657835402800,24.74140283203125,1.799399971961975,-0.10099999606609344,9.639599800109863
1683008657855402800,24.76140283203125,1.854099988937378,-0.021199999377131462,9.62969970703125
1683008657875399700,24.781399658203124,1.9399999380111694,0.04959999769926071,9.612699508666992
1683008657895399700,24.801399658203124,2.0154998302459717,0.09999999403953552,9.596699714660645
1683008657915401200,24.821401123046876,2.0573999881744385,0.12559999525547028,9.587499618530273
1683008657935399700,24.841399658203127,2.0488998889923096,0.13189999759197235,9.589300155639648
1683008657955399700,24.861399658203126,2.0195000171661377,0.12629999220371246,9.595600128173828
1683008657975399700,24.881399658203126,2.001800060272217,0.10779999941587448,9.599499702453613
1683008657995399700,24.901399658203125,1.9961999654769897,0.07829999923706055,9.60099983215332
1683008658015399700,24.921399658203125,1.989799976348877,0.04659999907016754,9.602499961853027
1683008658035399700,24.941399658203125,1.9773999452590942,0.015099999494850636,9.605199813842773
1683008658055402800,24.96140283203125,1.9636999368667603,-0.019299998879432678,9.607999801635742
1683008658075402800,24.98140283203125,1.9596999883651733,-0.05350000038743019,9.608599662780762
1683008658095402800,25.00140283203125,1.969099998474121,-0.0810999944806099,9.606499671936035
1683008658115399700,25.021399658203126,1.9855999946594238,-0.09669999778270721,9.602999687194824
1683008658135399700,25.041399658203126,2.0013999938964844,-0.09869999438524246,9.599699974060059
1683008658155399700,25.061399658203126,2.0144999027252197,-0.09309999644756317,9.597000122070312
1683008658175399700,25.081399658203125,2.025899887084961,-0.08819999545812607,9.59469985961914
1683008658195401200,25.101401123046877,2.038800001144409,-0.08399999886751175,9.592000007629395
1683008658215402800,25.12140283203125,2.060499906539917,-0.07909999787807465,9.587299346923828
1683008658235402800,25.14140283203125,2.0920000076293945,-0.06830000132322311,9.580599784851074
1683008658255399700,25.161399658203123,2.1328999996185303,-0.046699997037649155,9.571700096130371
1683008658275401200,25.181401123046875,2.176800012588501,-0.03319999948143959,9.56190013885498
1683008658295399700,25.201399658203126,2.2233998775482178,-0.032099999487400055,9.551199913024902
1683008658315399700,25.221399658203126,2.2676000595092773,-0.03989999741315842,9.54069995880127
1683008658335399700,25.241399658203125,2.3213999271392822,-0.04129999876022339,9.527799606323242
1683008658355399700,25.261399658203125,2.3592000007629395,-0.023799998685717583,9.518499374389648
1683008658375399700,25.281399658203124,2.3431999683380127,-0.0072999997064471245,9.522500038146973
1683008658395399700,25.301399658203124,2.2908999919891357,-0.0071000000461936,9.535200119018555
