time,seconds_elapsed,z,y,x,,,,z,y,x,,,t,z,y,x
1.68301E+18,0.021399658,1.125199914,-0.439199984,1.587700009,,,,2.797399998,-0.992499948,9.346599579,,,1,3.922599912,-1.431699932,10.93429959
1.68301E+18,0.041402832,1.125199914,-0.439199984,1.587700009,,,,2.797399998,-0.992499948,9.346599579,,,2,3.922599912,-1.431699932,10.93429959
1.68301E+18,0.061407715,1.125199914,-0.439199984,1.587700009,,,,2.797399998,-0.992499948,9.346599579,,,3,3.922599912,-1.431699932,10.93429959
1.68301E+18,0.081399658,0.0603,-0.033199999,0.594799995,,,,0.988899946,-0.54519999,9.741399765,,,4,1.049199946,-0.57839999,10.33619976
1.68301E+18,0.101402832,0.520799994,0.092,0.193599999,,,,0.999199986,-0.543099999,9.740399361,,,5,1.519999981,-0.451099999,9.93399936
1.68301E+18,0.121402832,0.476499975,0.071800001,-0.122599997,,,,1.072899938,-0.532799959,9.733200073,,,6,1.549399912,-0.460999958,9.610600077
1.68301E+18,0.141399658,0.216299996,-0.126699999,-0.056599997,,,,1.18599999,-0.598899961,9.716199875,,,7,1.402299985,-0.725599959,9.659599878
1.68301E+18,0.161401123,0.176699996,-0.063199997,-0.089999996,,,,1.225600004,-0.613299966,9.710399628,,,8,1.4023,-0.676499963,9.620399632
1.68301E+18,0.181399658,0.449199975,0.0144,-0.199900001,,,,1.286499977,-0.612599969,9.70249939,,,9,1.735699952,-0.598199969,9.502599388
1.68301E+18,0.201399658,0.319199979,0.087799996,-0.153200001,,,,1.347800016,-0.597799957,9.695099831,,,10,1.666999996,-0.509999961,9.54189983
1.68301E+18,0.221399658,0.341499984,0.070500001,0.212799996,,,,1.374599934,-0.590299964,9.691800117,,,11,1.716099918,-0.519799963,9.904600114
1.68301E+18,0.241401123,0.412200004,0.235199988,0.092599995,,,,1.441100001,-0.549099982,9.684599876,,,12,1.853300005,-0.313899994,9.777199872
1.68301E+18,0.261399658,0.092500001,0.279699981,-0.097999997,,,,1.505899906,-0.465999991,9.679100037,,,13,1.598399907,-0.186300009,9.581100039
1.68301E+18,0.281402832,-0.078099996,0.21419999,-0.0066,,,,1.549099922,-0.380899996,9.675999641,,,14,1.470999926,-0.166700006,9.669399641
1.68301E+18,0.301399658,0.246699989,0.194699988,-0.042099997,,,,1.645900011,-0.312399983,9.662399292,,,15,1.8926,-0.117699996,9.620299295
1.68301E+18,0.321401123,0.414700001,0.212099999,0.135299996,,,,1.772099972,-0.251399994,9.641900063,,,16,2.186799973,-0.039299995,9.777200058
1.68301E+18,0.341402832,0.544099987,0.386199981,0.391299993,,,,1.828999996,-0.258699983,9.630999565,,,17,2.373099983,0.127499998,10.02229956
1.68301E+18,0.361402832,0.439199984,0.468400002,0.61619997,,,,1.875099897,-0.272300005,9.621799469,,,18,2.314299881,0.196099997,10.23799944
1.68301E+18,0.381402832,0.257400006,0.356399983,0.403299987,,,,1.939199924,-0.268099993,9.609199524,,,19,2.196599931,0.08829999,10.01249951
1.68301E+18,0.401402832,0.0036,0.599299967,-0.256799996,,,,2.026299953,-0.206999987,9.592700005,,,20,2.029899953,0.39229998,9.335900009
1.68301E+18,0.421399658,-0.107000001,0.68659997,-0.544999957,,,,2.107599974,-0.098200001,9.576899529,,,21,2.000599973,0.588399969,9.031899571
1.68301E+18,0.441399658,0.0233,0.539999962,-0.391299993,,,,2.183099985,0.009099999,9.560500145,,,22,2.206399985,0.549099961,9.169200152
1.68301E+18,0.461399658,0.217299998,0.557900012,-0.398900002,,,,2.273499966,0.118599996,9.538700104,,,23,2.490799963,0.676500008,9.139800102
1.68301E+18,0.481399658,-0.127999991,0.5898,-0.48119998,,,,2.334399939,0.184799999,9.522899628,,,24,2.206399947,0.774599999,9.041699648
1.68301E+18,0.501402832,-0.280900002,0.288399994,-0.209099993,,,,2.359999895,0.231299996,9.515600204,,,25,2.079099894,0.519699991,9.306500211
1.68301E+18,0.521401123,-0.226599991,0.174099997,-0.275099993,,,,2.364500046,0.28669998,9.512899399,,,26,2.137900054,0.460799977,9.237799406
1.68301E+18,0.541402832,-0.0594,0.1743,-0.376199991,,,,2.344300032,0.345400006,9.515999794,,,27,2.284900032,0.519700006,9.139799803
1.68301E+18,0.561399658,0.344899982,-0.103599995,0.274299979,,,,2.312599897,0.378199995,9.522500038,,,28,2.65749988,0.274599999,9.796800017
1.68301E+18,0.581402832,0.663599968,0.038199998,0.455300003,,,,2.288100004,0.39319998,9.527799606,,,29,2.951699972,0.431399979,9.98309961
1.68301E+18,0.601402832,0.880899966,0.111400001,0.648499966,,,,2.276799917,0.388699979,9.53069973,,,30,3.157699883,0.500099979,10.1791997
1.68301E+18,0.621399658,0.970699966,0.062699996,0.971499979,,,,2.236000061,0.368699998,9.541199684,,,31,3.206700027,0.431399994,10.51269966
1.68301E+18,0.641402832,0.692600012,0.423299998,0.4824,,,,2.200299978,0.361099988,9.549699783,,,32,2.89289999,0.784399986,10.03209978
1.68301E+18,0.661402832,0.435399979,0.557699978,-0.303299993,,,,2.192699909,0.37379998,9.550999641,,,33,2.628099889,0.931499958,9.247699648
1.68301E+18,0.681399658,0.331599981,0.524699986,-0.924600005,,,,2.217999935,0.387199998,9.544599533,,,34,2.549599916,0.911899984,8.619999528
1.68301E+18,0.701399658,0.312099993,0.419799984,-0.993499994,,,,2.257200003,0.394099981,9.535099983,,,35,2.569299996,0.813899964,8.541599989
1.68301E+18,0.721399658,0.090399995,0.234799996,-0.617199957,,,,2.272899866,0.392699987,9.531499863,,,36,2.363299862,0.627499983,8.914299905
1.68301E+18,0.741399658,0.0122,0.098499998,-0.154399991,,,,2.243199825,0.372099996,9.539299965,,,37,2.255399825,0.470599994,9.384899974
1.68301E+18,0.761402832,0.212399989,0.434899986,-0.238799989,,,,2.219499826,0.359400004,9.545399666,,,38,2.431899816,0.79429999,9.306599677
1.68301E+18,0.781402832,0.194499999,0.895899951,-0.155100003,,,,2.198199987,0.369100004,9.549900055,,,39,2.392699987,1.264999956,9.394800052
1.68301E+18,0.801399658,0.0504,0.875999987,0.356099993,,,,2.155999899,0.398799986,9.558300018,,,40,2.206399899,1.274799973,9.914400011
1.68301E+18,0.821399658,-0.0051,1.33829999,0.237799987,,,,2.103699923,0.426799983,9.568799973,,,41,2.098599923,1.765099972,9.80659996
1.68301E+18,0.841402832,-0.058799997,1.337499976,-0.13939999,,,,2.069200039,0.486499995,9.573399544,,,42,2.010400042,1.823999971,9.433999553
1.68301E+18,0.861399658,-0.151899993,1.048300028,-0.199599996,,,,2.04460001,0.559899986,9.574699402,,,43,1.892700016,1.608200014,9.375099406
1.68301E+18,0.881401123,-0.050899997,0.893099964,-0.209199995,,,,2.031800032,0.607299984,9.57460022,,,44,1.980900034,1.500399947,9.365400225
1.68301E+18,0.901402832,0.188899994,0.835699975,0.0394,,,,2.037099838,0.644999981,9.571000099,,,45,2.225999832,1.480699956,9.610400099
1.68301E+18,0.921402832,0.562699974,0.841499984,0.346199989,,,,2.045799971,0.658800006,9.568200111,,,46,2.608499944,1.50029999,9.914400101
1.68301E+18,0.941399658,0.907599986,0.925999999,0.562599957,,,,2.044100046,0.672399998,9.567599297,,,47,2.951700032,1.598399997,10.13019925
1.68301E+18,0.961402832,1.195500016,0.915299952,1.197199941,,,,2.030799866,0.673200011,9.570399284,,,48,3.226299882,1.588499963,10.76759923
1.68301E+18,0.981399658,1.476999998,1.363299966,1.542899966,,,,1.994399905,0.676400006,9.577799797,,,49,3.471399903,2.039699972,11.12069976
1.68301E+18,1.001399658,0.676499963,1.54279995,1.610999942,,,,1.941799998,0.683200002,9.58809948,,,50,2.618299961,2.225999951,11.19909942
1.68301E+18,1.021401123,-0.39139998,1.024099946,1.172599912,,,,1.911399961,0.672299981,9.594999313,,,51,1.519999981,1.696399927,10.76759923
1.68301E+18,1.041399658,-1.099900007,-0.0166,1.494799972,,,,1.913899899,0.644199967,9.596399307,,,52,0.813999891,0.627599968,11.09119928
1.68301E+18,1.061399658,-0.611899972,-1.077499986,3.331199884,,,,1.935799956,0.616599977,9.593799591,,,53,1.323899984,-0.460900009,12.92499948
1.68301E+18,1.081399658,0.410299987,-1.536099911,5.403100014,,,,1.903999925,0.604499996,9.600999832,,,54,2.314299911,-0.931599915,15.00409985
1.68301E+18,1.101402832,1.046199918,-1.122399926,3.597199917,,,,1.846699953,0.602699995,9.612299919,,,55,2.892899871,-0.519699931,13.20949984
1.68301E+18,1.121402832,0.92899996,-0.153300002,-0.621899962,,,,1.924600005,0.633899987,9.594999313,,,56,2.853599966,0.480599985,8.973099351
1.68301E+18,1.141399658,0.414700001,0.315499991,-2.370599985,,,,2.095700026,0.635699987,9.558899879,,,57,2.510400027,0.951199979,7.188299894
1.68301E+18,1.161401123,0.171499997,-0.032499999,-0.521699965,,,,2.270299911,0.55219996,9.524199486,,,58,2.441799909,0.519699961,9.002499521
1.68301E+18,1.181399658,0.674600005,-0.739199996,2.013599873,,,,2.345700026,0.494099975,9.50909996,,,59,3.020300031,-0.245100021,11.52269983
1.68301E+18,1.201402832,-0.614899993,-0.789399981,2.092599869,,,,2.242799997,0.593299985,9.52820015,,,60,1.627900004,-0.196099997,11.62080002
1.68301E+18,1.221402832,-1.110000014,-0.766799986,0.0038,,,,2.139699936,0.786399961,9.537899971,,,61,1.029699922,0.019599974,9.541699971
1.68301E+18,1.241401123,-0.304199994,-1.39230001,-0.380999982,,,,2.157599926,0.931400001,9.520799637,,,62,1.853399932,-0.460900009,9.139799654
1.68301E+18,1.261399658,0.621599972,-2.059499979,0.113299996,,,,2.271199942,1.000299931,9.487400055,,,63,2.892799914,-1.059200048,9.600700051
1.68301E+18,1.281399658,0.907199979,-1.859899998,0.040100001,,,,2.387699842,1.055799961,9.452699661,,,64,3.294899821,-0.804100037,9.492799662
1.68301E+18,1.301399658,0.264799982,-1.931699991,-0.284299999,,,,2.471199989,1.117799997,9.424099922,,,65,2.735999972,-0.813899994,9.139799923
1.68301E+18,1.321401123,-0.555700004,-1.512199998,-0.862899959,,,,2.517099857,1.17869997,9.404500008,,,66,1.961399853,-0.333500028,8.541600049
1.68301E+18,1.341399658,-1.217299938,-1.539699912,-1.046499968,,,,2.541199923,1.225899935,9.391900063,,,67,1.323899984,-0.313799977,8.345400095
1.68301E+18,1.361399658,-1.395099998,-1.376799941,-1.271799922,,,,2.562099934,1.25909996,9.381899834,,,68,1.166999936,-0.117699981,8.110099912
1.68301E+18,1.381401123,-1.865399957,-1.282999992,-1.491799951,,,,2.610699892,1.273199916,9.366600037,,,69,0.745299935,-0.009800076,7.874800086
1.68301E+18,1.401402832,-1.743299961,-1.098500013,-1.525299907,,,,2.665099859,1.274999976,9.350999832,,,70,0.921799898,0.176499963,7.825699925
1.68301E+18,1.421402832,-1.132799983,-0.820599973,-1.478500009,,,,2.731299877,1.261899948,9.333600044,,,71,1.598499894,0.441299975,7.855100036
1.68301E+18,1.441399658,-1.048799992,-0.61439997,-1.534099936,,,,2.784600019,1.241999984,9.32049942,,,72,1.735800028,0.627600014,7.786399484
1.68301E+18,1.461401123,-0.974099994,-0.282900006,-1.274399996,,,,2.807999849,1.224300027,9.315899849,,,73,1.833899856,0.941400021,8.041499853
1.68301E+18,1.481402832,-1.286299944,-0.112599999,-1.014799953,,,,2.796599865,1.210999966,9.321000099,,,74,1.510299921,1.098399967,8.306200147
1.68301E+18,1.501402832,-1.453299999,-0.026999999,-0.903799951,,,,2.777199984,1.203799963,9.327799797,,,75,1.323899984,1.176799964,8.423999846
1.68301E+18,1.521401123,-1.345299959,0.030599998,-1.081499934,,,,2.777099848,1.19509995,9.328899384,,,76,1.431799889,1.225699948,8.247399449
1.68301E+18,1.541399658,-1.103399992,0.047899999,-1.201399922,,,,2.80979991,1.17779994,9.321299553,,,77,1.706399918,1.225699939,8.119899631
1.68301E+18,1.561399658,-1.013800025,0.238099992,-0.891799986,,,,2.837800026,1.154299974,9.315799713,,,78,1.824000001,1.392399967,8.423999727
1.68301E+18,1.581399658,-0.975999951,0.410400003,-0.097199999,,,,2.848999977,1.129099965,9.315400124,,,79,1.873000026,1.539499968,9.218200125
1.68301E+18,1.601399658,-0.754799962,0.630999982,0.842599988,,,,2.853399992,1.104699969,9.316999435,,,80,2.09860003,1.735699952,10.15959942
1.68301E+18,1.621399658,-0.415899992,0.55430001,1.337799907,,,,2.877399921,1.083299994,9.312199593,,,81,2.461499929,1.637600005,10.6499995
1.68301E+18,1.641399658,-0.068999998,0.564199984,1.771299958,,,,2.922799826,1.063599944,9.300299644,,,82,2.853799827,1.627799928,11.0715996
1.68301E+18,1.661401123,-0.0036,0.460899979,1.843099952,,,,2.965199947,1.059100032,9.287399292,,,83,2.961599947,1.520000011,11.13049924
1.68301E+18,1.681399658,-0.169200003,0.169799998,1.535699964,,,,3.013099909,1.065799952,9.27120018,,,84,2.843899906,1.23559995,10.80690014
1.68301E+18,1.701402832,-0.114099994,-0.647300005,1.313699961,,,,3.075699806,1.08859992,9.247900009,,,85,2.961599812,0.441299915,10.56159997
1.68301E+18,1.721402832,0.620199978,-1.332199931,1.963699937,,,,3.135599852,1.106599927,9.225600243,,,86,3.75579983,-0.225600004,11.18930018
1.68301E+18,1.741401123,1.534399986,-1.144299984,2.184299946,,,,3.182499886,1.095199943,9.210899353,,,87,4.716899872,-0.049100041,11.3951993
1.68301E+18,1.761399658,2.013799906,-0.655600011,2.185400009,,,,3.232699871,1.038100004,9.200099945,,,88,5.246499777,0.382499993,11.38549995
1.68301E+18,1.781402832,1.359499931,-0.253399998,2.05979991,,,,3.259299994,0.969299972,9.198200226,,,89,4.618799925,0.715899974,11.25800014
1.68301E+18,1.801402832,0.68629998,-0.589299977,2.197399855,,,,3.246099949,0.922699988,9.20759964,,,90,3.932399929,0.333400011,11.40499949
1.68301E+18,1.821401123,1.045300007,-1.237100005,2.944599867,,,,3.200799942,0.903699994,9.225299835,,,91,4.246099949,-0.333400011,12.1698997
1.68301E+18,1.841399658,1.774199963,-1.522899985,3.304999828,,,,3.138799906,0.895299971,9.24739933,,,92,4.912999868,-0.627600014,12.55239916
1.68301E+18,1.861399658,1.674499989,-1.609399915,2.51639986,,,,3.101199865,0.88379997,9.261199951,,,93,4.775699854,-0.725599945,11.77759981
1.68301E+18,1.881401123,0.951299965,-1.66049993,1.031700015,,,,3.088899851,0.885800004,9.265199661,,,94,4.040199816,-0.774699926,10.29689968
1.68301E+18,1.901399658,0.0911,-1.732299924,-0.680700004,,,,3.095999956,0.898699999,9.261499405,,,95,3.187099956,-0.833599925,8.580799401
1.68301E+18,1.921399658,-0.986599982,-1.924199939,-1.895499945,,,,3.124500036,0.914099991,9.250499725,,,96,2.137900054,-1.010099947,7.354999781
1.68301E+18,1.941399658,-1.989799976,-2.174999952,-2.507400036,,,,3.137199879,0.929499984,9.244599342,,,97,1.147399902,-1.245499969,6.737199306
1.68301E+18,1.961401123,-2.201400042,-2.147699833,-2.482599974,,,,3.12319994,0.931599975,9.249099731,,,98,0.921799898,-1.216099858,6.766499758
1.68301E+18,1.981399658,-1.805799961,-1.735299945,-2.228499889,,,,3.100299835,0.90169996,9.259799957,,,99,1.294499874,-0.833599985,7.031300068
1.68301E+18,2.001399658,-1.059299946,-1.20539999,-1.782400012,,,,3.069700003,0.852299988,9.274700165,,,100,2.010400057,-0.353100002,7.492300153
1.68301E+18,2.021401123,-0.363299996,-0.79399997,-1.532400012,,,,3.040499926,0.79399997,9.289400101,,,101,2.67719993,0,7.757000089
1.68301E+18,2.041399658,0.0034,-0.695800006,-1.34799993,,,,3.01699996,0.744799972,9.301199913,,,102,3.02039996,0.048999965,7.953199983
1.68301E+18,2.061402832,0.0625,-0.639199972,-1.347499967,,,,2.996999979,0.707799971,9.310500145,,,103,3.059499979,0.068599999,7.963000178
1.68301E+18,2.081402832,0.0735,-0.671299994,-1.055299997,,,,2.966500044,0.681100011,9.322299957,,,104,3.040000044,0.009800017,8.26699996
1.68301E+18,2.101399658,0.043699998,-0.590799987,-1.134699941,,,,2.937399864,0.659399986,9.333000183,,,105,2.981099863,0.068599999,8.198300242
1.68301E+18,2.121399658,0.0093,-0.459999979,-1.376199961,,,,2.922799826,0.636500001,9.33920002,,,106,2.932099826,0.176500022,7.963000059
1.68301E+18,2.141402832,0.030099999,-0.212899998,-1.508599997,,,,2.911799908,0.61500001,9.344099998,,,107,2.941899907,0.402100012,7.835500002
1.68301E+18,2.161402832,-0.0048,0.0043,-1.298599958,,,,2.897699833,0.593800008,9.34980011,,,108,2.892899833,0.598100008,8.051200151
1.68301E+18,2.181399658,0.081500001,0.053099997,-0.716899991,,,,2.879999876,0.574499965,9.356499672,,,109,2.961499877,0.627599962,8.639599681
1.68301E+18,2.201399658,0.570599973,0.0035,0.721699953,,,,2.842000008,0.555400014,9.369299889,,,110,3.412599981,0.558900014,10.09099984
1.68301E+18,2.221399658,1.32069993,-0.0579,2.368700027,,,,2.778399944,0.538399994,9.389399529,,,111,4.099099874,0.480499994,11.75809956
1.68301E+18,2.241401123,1.551999927,-0.110099994,2.986899853,,,,2.713699818,0.531799972,9.408599854,,,112,4.265699744,0.421699978,12.39549971
1.68301E+18,2.261399658,1.322999954,-0.204599991,2.234499931,,,,2.687899828,0.537999988,9.415699959,,,113,4.010899782,0.333399996,11.65019989
1.68301E+18,2.281399658,1.361699939,-0.700699985,2.182299852,,,,2.707999945,0.553600013,9.408999443,,,114,4.069699883,-0.147099972,11.5912993
1.68301E+18,2.301399658,1.471199989,-1.04460001,3.212199926,,,,2.70630002,0.564099967,9.408899307,,,115,4.17750001,-0.480500042,12.62109923
1.68301E+18,2.321401123,1.031099916,-0.807899952,3.226699829,,,,2.656100035,0.552899957,9.423799515,,,116,3.68719995,-0.254999995,12.65049934
1.68301E+18,2.341399658,0.150199994,-0.339899987,1.958999991,,,,2.615099907,0.536000013,9.436299324,,,117,2.765299901,0.196100026,11.39529932
1.68301E+18,2.361399658,-0.338699996,0.051399998,-0.451499999,,,,2.623699903,0.527099967,9.434399605,,,118,2.284999907,0.578499965,8.982899606
1.68301E+18,2.381402832,-0.078599997,-0.1963,-1.320199966,,,,2.706799984,0.529699981,9.410699844,,,119,2.628199987,0.333399981,8.090499878
1.68301E+18,2.401402832,0.358399987,-0.697799981,0.169599995,,,,2.769799948,0.540899992,9.391699791,,,120,3.128199935,-0.156899989,9.561299786
1.68301E+18,2.421399658,0.327099979,-0.9727,2.234200001,,,,2.752099991,0.551100016,9.396399498,,,121,3.07919997,-0.421599984,11.6305995
1.68301E+18,2.441402832,-0.339899987,-1.024600029,2.912099838,,,,2.683699846,0.573499978,9.41479969,,,122,2.343799859,-0.451100051,12.32689953
1.68301E+18,2.461402832,-0.361000001,-1.244799972,1.945899963,,,,2.655699968,0.617199957,9.41989994,,,123,2.294699967,-0.627600014,11.3657999
1.68301E+18,2.481399658,0.147399992,-1.520299911,0.934699953,,,,2.706199884,0.67689997,9.401499748,,,124,2.853599876,-0.843399942,10.3361997
1.68301E+18,2.501399658,0.211699992,-1.532099962,-0.0396,,,,2.779199839,0.737699986,9.375499725,,,125,2.990899831,-0.794399977,9.335899726
1.68301E+18,2.521401123,-0.603299975,-1.528499961,-0.929099977,,,,2.83920002,0.792999983,9.352999687,,,126,2.235900044,-0.735499978,8.42389971
1.68301E+18,2.541399658,-1.554499984,-1.441299915,-1.474699974,,,,2.868599892,0.843099952,9.339699745,,,127,1.314099908,-0.598199964,7.864999771
1.68301E+18,2.561399658,-2.077800035,-1.449999928,-1.790699959,,,,2.881899834,0.881199956,9.331999779,,,128,0.804099798,-0.568799973,7.54129982
1.68301E+18,2.581402832,-2.085199833,-1.273899913,-1.98939991,,,,2.899199963,0.901299953,9.324799538,,,129,0.81400013,-0.372599959,7.335399628
1.68301E+18,2.601399658,-1.762699962,-0.961099982,-1.973099947,,,,2.91989994,0.9023,9.318200111,,,130,1.157199979,-0.058799982,7.345100164
1.68301E+18,2.621399658,-1.409199953,-0.765699983,-1.823899984,,,,2.929199934,0.89319998,9.316199303,,,131,1.519999981,0.127499998,7.492299318
1.68301E+18,2.641399658,-0.888899982,-0.570800006,-1.822699904,,,,2.938499928,0.874799967,9.31499958,,,132,2.049599946,0.30399996,7.492299676
1.68301E+18,2.661401123,-0.346199989,-0.439499974,-1.770699978,,,,2.954699993,0.851399958,9.311999321,,,133,2.608500004,0.411899984,7.541299343
1.68301E+18,2.681399658,0.131499991,-0.170900002,-1.580199957,,,,2.977099895,0.818199992,9.307899475,,,134,3.108599886,0.64729999,7.727699518
1.68301E+18,2.701399658,-0.065399997,0.0206,-1.566799998,,,,2.99759984,0.783399999,9.304299355,,,135,2.932199843,0.804,7.737499356
1.68301E+18,2.721399658,-0.523400009,0.119599998,-1.596599936,,,,3.004499912,0.753099978,9.304599762,,,136,2.481099904,0.872699976,7.707999825
1.68301E+18,2.741401123,-0.83919996,0.342199981,-1.539899945,,,,3.006500006,0.716799974,9.306799889,,,137,2.167300045,1.058999956,7.766899943
1.68301E+18,2.761399658,-1.03489995,0.641900003,-1.26880002,,,,3.006099939,0.672100008,9.310299873,,,138,1.971199989,1.31400001,8.041499853
1.68301E+18,2.781399658,-1.258799911,0.893599987,-0.772399962,,,,3.004400015,0.626299977,9.31400013,,,139,1.745600104,1.519899964,8.541600168
1.68301E+18,2.801399658,-1.11559999,1.046700001,0.1021,,,,2.988699913,0.581099987,9.32199955,,,140,1.873099923,1.627799988,9.42409955
1.68301E+18,2.821401123,-0.648299992,1.208299994,1.032599926,,,,2.96269989,0.537199974,9.332900047,,,141,2.314399898,1.745499969,10.36549997
1.68301E+18,2.841399658,-0.047799997,1.172599912,1.736699939,,,,2.930899858,0.504299998,9.344799995,,,142,2.883099861,1.67689991,11.08149993
1.68301E+18,2.861399658,0.5722,0.970099986,1.977299929,,,,2.918799877,0.49089998,9.349299431,,,143,3.490999877,1.460999966,11.32659936
1.68301E+18,2.881401123,0.918199956,0.62650001,1.583599925,,,,2.945499897,0.491299987,9.340899467,,,144,3.863699853,1.117799997,10.92449939
1.68301E+18,2.901402832,0.84829998,-0.074599996,1.642799973,,,,3.005599976,0.506099999,9.320899963,,,145,3.853899956,0.431500003,10.96369994
1.68301E+18,2.921402832,1.476300001,-0.510800004,2.639600039,,,,3.054299831,0.510800004,9.304800034,,,146,4.530599833,0,11.94440007
1.68301E+18,2.941399658,1.700899959,-0.597000003,3.360599995,,,,3.074800014,0.479399979,9.299699783,,,147,4.775699973,-0.117600024,12.66029978
1.68301E+18,2.961402832,1.600799918,-0.355100006,3.381899834,,,,3.086699963,0.433599979,9.297999382,,,148,4.687499881,0.078499973,12.67989922
1.68301E+18,2.981402832,1.110800028,0.022499999,2.186199903,,,,3.096099854,0.379500002,9.297299385,,,149,4.206899881,0.402000001,11.48349929
1.68301E+18,3.001399658,0.664599955,-0.575699985,1.532999992,,,,3.1401999,0.350199997,9.283599854,,,150,3.804799855,-0.225499988,10.81659985
1.68301E+18,3.021402832,1.236799955,-1.586599946,2.407999992,,,,3.146699905,0.350899994,9.281399727,,,151,4.383499861,-1.235699952,11.68939972
1.68301E+18,3.041399658,1.965399981,-2.106799841,2.907099962,,,,3.114300013,0.351399988,9.292300224,,,152,5.079699993,-1.755399853,12.19940019
1.68301E+18,3.061399658,1.55129993,-2.105399847,2.391299963,,,,3.067499876,0.349999994,9.307899475,,,153,4.618799806,-1.755399853,11.69919944
1.68301E+18,3.081399658,0.814999998,-1.945299983,0.894799948,,,,3.048699856,0.356599987,9.313799858,,,154,3.863699853,-1.588699996,10.20859981
1.68301E+18,3.101399658,-0.022299999,-1.607199907,-0.666299999,,,,3.072099924,0.361699998,9.30589962,,,155,3.049799925,-1.245499909,8.639599621
1.68301E+18,3.121399658,-1.350700021,-1.550400019,-1.75,,,,3.11590004,0.363799989,9.29129982,,,156,1.765200019,-1.186600029,7.54129982
1.68301E+18,3.141399658,-2.737699986,-1.510699987,-2.405099869,,,,3.149600029,0.373199999,9.279500008,,,157,0.411900043,-1.137499988,6.874400139
1.68301E+18,3.161399658,-2.994499922,-1.257099986,-2.276900053,,,,3.151399851,0.374499977,9.278900146,,,158,0.156899929,-0.882600009,7.002000093
1.68301E+18,3.181399658,-2.125799894,-0.886500001,-1.835099936,,,,3.126099825,0.356899977,9.288099289,,,159,1.000299931,-0.529600024,7.452999353
1.68301E+18,3.201402832,-0.948599994,-0.528999984,-1.6595999,,,,3.096299887,0.332800001,9.298999786,,,160,2.147699893,-0.196199983,7.639399886
1.68301E+18,3.221399658,0.053999998,-0.286199987,-1.285399914,,,,3.074299812,0.305799991,9.307199478,,,161,3.12829981,0.019600004,8.021799564
1.68301E+18,3.241401123,0.436800003,-0.137999997,-1.018000007,,,,3.054299831,0.285099983,9.314499855,,,162,3.491099834,0.147099987,8.296499848
1.68301E+18,3.261399658,0.183299989,-0.19129999,-0.819099963,,,,3.033200026,0.279599994,9.321499825,,,163,3.216500014,0.088300005,8.502399862
1.68301E+18,3.281399658,0.014699999,-0.224299997,-0.425899982,,,,3.005699873,0.283099979,9.330299377,,,164,3.020399872,0.058799982,8.904399395
1.68301E+18,3.301399658,0.0122,-0.148299992,-0.365799993,,,,2.97879982,0.285600007,9.338899612,,,165,2.99099982,0.137300014,8.973099619
1.68301E+18,3.321402832,-0.122999996,-0.115800001,-0.879299998,,,,2.967000008,0.292400002,9.342399597,,,166,2.844000012,0.176600002,8.463099599
1.68301E+18,3.341402832,-0.220299989,-0.219399989,-1.398800015,,,,2.966199875,0.307699978,9.342199326,,,167,2.745899886,0.08829999,7.94339931
1.68301E+18,3.361399658,-0.187299997,-0.199999988,-1.281899929,,,,2.962599993,0.317599982,9.342999458,,,168,2.775299996,0.117599994,8.061099529
1.68301E+18,3.381401123,0.232999995,-0.0211,-0.434599996,,,,2.944200039,0.315299988,9.348899841,,,169,3.177200034,0.294199988,8.914299846
1.68301E+18,3.401399658,0.716600001,0.079899997,0.806899965,,,,2.901899815,0.302399993,9.362500191,,,170,3.618499815,0.382299989,10.16940016
1.68301E+18,3.421399658,1.13259995,0.049999997,1.924899936,,,,2.838999987,0.293099999,9.382100105,,,171,3.971599936,0.343099996,11.30700004
1.68301E+18,3.441399658,1.372900009,-0.027099999,2.278499842,,,,2.77519989,0.291899979,9.401199341,,,172,4.148099899,0.26479998,11.67969918
1.68301E+18,3.461399658,1.069499969,-0.177499995,1.397199988,,,,2.745199919,0.305000007,9.409599304,,,173,3.814699888,0.127500013,10.80679929
1.68301E+18,3.481399658,0.606400013,-0.407700002,0.479699999,,,,2.757099867,0.329299986,9.40530014,,,174,3.36349988,-0.078400016,9.885000139
1.68301E+18,3.501399658,0.931899965,-0.914999962,1.505499959,,,,2.77489996,0.346199989,9.399399757,,,175,3.706799924,-0.568799973,10.90489972
1.68301E+18,3.521401123,1.389500022,-0.936399996,3.080499887,,,,2.729199886,0.338200003,9.413099289,,,176,4.118699908,-0.598199993,12.49359918
1.68301E+18,3.541402832,1.226999998,-0.757699966,3.120499849,,,,2.666100025,0.316399992,9.431900024,,,177,3.893100023,-0.441299975,12.55239987
1.68301E+18,3.561399658,1.166299939,-0.416799992,1.562699914,,,,2.638599873,0.299099982,9.440199852,,,178,3.804899812,-0.117700011,11.00289977
1.68301E+18,3.581402832,0.873399973,-0.385699987,-0.483399987,,,,2.686300039,0.287699997,9.427100182,,,179,3.559700012,-0.09799999,8.943700194
1.68301E+18,3.601402832,0.690199971,-0.684899986,-0.397199988,,,,2.781299829,0.282799989,9.399700165,,,180,3.471499801,-0.402099997,9.002500176
1.68301E+18,3.621399658,-0.0014,-0.872999966,1.017799973,,,,2.825700045,0.264999986,9.386899948,,,181,2.824300045,-0.60799998,10.40469992
1.68301E+18,3.641399658,-1.336199999,-0.964899957,1.580899954,,,,2.807199955,0.2588,9.39260006,,,182,1.470999956,-0.706099957,10.97350001
1.68301E+18,3.661402832,-1.905200005,-1.272599936,1.49150002,,,,2.768100023,0.282199979,9.403599739,,,183,0.862900019,-0.990399957,10.89509976
1.68301E+18,3.681402832,-0.836600006,-1.392199993,0.835599959,,,,2.768499851,0.3134,9.402500153,,,184,1.931899846,-1.078799993,10.23810011
1.68301E+18,3.701399658,0.062799998,-1.20539999,0.0083,,,,2.820199966,0.332599998,9.386400223,,,185,2.882999964,-0.872799993,9.394700223
1.68301E+18,3.721399658,-0.214099988,-0.998099983,-0.940199971,,,,2.891299963,0.350899994,9.364099503,,,186,2.677199975,-0.647199988,8.423899531
1.68301E+18,3.741401123,-0.895799994,-0.845899999,-1.491099954,,,,2.9454,0.375200003,9.346300125,,,187,2.049600005,-0.470699996,7.855200171
1.68301E+18,3.761399658,-1.449299932,-0.826999962,-1.783599973,,,,2.979099989,0.395500004,9.334799767,,,188,1.529800057,-0.431499958,7.551199794
1.68301E+18,3.781399658,-1.808499932,-0.770500004,-1.941599965,,,,3.004899979,0.407700002,9.326000214,,,189,1.196400046,-0.362800002,7.384400249
1.68301E+18,3.801399658,-1.614899993,-0.490799993,-1.718899965,,,,3.02699995,0.402500004,9.31899929,,,190,1.412099957,-0.08829999,7.600099325
1.68301E+18,3.821401123,-1.359699965,-0.129299998,-1.461499929,,,,3.03670001,0.384199977,9.316699982,,,191,1.677000046,0.254899979,7.855200052
1.68301E+18,3.841399658,-1.260800004,0.065099999,-1.236999989,,,,3.03579998,0.366299987,9.317699432,,,192,1.774999976,0.431399986,8.080699444
1.68301E+18,3.861399658,-1.162699938,0.280200005,-1.207899928,,,,3.03579998,0.35709998,9.31799984,,,193,1.873100042,0.637299985,8.110099912
1.68301E+18,3.881401123,-1.111599922,0.330199987,-1.274099946,,,,3.043499947,0.35619998,9.315499306,,,194,1.931900024,0.686399966,8.04139936
1.68301E+18,3.901402832,-0.99789995,0.444700003,-1.308699965,,,,3.057299852,0.359299988,9.310899734,,,195,2.059399903,0.80399999,8.002199769
1.68301E+18,3.921402832,-1.032899976,0.626599967,-1.273999929,,,,3.072700024,0.363700002,9.305699348,,,196,2.039800048,0.99029997,8.031699419
1.68301E+18,3.941399658,-1.234099984,0.855099976,-1.229599953,,,,3.087599993,0.370700002,9.300499916,,,197,1.853500009,1.225799978,8.070899963
1.68301E+18,3.961401123,-1.457099915,1.010200024,-1.095999956,,,,3.104599953,0.382299989,9.294300079,,,198,1.647500038,1.392500013,8.198300123
1.68301E+18,3.981399658,-1.013999939,1.068499923,-0.285400003,,,,3.122399807,0.3926,9.287899971,,,199,2.108399868,1.461099923,9.002499968
1.68301E+18,4.001399658,-0.357299984,0.98089999,0.816599965,,,,3.132599831,0.401799977,9.284099579,,,200,2.775299847,1.382699966,10.10069954
1.68301E+18,4.021401123,0.184399992,1.028599977,1.728299975,,,,3.130100012,0.412900001,9.284500122,,,201,3.314500004,1.441499978,11.0128001
1.68301E+18,4.041399658,0.277999997,1.200199962,2.217499971,,,,3.124799967,0.427599996,9.285599709,,,202,3.402799964,1.627799958,11.50309968
1.68301E+18,4.061399658,-0.213599995,1.157699943,1.850199938,,,,3.135999918,0.460299999,9.280200005,,,203,2.922399923,1.617999941,11.13039994
1.68301E+18,4.081399658,-0.532999992,0.657099962,0.995799959,,,,3.180799961,0.519599974,9.261799812,,,204,2.647799969,1.176699936,10.25759977
1.68301E+18,4.101399658,0.042399999,-0.117199995,0.838499963,,,,3.252599955,0.587899983,9.23279953,,,205,3.294999953,0.470699988,10.07129949
1.68301E+18,4.121399658,0.985099971,-0.608299971,1.646899939,,,,3.31009984,0.637799978,9.208999634,,,206,4.295199811,0.029500008,10.85589957
1.68301E+18,4.141402832,1.72939992,-0.718299985,2.502099991,,,,3.340499878,0.649599969,9.197199821,,,207,5.069899797,-0.068700016,11.69929981
1.68301E+18,4.161404297,1.528699994,-0.737299979,2.110699892,,,,3.345099926,0.639199972,9.196299553,,,208,4.87379992,-0.098100007,11.30699944
1.68301E+18,4.181399658,0.919200003,-1.108899951,1.555099964,,,,3.356400013,0.628399968,9.192899704,,,209,4.275600016,-0.480499983,10.74799967
1.68301E+18,4.201399658,1.064700007,-2.007400036,2.304299831,,,,3.367799997,0.624599993,9.188899994,,,210,4.432500005,-1.382800043,11.49319983
1.68301E+18,4.221399658,1.960399985,-2.444599867,3.942399979,,,,3.315500021,0.620599985,9.208199501,,,211,5.275900006,-1.823999882,13.15059948
1.68301E+18,4.241399658,2.165499926,-2.469599962,4.292900085,,,,3.228099823,0.606299996,9.240200043,,,212,5.393599749,-1.863299966,13.53310013
1.68301E+18,4.261399658,1.566100001,-2.441699982,2.684999943,,,,3.170399904,0.617699981,9.259399414,,,213,4.736499906,-1.824000001,11.94439936
1.68301E+18,4.281399658,1.013599992,-2.501199961,0.547299981,,,,3.193399906,0.647700012,9.249400139,,,214,4.206999898,-1.853499949,9.79670012
1.68301E+18,4.301399658,0.370000005,-2.369299889,-1.653599977,,,,3.287799835,0.672800004,9.214499474,,,215,3.65779984,-1.696499884,7.560899496
1.68301E+18,4.321401123,-0.532400012,-2.277199984,-2.921700001,,,,3.386199951,0.67869997,9.17840004,,,216,2.853799939,-1.598500013,6.256700039
1.68301E+18,4.341399658,-1.432799935,-2.065500021,-3.130899906,,,,3.433399916,0.663199961,9.161899567,,,217,2.00059998,-1.40230006,6.03099966
1.68301E+18,4.361399658,-1.715499997,-1.478199959,-2.51699996,,,,3.431699991,0.615199983,9.16590023,,,218,1.716199994,-0.862999976,6.64890027
1.68301E+18,4.381401123,-1.336300015,-0.846199989,-1.531700015,,,,3.405499935,0.532299995,9.18089962,,,219,2.06919992,-0.313899994,7.649199605
1.68301E+18,4.401399658,-0.542999983,-0.113499999,-0.736799955,,,,3.367300034,0.43719998,9.199999809,,,220,2.824300051,0.323699981,8.463199854
1.68301E+18,4.421399658,-0.28459999,0.344099998,-0.324499995,,,,3.324599981,0.352099985,9.219099998,,,221,3.039999992,0.696199983,8.894600004
1.68301E+18,4.441399658,-0.240099996,0.509199977,-0.492299974,,,,3.299799919,0.294799984,9.229999542,,,222,3.059699923,0.80399996,8.737699568
1.68301E+18,4.461399658,0.0018,0.354299992,-0.845200002,,,,3.302999973,0.263399988,9.229800224,,,223,3.304799973,0.617699981,8.384600222
1.68301E+18,4.481399658,-0.031500001,0.030599998,-1.350399971,,,,3.316799879,0.253699988,9.225199699,,,224,3.285299879,0.284299986,7.874799728
1.68301E+18,4.501399658,-0.085599996,-0.234999999,-1.933399916,,,,3.331599951,0.254599988,9.219799995,,,225,3.245999955,0.019599989,7.28640008
1.68301E+18,4.521402832,0.0405,-0.155900002,-2.05369997,,,,3.352499962,0.244199991,9.212499619,,,226,3.392999962,0.08829999,7.158799648
1.68301E+18,4.541399658,-0.002,0.184100002,-1.578799963,,,,3.365700006,0.217899993,9.208299637,,,227,3.363700007,0.401999995,7.629499674
1.68301E+18,4.561399658,-0.154699996,0.4648,-0.711899996,,,,3.351699829,0.182300001,9.21420002,,,228,3.196999833,0.647100002,8.502300024
1.68301E+18,4.581399658,0.289299995,0.546499968,0.334899992,,,,3.319499969,0.149700001,9.226499557,,,229,3.608799964,0.696199968,9.561399549
1.68301E+18,4.601399658,1.148800015,0.511099994,1.351300001,,,,3.283699989,0.116499998,9.239699364,,,230,4.432500005,0.627599992,10.59099936
1.68301E+18,4.621402832,1.727599978,0.477200001,2.072700024,,,,3.244299889,0.091499999,9.253899574,,,231,4.971899867,0.568700001,11.3265996
1.68301E+18,4.641402832,1.593599916,0.42929998,1.894400001,,,,3.211499929,0.080600001,9.265500069,,,232,4.805099845,0.509899981,11.15990007
1.68301E+18,4.661401123,0.796899974,0.308799982,0.904899955,,,,3.213999987,0.093199998,9.264499664,,,233,4.010899961,0.40199998,10.16939962
1.68301E+18,4.681401123,0.387299985,-0.207699999,0.86559999,,,,3.241099834,0.119499996,9.254699707,,,234,3.628399819,-0.088200003,10.1202997
1.68301E+18,4.701399658,0.78549999,-0.541700006,1.995000005,,,,3.244899988,0.139599994,9.253099442,,,235,4.030399978,-0.402100012,11.24809945
1.68301E+18,4.721399658,0.85529995,-0.204699993,2.451599836,,,,3.20449996,0.135999992,9.267199516,,,236,4.05979991,-0.068700001,11.71879935
1.68301E+18,4.741401123,0.327199996,-0.115699999,1.734899998,,,,3.173599958,0.135299996,9.277899742,,,237,3.500799954,0.019599997,11.01279974
1.68301E+18,4.761399658,0.310099989,-0.092900001,0.273099989,,,,3.171200037,0.15169999,9.278499603,,,238,3.481300026,0.05879999,9.551599592
1.68301E+18,4.781399658,0.210999995,-0.259000003,-1.134500027,,,,3.211499929,0.170699999,9.264299393,,,239,3.422499925,-0.088300005,8.129799366
1.68301E+18,4.801399658,0.573599994,-0.723800004,-0.734399974,,,,3.260699987,0.194199994,9.246600151,,,240,3.834299982,-0.529600009,8.512200177
1.68301E+18,4.821401123,1.32069993,-0.824899971,0.951699972,,,,3.258899927,0.197300002,9.247200012,,,241,4.579599857,-0.62759997,10.19889998
1.68301E+18,4.841399658,0.884299994,-0.585399985,2.044100046,,,,3.214699984,0.183299989,9.262899399,,,242,4.098999977,-0.402099997,11.30699944
1.68301E+18,4.861399658,0.121699996,-0.505999982,1.912099957,,,,3.173199892,0.182399988,9.277199745,,,243,3.294899888,-0.323599994,11.1892997
1.68301E+18,4.881401123,0.0043,-0.640599966,1.27489996,,,,3.172999859,0.199299991,9.276899338,,,244,3.177299859,-0.441299975,10.5517993
1.68301E+18,4.901399658,0.103299998,-0.675799966,0.396299988,,,,3.211199999,0.224699989,9.263199806,,,245,3.314499997,-0.451099977,9.659499794
1.68301E+18,4.921399658,-0.276199996,-0.635399997,-0.407099992,,,,3.267199993,0.252999991,9.242899895,,,246,2.990999997,-0.382400006,8.835799903
1.68301E+18,4.941399658,-0.719599962,-0.595399976,-0.913999975,,,,3.328199863,0.281599998,9.220199585,,,247,2.608599901,-0.313799977,8.30619961
1.68301E+18,4.961401123,-0.810499966,-0.586799979,-1.25999999,,,,3.399399996,0.302399993,9.193599701,,,248,2.58890003,-0.284399986,7.93359971
1.68301E+18,4.981399658,-0.897699952,-0.680899978,-1.52459991,,,,3.476899862,0.317999989,9.163999557,,,249,2.57919991,-0.362899989,7.639399648
1.68301E+18,5.001399658,-0.775599957,-0.627200007,-1.603899956,,,,3.550899982,0.323199987,9.135399818,,,250,2.775300026,-0.30400002,7.531499863
1.68301E+18,5.021401123,-0.535699964,-0.329600006,-1.428200006,,,,3.624799967,0.310000002,9.106800079,,,251,3.089100003,-0.019600004,7.678600073
1.68301E+18,5.041399658,-0.421399981,-0.0024,-1.305899978,,,,3.686999798,0.286799997,9.082499504,,,252,3.265599817,0.284399997,7.776599526
1.68301E+18,5.061399658,-0.296399981,0.180099994,-1.114799976,,,,3.748299837,0.261099994,9.058199883,,,253,3.451899856,0.441199988,7.943399906
1.68301E+18,5.081399658,-0.790499985,0.263999999,-1.132399917,,,,3.801199913,0.24589999,9.036600113,,,254,3.010699928,0.509899989,7.904200196
1.68301E+18,5.101402832,-0.992199957,0.288699985,-1.064599991,,,,3.84589982,0.240699992,9.017799377,,,255,2.853699863,0.529399976,7.953199387
1.68301E+18,5.121402832,-1.117399931,0.312900007,-0.999799967,,,,3.8829,0.23619999,9.001999855,,,256,2.765500069,0.549099997,8.002199888
1.68301E+18,5.141399658,-1.305699944,0.31189999,-1.019799948,,,,3.904500008,0.237199992,8.992699623,,,257,2.598800063,0.549099982,7.972899675
1.68301E+18,5.161399658,-1.27579999,0.354999989,-0.927399993,,,,3.913800001,0.243099988,8.988399506,,,258,2.638000011,0.598099977,8.060999513
1.68301E+18,5.181399658,-0.974799991,0.414899975,-0.735499978,,,,3.926599979,0.241999999,8.982899666,,,259,2.951799989,0.656899974,8.247399688
1.68301E+18,5.201399658,-0.59829998,0.399599999,-0.223099992,,,,3.932599783,0.237799987,8.980400085,,,260,3.334299803,0.637399986,8.757300094
1.68301E+18,5.221399658,0.040199999,0.495700002,0.393999994,,,,3.931399822,0.229800001,8.981100082,,,261,3.971599821,0.725500003,9.375100076
1.68301E+18,5.241401123,0.415399998,0.527399957,1.212000012,,,,3.919099808,0.217799991,8.986800194,,,262,4.334499806,0.745199949,10.19880021
1.68301E+18,5.261402832,0.57190001,0.559899986,1.674299955,,,,3.899799824,0.2148,8.995299339,,,263,4.471699834,0.774699986,10.66959929
1.68301E+18,5.281402832,0.550099969,0.486699998,1.896699905,,,,3.892299891,0.219300002,8.998399734,,,264,4.442399859,0.706,10.89509964
1.68301E+18,5.301399658,0.470499992,0.056299999,1.98029995,,,,3.903199911,0.2377,8.993199348,,,265,4.373699903,0.294,10.9734993
1.68301E+18,5.321401123,0.824699998,-0.32189998,2.101199865,,,,3.931399822,0.263099998,8.980199814,,,266,4.75609982,-0.058799982,11.08139968
1.68301E+18,5.341399658,1.125100017,-0.600300014,2.125999928,,,,3.964399815,0.27669999,8.965299606,,,267,5.089499831,-0.323600024,11.09129953
1.68301E+18,5.361399658,1.23210001,-0.49939999,2.247200012,,,,3.994799852,0.273900002,8.951899529,,,268,5.226899862,-0.225499988,11.19909954
1.68301E+18,5.381401123,0.918500006,-0.076899998,1.872900009,,,,4.014199734,0.253399998,8.943799973,,,269,4.93269974,0.1765,10.81669998
1.68301E+18,5.401399658,0.22299999,-0.099399999,1.012499928,,,,4.04279995,0.236699998,8.931300163,,,270,4.26579994,0.1373,9.943800092
1.68301E+18,5.421399658,0.222899988,-0.84709996,1.394199967,,,,4.0625,0.239099994,8.922299385,,,271,4.285399988,-0.607999966,10.31649935
1.68301E+18,5.441399658,1.108299971,-1.355199933,2.12409997,,,,4.049900055,0.246999994,8.927899361,,,272,5.158200026,-1.108199939,11.05199933
1.68301E+18,5.461401123,1.641600013,-1.181299925,2.299700022,,,,4.026499748,0.239799991,8.938599586,,,273,5.668099761,-0.941499934,11.23829961
1.68301E+18,5.481399658,1.071099997,-1.048099995,1.251999974,,,,4.008599758,0.234200001,8.946800232,,,274,5.079699755,-0.813899994,10.19880021
1.68301E+18,5.501402832,0.100099996,-1.220799923,-0.268399984,,,,4.028399944,0.249899998,8.9375,,,275,4.12849994,-0.970899925,8.669100016
1.68301E+18,5.521402832,-0.573199987,-1.367499948,-0.898799956,,,,4.06430006,0.269099981,8.920599937,,,276,3.491100073,-1.098399967,8.021799982
1.68301E+18,5.541399658,-1.541999936,-1.270299911,-1.214100003,,,,4.08190012,0.279799998,8.91230011,,,277,2.539900184,-0.990499914,7.698200107
1.68301E+18,5.561399658,-1.956099987,-1.086599946,-1.187999964,,,,4.074299812,0.282499999,8.915699959,,,278,2.118199825,-0.804099947,7.727699995
1.68301E+18,5.581399658,-1.425799966,-0.848499954,-0.991799951,,,,4.053899765,0.269899994,8.925299644,,,279,2.628099799,-0.57859996,7.933499694
1.68301E+18,5.601401123,-0.636299968,-0.742500007,-1.342199922,,,,4.039199829,0.252200007,8.932600021,,,280,3.402899861,-0.4903,7.5904001
1.68301E+18,5.621401123,-0.0898,-0.674499989,-1.665099978,,,,4.041899681,0.233199999,8.931799889,,,281,3.952099681,-0.44129999,7.26669991
1.68301E+18,5.641399658,0.137400001,-0.542499959,-1.646899939,,,,4.040100098,0.208999991,8.933199883,,,282,4.177500099,-0.333499968,7.286299944
1.68301E+18,5.661401123,0.092,-0.254599988,-1.202499986,,,,4.02670002,0.176100001,8.93999958,,,283,4.11870002,-0.078499988,7.737499595
1.68301E+18,5.681401123,-0.1382,0.0072,-0.782799959,,,,4.001999855,0.139799997,8.951700211,,,284,3.863799855,0.146999997,8.168900251
1.68301E+18,5.701399658,-0.295100003,0.216499999,-0.364799976,,,,3.972599983,0.107099995,8.965299606,,,285,3.67749998,0.323599994,8.60049963
1.68301E+18,5.721399658,-0.399699986,0.319999993,-0.242199987,,,,3.939899921,0.081900001,8.979999542,,,286,3.540199935,0.401899993,8.737799555
1.68301E+18,5.741402832,-0.557900012,0.384499997,-0.554399967,,,,3.921599865,0.066500001,8.988100052,,,287,3.363699853,0.450999998,8.433700085
1.68301E+18,5.761402832,-0.557500005,0.38349998,-1.044999957,,,,3.921099901,0.057699997,8.988399506,,,288,3.363599896,0.441199977,7.943399549
1.68301E+18,5.781402832,-0.584899962,0.348099977,-1.13409996,,,,3.919099808,0.0539,8.989299774,,,289,3.334199846,0.401999976,7.855199814
1.68301E+18,5.801399658,-0.386199981,0.372699976,-0.913999975,,,,3.906799793,0.048899997,8.994599342,,,290,3.520599812,0.421599973,8.080599368
1.68301E+18,5.821401123,0.039099999,0.485199988,-0.119999997,,,,3.883499861,0.034499999,9.004799843,,,291,3.92259986,0.519699987,8.884799846
1.68301E+18,5.841399658,0.719199955,0.475599974,1.028599977,,,,3.840799809,0.014599999,9.023200035,,,292,4.559999764,0.490199974,10.05180001
1.68301E+18,5.861399658,1.320799947,0.45629999,2.090899944,,,,3.778599977,-0.0052,9.049399376,,,293,5.099399924,0.45109999,11.14029932
1.68301E+18,5.881401123,1.502399921,0.519299984,2.329200029,,,,3.714599848,-0.019199999,9.075799942,,,294,5.216999769,0.500099985,11.40499997
1.68301E+18,5.901402832,1.08829999,0.324099988,1.7493999,,,,3.687399864,-0.020099999,9.086899757,,,295,4.775699854,0.303999988,10.83629966
1.68301E+18,5.921399658,0.863799989,-0.359499991,1.743099928,,,,3.696199894,-0.0032,9.083399773,,,296,4.559999883,-0.362699991,10.8264997
1.68301E+18,5.941401123,0.916299999,-0.824799955,2.257499933,,,,3.682899952,0.010799999,9.088699341,,,297,4.599199951,-0.813999956,11.34619927
1.68301E+18,5.961401123,0.409399986,-0.804699957,1.975699902,,,,3.640699863,0.0103,9.105699539,,,298,4.05009985,-0.794399957,11.08139944
1.68301E+18,5.981399658,-0.105899997,-0.572899997,1.216899991,,,,3.606799841,0.0041,9.119199753,,,299,3.500899844,-0.568799997,10.33609974
1.68301E+18,6.001399658,-0.278200001,-0.352899998,0.093399994,,,,3.592799902,-0.0098,9.124699593,,,300,3.314599901,-0.362699999,9.218099587
1.68301E+18,6.021399658,-0.057799999,-0.490499973,-0.338,,,,3.617599964,-0.019399999,9.114899635,,,301,3.559799965,-0.509899972,8.776899636
1.68301E+18,6.041399658,0.543200016,-0.736199975,0.739600003,,,,3.614699841,-0.0286,9.116000175,,,302,4.157899857,-0.764799975,9.855600178
1.68301E+18,6.061399658,0.527499974,-0.760999978,2.013200045,,,,3.561699867,-0.042999998,9.136799812,,,303,4.089199841,-0.803999975,11.14999986
1.68301E+18,6.081399658,0.109799996,-0.672699988,2.083400011,,,,3.489199877,-0.043099999,9.16479969,,,304,3.598999873,-0.715799987,11.2481997
1.68301E+18,6.101399658,-0.035299998,-0.83769995,1.175300002,,,,3.447999954,-0.0252,9.180399895,,,305,3.412699956,-0.86289995,10.3556999
1.68301E+18,6.121399658,0.274899989,-0.878699958,0.146899998,,,,3.451599836,0.0059,9.179100037,,,306,3.726499826,-0.872799959,9.326000035
1.68301E+18,6.141399658,0.282199979,-0.720999956,-0.795799971,,,,3.473599911,0.034600001,9.170700073,,,307,3.75579989,-0.686399955,8.374900103
1.68301E+18,6.161401123,-0.225899994,-0.680700004,-1.308599949,,,,3.491499901,0.062899999,9.16380024,,,308,3.265599906,-0.617800005,7.855200291
1.68301E+18,6.181402832,-0.718499959,-0.612399995,-1.503600001,,,,3.493799925,0.092699997,9.162599564,,,309,2.775299966,-0.519699998,7.658999562
1.68301E+18,6.201402832,-0.801099956,-0.508099973,-1.717599988,,,,3.497900009,0.115800001,9.16079998,,,310,2.696800053,-0.392299972,7.443199992
1.68301E+18,6.221399658,-0.756500006,-0.364600003,-1.809999943,,,,3.512199879,0.129199997,9.155099869,,,311,2.755699873,-0.235400006,7.345099926
1.68301E+18,6.241401123,-0.407499999,-0.132299989,-1.853599906,,,,3.526000023,0.132299989,9.149799347,,,312,3.118500024,0,7.296199441
1.68301E+18,6.261399658,-0.356599987,0.107599996,-1.791799903,,,,3.533900023,0.127700001,9.146800041,,,313,3.177300036,0.235299997,7.355000138
1.68301E+18,6.281399658,-0.518700004,0.305899978,-1.681899905,,,,3.539199829,0.125499994,9.144800186,,,314,3.020499825,0.431399971,7.462900281
1.68301E+18,6.301401123,-0.566999972,0.407799989,-1.403899908,,,,3.548199892,0.121699996,9.141399384,,,315,2.98119992,0.529499985,7.737499475
1.68301E+18,6.321401123,-0.589299977,0.568399966,-1.300999999,,,,3.560799837,0.117899999,9.136499405,,,316,2.97149986,0.686299965,7.835499406
1.68301E+18,6.341399658,-0.723199964,0.778299987,-1.28489995,,,,3.576900005,0.114,9.130299568,,,317,2.853700042,0.892299987,7.845399618
1.68301E+18,6.361402832,-0.961799979,0.935299993,-1.364199996,,,,3.599799871,0.113899998,9.121299744,,,318,2.637999892,1.049199991,7.757099748
1.68301E+18,6.381401123,-1.122399926,0.914699972,-1.100000024,,,,3.623099804,0.1149,9.111999512,,,319,2.500699878,1.029599972,8.011999488
1.68301E+18,6.401399658,-1.162799954,0.738999963,-0.522899985,,,,3.643899918,0.114,9.103699684,,,320,2.481099963,0.852999963,8.580799699
1.68301E+18,6.421399658,-1.094399929,0.428000003,0.206599995,,,,3.653899908,0.111299999,9.09980011,,,321,2.559499979,0.539300002,9.306400105
1.68301E+18,6.441402832,-0.568799973,0.069399998,0.610300004,,,,3.657899857,0.107000001,9.098199844,,,322,3.089099884,0.176399998,9.708499849
1.68301E+18,6.461402832,0.34709999,0.142199993,0.894899964,,,,3.683399916,0.083299994,9.088199615,,,323,4.030499905,0.225499988,9.98309958
1.68301E+18,6.481399658,0.752699971,0.421700001,1.389699936,,,,3.718999863,0.039099999,9.073900223,,,324,4.471699834,0.4608,10.46360016
1.68301E+18,6.501399658,0.535299957,0.556199968,1.894400001,,,,3.730499983,0.0027,9.069299698,,,325,4.26579994,0.558899968,10.9636997
1.68301E+18,6.521401123,0.624199986,0.130999997,2.688499928,,,,3.729799986,-0.0133,9.069600105,,,326,4.353999972,0.117699997,11.75810003
1.68301E+18,6.541399658,0.820299983,0.037499998,2.76699996,,,,3.729899883,-0.017899999,9.069499969,,,327,4.550199866,0.019599998,11.83649993
1.68301E+18,6.561399658,0.348800004,0.371600002,1.416299939,,,,3.75999999,-0.0284,9.057099342,,,328,4.108799994,0.343200002,10.47339928
1.68301E+18,6.581399658,-0.342299998,0.197099999,0.315200001,,,,3.823599815,-0.030399999,9.030399323,,,329,3.481299818,0.1667,9.345599324
1.68301E+18,6.601399658,0.229800001,-0.240699992,0.697600007,,,,3.869299889,-0.0337,9.010899544,,,330,4.099099889,-0.274399992,9.708499551
1.68301E+18,6.621402832,1.165499926,-0.362699986,1.729900002,,,,3.875,-0.058899999,9.008299828,,,331,5.040499926,-0.421599984,10.73819983
1.68301E+18,6.641399658,1.478599906,-0.734499991,3.002499819,,,,3.846299887,-0.089099996,9.020400047,,,332,5.324899793,-0.823599987,12.02289987
1.68301E+18,6.661401123,1.962599993,-0.932799995,3.61379981,,,,3.78399992,-0.106599994,9.046500206,,,333,5.746599913,-1.039399989,12.66030002
1.68301E+18,6.681399658,1.918499947,-1.088699937,2.771699905,,,,3.739799976,-0.107599996,9.064799309,,,334,5.658299923,-1.196299933,11.83649921
1.68301E+18,6.701399658,1.248099923,-1.292400002,1.217700005,,,,3.753199816,-0.080399998,9.059599876,,,335,5.001299739,-1.3728,10.27729988
1.68301E+18,6.721399658,0.664299965,-1.559700012,0.131899998,,,,3.807499886,-0.038699999,9.037199974,,,336,4.47179985,-1.598400012,9.169099972
1.68301E+18,6.741401123,-0.606099963,-1.761999965,-1.06099999,,,,3.861899853,0.0066,9.014200211,,,337,3.25579989,-1.755399965,7.953200221
1.68301E+18,6.761399658,-1.582099915,-1.684999943,-1.835999966,,,,3.906299829,0.0473,8.99489975,,,338,2.324199915,-1.637699943,7.158899784
1.68301E+18,6.781402832,-1.514099956,-1.39199996,-1.9447999,,,,3.926499844,0.0583,8.986000061,,,339,2.412399888,-1.33369996,7.041200161
1.68301E+18,6.801402832,-0.953499973,-0.974399984,-2.039399862,,,,3.934700012,0.0427,8.982500076,,,340,2.981200039,-0.931699984,6.943100214
1.68301E+18,6.821399658,-0.708599985,-0.57949996,-1.931499958,,,,3.934999943,0.0107,8.982500076,,,341,3.226399958,-0.56879996,7.051000118
1.68301E+18,6.841399658,-0.617699981,-0.254399985,-1.593699932,,,,3.922499895,-0.029899999,8.98789978,,,342,3.304799914,-0.284299985,7.394199848
1.68301E+18,6.861402832,-0.645299971,0.0275,-1.288900018,,,,3.90109992,-0.076499999,8.996899605,,,343,3.255799949,-0.048999999,7.707999587
1.68301E+18,6.881402832,-0.4278,0.238799989,-1.081900001,,,,3.879699945,-0.121199995,9.005700111,,,344,3.451899946,0.117599994,7.923800111
1.68301E+18,6.901399658,-0.155499995,0.283999979,-0.916499972,,,,3.852599859,-0.156599998,9.016799927,,,345,3.697099864,0.127399981,8.100299954
1.68301E+18,6.921399658,0.048799999,0.19569999,-0.93779999,,,,3.824699879,-0.176100001,9.028299332,,,346,3.873499878,0.019599989,8.090499341
1.68301E+18,6.941399658,0.252200007,0.098799996,-1.180099964,,,,3.807600021,-0.187099993,9.035299301,,,347,4.059800029,-0.088299997,7.855199337
1.68301E+18,6.961401123,0.35589999,0.060399998,-1.52549994,,,,3.801999807,-0.197699994,9.037400246,,,348,4.157899797,-0.137299996,7.511900306
1.68301E+18,6.981399658,0.469599992,0.216600001,-1.743299961,,,,3.796199799,-0.216600001,9.039400101,,,349,4.265799791,0,7.29610014
1.68301E+18,7.001399658,0.531099975,0.332599998,-1.496899962,,,,3.773899794,-0.244399995,9.047999382,,,350,4.304999769,0.088200003,7.55109942
1.68301E+18,7.021401123,0.34919998,0.37439999,-1.023800015,,,,3.730199814,-0.276299983,9.065199852,,,351,4.079399794,0.098100007,8.041399837
1.68301E+18,7.041399658,0.565899968,0.272899985,-0.076099999,,,,3.670499802,-0.312099993,9.088399887,,,352,4.23639977,-0.039200008,9.012299888
1.68301E+18,7.061399658,1.084800005,0.142199993,1.159600019,,,,3.592899799,-0.357899994,9.117699623,,,353,4.677699804,-0.215700001,10.27729964
1.68301E+18,7.081399658,1.433399916,0.0127,2.204400063,,,,3.499199867,-0.414799988,9.151599884,,,354,4.932599783,-0.402099988,11.35599995
1.68301E+18,7.101399658,1.205500007,-0.075899996,2.641899824,,,,3.403599977,-0.473199993,9.184800148,,,355,4.609099984,-0.549099989,11.82669997
1.68301E+18,7.121399658,0.542800009,-0.045299999,2.157599926,,,,3.330799818,-0.533199966,9.208199501,,,356,3.873599827,-0.578499965,11.36579943
1.68301E+18,7.141399658,0.0016,-0.0669,1.994899988,,,,3.303200006,-0.599900007,9.213999748,,,357,3.304800006,-0.666800007,11.20889974
1.68301E+18,7.161402832,0.609899998,-0.214000002,3.496500015,,,,3.263700008,-0.678299963,9.222700119,,,358,3.873600006,-0.892299965,12.71920013
1.68301E+18,7.181401123,0.644299984,-0.070699997,3.487399817,,,,3.131099939,-0.772499979,9.261099815,,,359,3.775399923,-0.843199976,12.74849963
1.68301E+18,7.201402832,0.353799999,1.186200023,2.536900043,,,,2.990200043,-0.862499952,9.299699783,,,360,3.344000041,0.32370007,11.83659983
1.68301E+18,7.221402832,0.075599998,1.035300016,0.76669997,,,,2.895699978,-0.917599976,9.324299812,,,361,2.971299976,0.11770004,10.09099978
1.68301E+18,7.241401123,0.186799988,0.957599998,-0.881999969,,,,2.853099823,-0.937999964,9.335399628,,,362,3.039899811,0.019600034,8.453399658
1.68301E+18,7.261399658,0.280900002,0.819599986,-0.856399953,,,,2.837499857,-0.946999967,9.33920002,,,363,3.118399858,-0.127399981,8.482800066
1.68301E+18,7.281399658,0.201999992,0.282999992,0.238199994,,,,2.798699856,-0.930199981,9.352600098,,,364,3.000699848,-0.647199988,9.590800092
1.68301E+18,7.301402832,-0.203599989,-0.264400005,1.36469996,,,,2.743499994,-0.8829,9.37349987,,,365,2.539900005,-1.147300005,10.73819983
1.68301E+18,7.321402832,-0.381799996,-0.719599962,1.898599982,,,,2.676499844,-0.819899976,9.398599625,,,366,2.294699848,-1.539499938,11.29719961
1.68301E+18,7.341399658,-0.256799996,-0.870000005,1.501399994,,,,2.610399961,-0.747999966,9.423099518,,,367,2.353599966,-1.617999971,10.92449951
1.68301E+18,7.361399658,-0.246399999,-0.778299987,0.307999998,,,,2.570600033,-0.672999978,9.439700127,,,368,2.324200034,-1.451299965,9.747700125
1.68301E+18,7.381401123,-0.035700001,-0.638599992,-0.717599988,,,,2.565799952,-0.606700003,9.44549942,,,369,2.530099951,-1.245299995,8.727899432
1.68301E+18,7.401399658,-0.128299996,-0.458899975,-1.442799926,,,,2.579999924,-0.551100016,9.445099831,,,370,2.451699927,-1.00999999,8.002299905
1.68301E+18,7.421399658,-0.411899984,-0.239799991,-2.038399935,,,,2.598799944,-0.505400002,9.442500114,,,371,2.18689996,-0.745199993,7.40410018
1.68301E+18,7.441399658,-0.637799978,-0.0517,-2.321899891,,,,2.608999968,-0.467899978,9.441599846,,,372,1.971199989,-0.519599978,7.119699955
1.68301E+18,7.461401123,-0.807699978,0.158299997,-2.629499912,,,,2.602299929,-0.432799995,9.445099831,,,373,1.79459995,-0.274499997,6.815599918
1.68301E+18,7.481402832,-0.873600006,0.302599996,-2.901799917,,,,2.579900026,-0.400700003,9.452599525,,,374,1.70630002,-0.098100007,6.550799608
1.68301E+18,7.501399658,-0.778999984,0.462300003,-2.932199955,,,,2.544199944,-0.373999983,9.463399887,,,375,1.765199959,0.08830002,6.531199932
1.68301E+18,7.521401123,-0.602899969,0.549799979,-2.700799942,,,,2.495599985,-0.353699982,9.477099419,,,376,1.892700016,0.196099997,6.776299477
1.68301E+18,7.541399658,-0.493199974,0.733099997,-2.327199936,,,,2.425199986,-0.340799987,9.495900154,,,377,1.932000011,0.39230001,7.168700218
1.68301E+18,7.561399658,-0.571399987,0.895500004,-1.731699944,,,,2.336599827,-0.336499989,9.518199921,,,378,1.76519984,0.559000015,7.786499977
1.68301E+18,7.581399658,-0.799699962,1.134799957,-1.146099925,,,,2.241299868,-0.350299984,9.540599823,,,379,1.441599905,0.784499973,8.394499898
1.68301E+18,7.601399658,-0.856899977,1.364099979,-0.601000011,,,,2.180799961,-0.354000002,9.554499626,,,380,1.323899984,1.010099977,8.953499615
1.68301E+18,7.621399658,-0.745399952,1.372900009,0.160699993,,,,2.167299986,-0.352999985,9.557600021,,,381,1.421900034,1.019900024,9.718300015
1.68301E+18,7.641399658,-0.525399983,1.157500029,1.073699951,,,,2.172899961,-0.343600005,9.556599617,,,382,1.647499979,0.813900024,10.63029957
1.68301E+18,7.661399658,-0.174699992,0.912,2.230700016,,,,2.175299883,-0.323599994,9.556799889,,,383,2.000599891,0.588400006,11.7874999
1.68301E+18,7.681399658,0.106199995,0.768999994,3.209100008,,,,2.168900013,-0.298299998,9.559100151,,,384,2.275100008,0.470699996,12.76820016
1.68301E+18,7.701402832,0.177699998,0.789599955,3.285699844,,,,2.165999889,-0.260100007,9.560899734,,,385,2.343699887,0.529499948,12.84659958
1.68301E+18,7.721399658,-0.056399997,0.569400012,3.220000029,,,,2.184399843,-0.206499994,9.557999611,,,386,2.127999846,0.362900019,12.77799964
1.68301E+18,7.741399658,0.1083,-0.102699995,2.906800032,,,,2.235299826,-0.132599995,9.547499657,,,387,2.343599826,-0.23529999,12.45429969
1.68301E+18,7.761399658,0.562099993,-0.656699955,2.818599939,,,,2.320999861,-0.0493,9.527899742,,,388,2.883099854,-0.705999956,12.34649968
1.68301E+18,7.781402832,0.520699978,-0.640699983,1.960899949,,,,2.421200037,0.0131,9.502999306,,,389,2.941900015,-0.627599983,11.46389925
1.68301E+18,7.801401123,-0.171999991,-0.382999986,0.605499983,,,,2.525599957,0.0594,9.475599289,,,390,2.353599966,-0.323599987,10.08109927
1.68301E+18,7.821402832,-0.481599987,-0.557999969,-0.165600002,,,,2.609699965,0.097099997,9.45249939,,,391,2.128099978,-0.460899971,9.286899388
1.68301E+18,7.841399658,0.064499997,-1.319000006,0.775399983,,,,2.64199996,0.132399991,9.443099976,,,392,2.706499957,-1.186600015,10.21849996
1.68301E+18,7.861399658,1.154099941,-2.058300018,2.856099844,,,,2.611599922,0.1558,9.451199532,,,393,3.765699863,-1.902500018,12.30729938
1.68301E+18,7.881401123,1.718400002,-2.095399857,4.451399803,,,,2.527699947,0.153699994,9.473999977,,,394,4.246099949,-1.941699862,13.92539978
1.68301E+18,7.901402832,1.485199928,-1.777899981,4.03760004,,,,2.447199821,0.130400002,9.495399475,,,395,3.93239975,-1.647499979,13.53299952
1.68301E+18,7.921402832,1.004299998,-1.515299916,2.380100012,,,,2.408299923,0.122699998,9.50549984,,,396,3.412599921,-1.392599918,11.88559985
1.68301E+18,7.941399658,0.537899971,-1.278199911,0.275700003,,,,2.423599958,0.130799994,9.50150013,,,397,2.961499929,-1.147399917,9.777200133
1.68301E+18,7.961401123,-0.325399995,-0.995299995,-1.48119998,,,,2.492699862,0.142099991,9.483399391,,,398,2.167299867,-0.853200004,8.002199411
1.68301E+18,7.981399658,-1.3829,-0.929899991,-2.149600029,,,,2.559700012,0.155100003,9.465399742,,,399,1.176800013,-0.774799988,7.315799713
1.68301E+18,8.001399658,-2.286900043,-1.067899942,-2.709499836,,,,2.590899944,0.175399989,9.456500053,,,400,0.303999901,-0.892499954,6.747000217
1.68301E+18,8.021401123,-2.476399899,-1.284099936,-3.142199993,,,,2.584300041,0.205299988,9.457699776,,,401,0.107900143,-1.078799948,6.315499783
1.68301E+18,8.041399658,-1.987199903,-1.278399944,-3.100600004,,,,2.555999994,0.219300002,9.465099335,,,402,0.568800092,-1.059099942,6.364499331
1.68301E+18,8.061402832,-1.414199948,-0.986599982,-2.871999979,,,,2.53219986,0.202099994,9.471899986,,,403,1.117999911,-0.784499988,6.599900007
1.68301E+18,8.081402832,-0.864099979,-0.595699966,-2.652699947,,,,2.511600018,0.164199993,9.478099823,,,404,1.647500038,-0.431499973,6.825399876
1.68301E+18,8.101399658,-0.568099976,-0.308499992,-2.298699856,,,,2.480399847,0.122199997,9.486899376,,,405,1.912299871,-0.186299995,7.18819952
1.68301E+18,8.121399658,-0.489199996,-0.183200002,-1.814199924,,,,2.421099901,0.085099995,9.502599716,,,406,1.931899905,-0.098100007,7.688399792
1.68301E+18,8.141399658,-0.521600008,-0.139200002,-1.470499992,,,,2.345700026,0.050899997,9.521800041,,,407,1.824100018,-0.088300005,8.051300049
1.68301E+18,8.161399658,-0.398799986,-0.072899997,-1.223799944,,,,2.271800041,0.014,9.53979969,,,408,1.873000056,-0.058899998,8.315999746
1.68301E+18,8.181399658,-0.0526,0.048,-0.885199964,,,,2.210000038,-0.0284,9.554299355,,,409,2.157400038,0.0196,8.669099391
1.68301E+18,8.201399658,0.425499976,0.236499995,-0.0348,,,,2.153499842,-0.079599999,9.5668993,,,410,2.578999817,0.156899996,9.532099299
1.68301E+18,8.221399658,0.790199995,0.333700001,1.17809999,,,,2.092799902,-0.13759999,9.579699516,,,411,2.882999897,0.196100011,10.75779951
1.68301E+18,8.241401123,1.088500023,0.440399975,2.224699974,,,,2.029899836,-0.195199996,9.592199326,,,412,3.118399858,0.245199978,11.8168993
1.68301E+18,8.261399658,1.271600008,0.64199996,2.859599829,,,,1.96449995,-0.249799997,9.604599953,,,413,3.236099958,0.392199963,12.46419978
1.68301E+18,8.281399658,1.087899923,0.833799958,2.634699821,,,,1.912799954,-0.294499993,9.613699913,,,414,3.000699878,0.539299965,12.24839973
1.68301E+18,8.301399658,0.653199971,0.81159997,2.092900038,,,,1.896399975,-0.3213,9.616099358,,,415,2.549599946,0.49029997,11.7089994
1.68301E+18,8.321401123,0.48119998,0.434799999,2.653499842,,,,1.901699901,-0.336799979,9.614500046,,,416,2.38289988,0.09800002,12.26799989
1.68301E+18,8.341399658,0.438600004,0.374300003,3.680599928,,,,1.885499954,-0.354599983,9.617099762,,,417,2.324099958,0.019700021,13.29769969
1.68301E+18,8.361399658,-0.217899993,0.776600003,3.270099878,,,,1.835999966,-0.384299994,9.625499725,,,418,1.618099973,0.39230001,12.8955996
1.68301E+18,8.381401123,-0.782299995,0.998199999,1.968099952,,,,1.792400002,-0.399999976,9.633099556,,,419,1.010100007,0.598200023,11.60119951
1.68301E+18,8.401399658,-0.100299999,1.070299983,0.209600002,,,,1.777199984,-0.393599987,9.636199951,,,420,1.676899984,0.676699996,9.845799953
1.68301E+18,8.421399658,1.110499978,0.763999999,-0.647700012,,,,1.811800003,-0.371800005,9.630599976,,,421,2.922299981,0.392199993,8.982899964
1.68301E+18,8.441399658,2.286399841,0.204699993,0.337199986,,,,1.842099905,-0.332199991,9.626299858,,,422,4.128499746,-0.127499998,9.963499844
1.68301E+18,8.461401123,2.46269989,-0.2852,2.069900036,,,,1.832499981,-0.293300003,9.6293993,,,423,4.295199871,-0.578500003,11.69929934
1.68301E+18,8.481399658,1.036299944,-0.774699986,2.452399969,,,,1.787899971,-0.245099992,9.639100075,,,424,2.824199915,-1.019799978,12.09150004
1.68301E+18,8.501399658,-0.493900001,-1.143899918,1.386299968,,,,1.758999944,-0.170099989,9.645999908,,,425,1.265099943,-1.313999906,11.03229988
1.68301E+18,8.521401123,-1.218500018,-1.458799958,0.0058,,,,1.777499914,-0.080799997,9.643799782,,,426,0.558999896,-1.539599955,9.649599782
1.68301E+18,8.541399658,-1.133599997,-1.482899904,-1.3477,,,,1.829899907,-0.0076,9.634399414,,,427,0.696299911,-1.490499904,8.286699414
1.68301E+18,8.561399658,-1.00090003,-1.266499996,-2.368899822,,,,1.873699903,0.0407,9.625800133,,,428,0.872799873,-1.225799996,7.256900311
1.68301E+18,8.581399658,-0.861899972,-0.927100003,-2.845799923,,,,1.891599894,0.064199999,9.622200012,,,429,1.029699922,-0.862900004,6.776400089
1.68301E+18,8.601399658,-0.678599954,-0.625499964,-2.845199823,,,,1.894599915,0.066599995,9.621600151,,,430,1.215999961,-0.558899969,6.776400328
1.68301E+18,8.621399658,-0.790799975,-0.399599999,-2.952299833,,,,1.898899913,0.056299999,9.620800018,,,431,1.108099937,-0.3433,6.668500185
1.68301E+18,8.641399658,-0.962599993,-0.298500001,-3.086699963,,,,1.913899899,0.043499999,9.617899895,,,432,0.951299906,-0.255000003,6.531199932
1.68301E+18,8.661399658,-0.876299977,-0.156299993,-3.092299938,,,,1.935400009,0.018999999,9.613699913,,,433,1.059100032,-0.137299994,6.521399975
1.68301E+18,8.681399658,-0.592099965,-0.0211,-2.72939992,,,,1.935599923,-0.018099999,9.613699913,,,434,1.343499959,-0.039199999,6.884299994
1.68301E+18,8.701399658,-0.398299992,0.247799993,-2.214900017,,,,1.908499956,-0.0614,9.618899345,,,435,1.510199964,0.186399993,7.403999329
1.68301E+18,8.721399658,-0.369100004,0.431499988,-1.64349997,,,,1.869499922,-0.107899994,9.626099586,,,436,1.500399917,0.323599994,7.982599616
1.68301E+18,8.741401123,-0.53670001,0.670099974,-1.470099926,,,,1.850799918,-0.150399998,9.629199982,,,437,1.314099908,0.519699976,8.159100056
1.68301E+18,8.761399658,-0.433899999,0.850199997,-1.175999999,,,,1.846099973,-0.193199992,9.629300117,,,438,1.412199974,0.657000005,8.453300118
1.68301E+18,8.781399658,-0.2016,1.042699933,-0.682199955,,,,1.858899951,-0.238600001,9.625800133,,,439,1.657299951,0.804099932,8.943600178
1.68301E+18,8.801399658,-0.121299997,1.156999946,0.108899996,,,,1.886500001,-0.284199983,9.619199753,,,440,1.765200004,0.872799963,9.728099748
1.68301E+18,8.821401123,0.0044,1.21209991,1.077499986,,,,1.917599916,-0.32949999,9.611599922,,,441,1.921999916,0.88259992,10.68909991
1.68301E+18,8.841399658,0.061799999,1.252399921,1.975600004,,,,1.938599944,-0.369800001,9.605899811,,,442,2.000399943,0.88259992,11.58149981
1.68301E+18,8.861399658,-0.058399998,1.277699947,2.469499826,,,,1.951099992,-0.395099998,9.602399826,,,443,1.892699994,0.88259995,12.07189965
1.68301E+18,8.881401123,-0.207699999,1.216899991,2.670399904,,,,1.972899914,-0.402899981,9.597599983,,,444,1.765199915,0.81400001,12.26799989
1.68301E+18,8.901399658,0.0177,0.894099951,2.925400019,,,,2.021999836,-0.393899977,9.587800026,,,445,2.039699836,0.500199974,12.51320004
1.68301E+18,8.921399658,0.537299991,0.212099999,3.638000011,,,,2.100600004,-0.378800005,9.571499825,,,446,2.637899995,-0.166700006,13.20949984
1.68301E+18,8.941399658,0.78459996,-0.068099998,4.184000015,,,,2.177000046,-0.363299996,9.554999352,,,447,2.961600006,-0.431399994,13.73899937
1.68301E+18,8.961401123,0.725600004,0.109799996,3.932899952,,,,2.235899925,-0.364799976,9.54129982,,,448,2.961499929,-0.25499998,13.47419977
1.68301E+18,8.981399658,0.1149,0.608699977,2.780900002,,,,2.297399998,-0.373299986,9.526399612,,,449,2.412299998,0.235399991,12.30729961
1.68301E+18,9.001399658,-0.067400001,0.474699974,2.051199913,,,,2.362200022,-0.366899997,9.510799408,,,450,2.294800021,0.107799977,11.56199932
1.68301E+18,9.021401123,0.48119998,-0.364499986,2.961999893,,,,2.401900053,-0.331699997,9.502099991,,,451,2.883100033,-0.696199983,12.46409988
1.68301E+18,9.041399658,1.333999991,-1.175999999,4.220399857,,,,2.382599831,-0.275299996,9.508799553,,,452,3.716599822,-1.451299995,13.72919941
1.68301E+18,9.061399658,1.399699926,-1.601199985,4.136399746,,,,2.326699972,-0.212899998,9.524199486,,,453,3.726399899,-1.814099982,13.66059923
1.68301E+18,9.081399658,0.797399998,-1.637099981,2.045099974,,,,2.281800032,-0.137799993,9.536399841,,,454,3.079200029,-1.774899974,11.58149981
1.68301E+18,9.101399658,0.153999999,-1.615399957,-0.516099989,,,,2.277899981,-0.051599998,9.538199425,,,455,2.43189998,-1.666999955,9.022099435
1.68301E+18,9.121399658,-0.196799994,-1.33889997,-2.757999897,,,,2.334599972,0.015,9.524600029,,,456,2.137799978,-1.32389997,6.766600132
1.68301E+18,9.141402832,-0.576499999,-0.92809999,-3.815299988,,,,2.420199871,0.045499999,9.503199577,,,457,1.843699872,-0.882599991,5.68789959
1.68301E+18,9.161399658,-1.209999919,-0.735599995,-3.80369997,,,,2.465299845,0.039299998,9.491600037,,,458,1.255299926,-0.696299996,5.687900066
1.68301E+18,9.181401123,-1.526299953,-0.4648,-3.339999914,,,,2.438299894,0.0137,9.498600006,,,459,0.911999941,-0.4511,6.158600092
1.68301E+18,9.201399658,-2.087499857,-0.322699994,-2.962100029,,,,2.381700039,-0.0107,9.512999535,,,460,0.294200182,-0.333399993,6.550899506
1.68301E+18,9.221399658,-2.323699951,-0.075099997,-2.63319993,,,,2.323699951,-0.032699998,9.527299881,,,461,0,-0.107799996,6.894099951
1.68301E+18,9.241402832,-1.878299952,0.060699999,-2.027999878,,,,2.270599842,-0.060699999,9.539899826,,,462,0.392299891,0,7.511899948
1.68301E+18,9.261399658,-1.118199944,0.112599999,-1.400699973,,,,2.226399899,-0.092999995,9.550099373,,,463,1.108199954,0.019600004,8.1493994
1.68301E+18,9.281399658,-0.563600004,0.180399999,-1.016199946,,,,2.191499949,-0.1215,9.557799339,,,464,1.627899945,0.058899999,8.541599393
1.68301E+18,9.301399658,-0.278299987,0.20539999,-0.819199979,,,,2.151299953,-0.136799991,9.566699982,,,465,1.872999966,0.068599999,8.747500002
1.68301E+18,9.321401123,0.0005,0.1417,-0.593400002,,,,2.107800007,-0.1417,9.576299667,,,466,2.108300007,0,8.982899666
1.68301E+18,9.341399658,0.247799993,-0.022499999,-0.406399995,,,,2.066400051,-0.134299994,9.585499763,,,467,2.314200044,-0.156799993,9.179099768
1.68301E+18,9.361399658,0.61649996,-0.222399995,-0.217999995,,,,2.031199932,-0.120799996,9.59319973,,,468,2.647699893,-0.343199991,9.375199735
1.68301E+18,9.381401123,1.15989995,-0.320600003,0.8046,,,,1.997699976,-0.1206,9.600199699,,,469,3.157599926,-0.441200003,10.4047997
1.68301E+18,9.401399658,1.619599938,-0.387199998,2.354300022,,,,1.949899912,-0.142299995,9.609700203,,,470,3.56949985,-0.529499993,11.96400023
1.68301E+18,9.421399658,1.611199975,-0.258599997,3.30189991,,,,1.879899979,-0.17279999,9.623199463,,,471,3.491099954,-0.431399986,12.92509937
1.68301E+18,9.441399658,1.293299913,-0.0067,2.616899967,,,,1.834899902,-0.189400002,9.63149929,,,472,3.128199816,-0.196100002,12.24839926
1.68301E+18,9.461399658,1.029899955,-0.158299997,1.680499911,,,,1.862899899,-0.174999997,9.626399994,,,473,2.892799854,-0.333299994,11.30689991
1.68301E+18,9.481399658,1.095000029,-0.800399959,2.457299948,,,,1.925300002,-0.15079999,9.614600182,,,474,3.020300031,-0.951199949,12.07190013
1.68301E+18,9.501399658,2.156100035,-1.031399965,2.641299963,,,,1.962599993,-0.145300001,9.607099533,,,475,4.118700027,-1.176699966,12.2483995
1.68301E+18,9.521401123,0.273099989,-0.624799967,1.786199927,,,,1.952899933,-0.149899989,9.609000206,,,476,2.225999922,-0.774699956,11.39520013
1.68301E+18,9.541401123,-0.301200002,0.1193,-0.105399996,,,,1.958499908,-0.138899997,9.607999802,,,477,1.657299906,-0.019599997,9.502599806
1.68301E+18,9.561399658,0.49089998,0.153799996,-0.122699998,,,,1.970499992,-0.124399997,9.605799675,,,478,2.461399972,0.029399998,9.483099677
1.68301E+18,9.581399658,2.194599867,-0.195299998,1.752999902,,,,1.982899904,-0.138099998,9.602999687,,,479,4.177499771,-0.333399996,11.35599959
1.68301E+18,9.601399658,2.837199926,-0.408399999,3.443399906,,,,1.997399926,-0.179899991,9.599299431,,,480,4.834599853,-0.58829999,13.04269934
1.68301E+18,9.621399658,1.239799976,-0.817799985,3.043399811,,,,2.006099939,-0.19219999,9.597299576,,,481,3.245899916,-1.009999976,12.64069939
1.68301E+18,9.641399658,-0.67719996,-0.662099957,0.809300005,,,,2.020699978,-0.112499997,9.595499992,,,482,1.343500018,-0.774599954,10.4048
1.68301E+18,9.661399658,-1.51849997,-1.152899981,-0.899599969,,,,2.057899952,0.0055,9.588199615,,,483,0.539399981,-1.147399981,8.688599646
1.68301E+18,9.681401123,-1.350499988,-1.220099926,-2.345499992,,,,2.125200033,0.1021,9.572999954,,,484,0.774700046,-1.117999926,7.227499962
1.68301E+18,9.701399658,-1.174399972,-1.002300024,-3.044799805,,,,2.194299936,0.168699995,9.556399345,,,485,1.019899964,-0.833600029,6.511599541
1.68301E+18,9.721399658,-1.07980001,-0.697999954,-3.053799868,,,,2.236999989,0.207699999,9.545800209,,,486,1.157199979,-0.490299955,6.492000341
1.68301E+18,9.741401123,-1.185199976,-0.299199998,-3.257200003,,,,2.244299889,0.240399987,9.543299675,,,487,1.059099913,-0.058800012,6.286099672
1.68301E+18,9.761399658,-1.138800025,-0.086799994,-3.387799978,,,,2.227299929,0.273200005,9.54640007,,,488,1.088499904,0.186400011,6.158600092
1.68301E+18,9.781399658,-0.952899992,-0.044,-3.254499912,,,,2.208099842,0.289199978,9.55039978,,,489,1.25519985,0.245199978,6.295899868
1.68301E+18,9.801399658,-0.630100012,0.120999999,-2.942699909,,,,2.199199915,0.290800005,9.552399635,,,490,1.569099903,0.411800005,6.609699726
1.68301E+18,9.821401123,-0.466899991,0.151799992,-2.520599842,,,,2.2026999,0.279599994,9.55189991,,,491,1.735799909,0.431399986,7.031300068
1.68301E+18,9.841399658,-0.452099979,0.428799987,-2.137599945,,,,2.207499981,0.257499993,9.551400185,,,492,1.755400002,0.68629998,7.41380024
1.68301E+18,9.861399658,-0.540699959,0.514299989,-1.503000021,,,,2.197999954,0.23089999,9.554299355,,,493,1.657299995,0.745199978,8.051299334
1.68301E+18,9.881401123,-0.4833,0.721599996,-0.978299975,,,,2.179800034,0.20009999,9.559199333,,,494,1.696500033,0.921699986,8.580899358
1.68301E+18,9.901399658,-0.538100004,0.916700006,-0.47209999,,,,2.165999889,0.171800002,9.56289959,,,495,1.627899885,1.088500008,9.0907996
1.68301E+18,9.921399658,-0.409799993,1.102200031,0.135199994,,,,2.165199995,0.143199995,9.563499451,,,496,1.755400002,1.245400026,9.698699445
1.68301E+18,9.941399658,-0.517099977,1.090999961,0.862599969,,,,2.174399853,0.115099996,9.561800003,,,497,1.657299876,1.206099957,10.42439997
1.68301E+18,9.961401123,-0.402500004,1.071799994,1.639999986,,,,2.187399864,0.094999999,9.559100151,,,498,1.784899861,1.166799992,11.19910014
1.68301E+18,9.981399658,-0.215999991,1.052699924,2.610699892,,,,2.187099934,0.074999996,9.559299469,,,499,1.971099943,1.127699919,12.16999936
1.68301E+18,10.00139966,-0.320199996,1.205899954,3.119699955,,,,2.183399916,0.059099998,9.560199738,,,500,1.863199919,1.264999952,12.67989969
1.68301E+18,10.02140112,-0.538100004,1.252399921,3.122399807,,,,2.1954,0.0616,9.557499886,,,501,1.657299995,1.313999921,12.67989969
1.68301E+18,10.04139966,-0.338099986,0.804799974,3.397899866,,,,2.240599871,0.087499999,9.54679966,,,502,1.902499884,0.892299972,12.94469953
1.68301E+18,10.06139966,0.713199973,0.087200001,4.522200108,,,,2.307100058,0.118699998,9.530599594,,,503,3.020300031,0.205899999,14.0527997
1.68301E+18,10.08139966,0.898399949,0.0429,4.294199944,,,,2.376899958,0.113899998,9.513500214,,,504,3.275299907,0.156799998,13.80770016
1.68301E+18,10.10139966,0.16929999,0.842700005,1.807099938,,,,2.468600035,0.118299998,9.490099907,,,505,2.637900025,0.961000003,11.29719985
1.68301E+18,10.12139966,0.148000002,0.445199996,0.422299981,,,,2.568300009,0.172600001,9.46269989,,,506,2.716300011,0.617799997,9.884999871
1.68301E+18,10.14139966,1.296599984,-0.898000002,1.454299927,,,,2.606299877,0.250699997,9.45059967,,,507,3.902899861,-0.647300005,10.9048996
1.68301E+18,10.16139966,2.435899973,-2.077899933,3.423199892,,,,2.555500031,0.312700003,9.462599754,,,508,4.991400003,-1.765199929,12.88579965
1.68301E+18,10.18139966,2.155699968,-2.206899881,3.860799789,,,,2.463199854,0.343600005,9.486000061,,,509,4.618899822,-1.863299876,13.34679985
1.68301E+18,10.20139966,1.317499995,-1.813799977,2.227299929,,,,2.399099827,0.372199982,9.501299858,,,510,3.716599822,-1.441599995,11.72859979
1.68301E+18,10.22139966,0.89989996,-1.588499904,-0.0197,,,,2.385200024,0.421499997,9.502799988,,,511,3.285099983,-1.166999906,9.483099988
1.68301E+18,10.24140112,0.711399972,-1.40899992,-1.987499952,,,,2.426599979,0.477299988,9.489600182,,,512,3.137999952,-0.931699932,7.502100229
1.68301E+18,10.26139966,0.0177,-1.369499922,-3.144599915,,,,2.492699862,0.526199996,9.469900131,,,513,2.510399861,-0.843299925,6.325300217
1.68301E+18,10.28139966,-0.885199964,-1.587299943,-3.513999939,,,,2.532699823,0.567399979,9.456899643,,,514,1.647499859,-1.019899964,5.942899704
1.68301E+18,10.30139966,-1.520299911,-1.657799959,-3.57159996,,,,2.530400038,0.598699987,9.455599785,,,515,1.010100126,-1.059099972,5.883999825
1.68301E+18,10.32139966,-1.641199946,-1.453999996,-3.254199982,,,,2.504199982,0.610700011,9.461799622,,,516,0.863000035,-0.843299985,6.20759964
1.68301E+18,10.34139966,-1.412500024,-1.072199941,-2.753399849,,,,2.471600056,0.601499975,9.470899582,,,517,1.059100032,-0.470699966,6.717499733
1.68301E+18,10.36139966,-0.917499959,-0.801499963,-2.243999958,,,,2.4375,0.575999975,9.4812994,,,518,1.520000041,-0.225499988,7.237299442
1.68301E+18,10.38140112,-0.427699983,-0.603799999,-1.873299956,,,,2.398900032,0.544999957,9.493000031,,,519,1.971200049,-0.058800042,7.619700074
1.68301E+18,10.40139966,-0.091899998,-0.435900003,-1.532400012,,,,2.357199907,0.514299989,9.505199432,,,520,2.265299909,0.078399986,7.97279942
1.68301E+18,10.42139966,-0.011,-0.249299988,-1.279399991,,,,2.315599918,0.484599978,9.517000198,,,521,2.304599918,0.23529999,8.237600207
1.68301E+18,10.44139966,0.156499997,-0.035299998,-1.025599957,,,,2.275399923,0.456900001,9.527999878,,,522,2.43189992,0.421600003,8.502399921
1.68301E+18,10.46139966,0.16489999,0.118499994,-0.790600002,,,,2.237699986,0.430599988,9.538199425,,,523,2.402599975,0.549099982,8.747599423
1.68301E+18,10.48139966,0.254999995,0.171999991,-0.163800001,,,,2.19659996,0.406499982,9.548799515,,,524,2.451599956,0.578499973,9.384999514
1.68301E+18,10.50139966,0.661499977,0.220399991,0.844899952,,,,2.152899981,0.377700001,9.55989933,,,525,2.814399958,0.598099992,10.40479928
1.68301E+18,10.52139966,1.087199926,0.21769999,2.145799875,,,,2.099799871,0.341199994,9.57310009,,,526,3.186999798,0.558899984,11.71889997
1.68301E+18,10.54139966,1.447999954,0.288499981,3.130299807,,,,2.033299923,0.299799979,9.588799477,,,527,3.481299877,0.58829996,12.71909928
1.68301E+18,10.56140112,1.486400008,0.522700012,2.970000029,,,,1.975299954,0.261700004,9.601999283,,,528,3.461699963,0.784400016,12.57199931
1.68301E+18,10.58139966,1.375,0.420399994,2.191599846,,,,1.959199905,0.246399999,9.605699539,,,529,3.334199905,0.666799992,11.79729939
1.68301E+18,10.60139966,1.359699965,-0.288300008,2.755800009,,,,1.984200001,0.248999998,9.600500107,,,530,3.343899965,-0.03930001,12.35630012
1.68301E+18,10.62139966,1.215299964,-0.550399959,3.59829998,,,,1.981599927,0.236599997,9.601399422,,,531,3.196899891,-0.313799962,13.1996994
1.68301E+18,10.64139966,0.614499986,-0.166199997,3.17599988,,,,1.935099959,0.195599988,9.611800194,,,532,2.549599946,0.029399991,12.78780007
1.68301E+18,10.66139966,0.216099992,0.578599989,0.930799961,,,,1.892199993,0.156800002,9.620999336,,,533,2.108299986,0.735399991,10.5517993
1.68301E+18,10.68140112,0.56979996,0.781499982,-0.74059999,,,,1.921000004,0.140199989,9.615599632,,,534,2.490799963,0.921699971,8.874999642
1.68301E+18,10.70139966,1.449499965,0.397299975,-0.206199989,,,,1.992499948,0.14199999,9.600999832,,,535,3.441999912,0.539299965,9.394799843
1.68301E+18,10.72139966,2.008599997,-0.160400003,1.578999996,,,,2.041499853,0.140799999,9.59070015,,,536,4.05009985,-0.019600004,11.16970015
1.68301E+18,10.74140112,1.038299918,-0.408600003,2.3829,,,,2.040899992,0.13409999,9.590899467,,,537,3.07919991,-0.274500012,11.97379947
1.68301E+18,10.76139966,-0.455199987,-0.504999995,1.7773,,,,2.004699945,0.151899993,9.59829998,,,538,1.549499959,-0.353100002,11.37559998
1.68301E+18,10.78139966,-0.982299984,-0.757600009,0.512600005,,,,2.002099991,0.198599994,9.597999573,,,539,1.019800007,-0.559000015,10.11059958
1.68301E+18,10.80139966,-0.733500004,-0.81159997,-1.060899973,,,,2.067199945,0.252599984,9.582900047,,,540,1.333699942,-0.558999985,8.522000074
1.68301E+18,10.82140112,-0.703599989,-0.782299995,-2.303299904,,,,2.164799929,0.291999996,9.560199738,,,541,1.461199939,-0.4903,7.256899834
1.68301E+18,10.84139966,-0.71509999,-0.646699965,-2.968299866,,,,2.254799843,0.313299984,9.538700104,,,542,1.539699852,-0.333399981,6.570400238
1.68301E+18,10.86139966,-0.796000004,-0.506599963,-3.14199996,,,,2.306299925,0.320299983,9.526199341,,,543,1.510299921,-0.18629998,6.384199381
1.68301E+18,10.88140112,-1.10529995,-0.47419998,-3.209199905,,,,2.311499834,0.327099979,9.524600029,,,544,1.206199884,-0.147100002,6.315400124
1.68301E+18,10.90139966,-1.12409997,-0.398999989,-3.172399998,,,,2.300899982,0.330300003,9.527099609,,,545,1.176800013,-0.068699986,6.354699612
1.68301E+18,10.92139966,-0.686499953,-0.270700008,-3.046799898,,,,2.294800043,0.319799989,9.528999329,,,546,1.60830009,0.049099982,6.48219943
1.68301E+18,10.94139966,-0.269999981,-0.112599999,-2.852399826,,,,2.290199995,0.298899978,9.53069973,,,547,2.020200014,0.18629998,6.678299904
1.68301E+18,10.96140112,-0.057599999,0.131899998,-2.511600018,,,,2.283699989,0.270099998,9.53319931,,,548,2.22609999,0.401999995,7.021599293
1.68301E+18,10.98139966,-0.169599995,0.325399995,-1.817600012,,,,2.277999878,0.233399987,9.535499573,,,549,2.108399883,0.558799982,7.717899561
1.68301E+18,11.00139966,-0.388300002,0.501999974,-1.163100004,,,,2.271100044,0.194199994,9.538000107,,,550,1.882800043,0.696199968,8.374900103
1.68301E+18,11.02140283,-0.451700002,0.675300002,-0.556999981,,,,2.265899897,0.158199996,9.539899826,,,551,1.814199895,0.833499998,8.982899845
1.68301E+18,11.04140112,-0.410099983,0.752599955,-0.087299995,,,,2.263499975,0.129899994,9.54090023,,,552,1.853399992,0.882499948,9.453600235
1.68301E+18,11.06139966,-0.267399997,0.72329998,0.354699999,,,,2.267999887,0.110199995,9.540100098,,,553,2.000599891,0.833499976,9.894800097
1.68301E+18,11.08139966,-0.097099997,0.718499959,0.760499954,,,,2.28399992,0.095399998,9.536399841,,,554,2.186899923,0.813899957,10.2968998
1.68301E+18,11.10139966,-0.047599997,0.81279999,1.372900009,,,,2.303200006,0.079499997,9.531999588,,,555,2.255600009,0.892299987,10.9048996
1.68301E+18,11.12139966,0.087799996,0.905599952,2.336599827,,,,2.314699888,0.055299997,9.529299736,,,556,2.402499884,0.960899949,11.86589956
1.68301E+18,11.14139966,0.1219,0.97209996,3.190899849,,,,2.3197999,0.037900001,9.52820015,,,557,2.4416999,1.009999961,12.7191
1.68301E+18,11.16139966,0.287999988,0.66960001,4.105499744,,,,2.330199957,0.036399998,9.52559948,,,558,2.618199944,0.706000008,13.63109922
1.68301E+18,11.18139966,0.771399975,0.0211,5.122200012,,,,2.356799841,0.057299998,9.519000053,,,559,3.128199816,0.078399997,14.64120007
1.68301E+18,11.20139966,1.200899959,-0.131699994,4.742899895,,,,2.407799959,0.082599998,9.505999565,,,560,3.608699918,-0.049099997,14.24889946
1.68301E+18,11.22139966,1.037400007,0.192399994,3.225499868,,,,2.492899895,0.111499995,9.483799934,,,561,3.530299902,0.303899989,12.7092998
1.68301E+18,11.24139966,0.385699987,0.432599992,1.171800017,,,,2.585599899,0.145899996,9.458499908,,,562,2.971299887,0.578499988,10.63029993
1.68301E+18,11.26139966,0.250499994,-0.0075,0.324099988,,,,2.671799898,0.203699991,9.433400154,,,563,2.922299892,0.196199991,9.757500142
1.68301E+18,11.28139966,0.961599946,-1.209399939,1.610299945,,,,2.705999851,0.26789999,9.421999931,,,564,3.667599797,-0.941499949,11.03229988
1.68301E+18,11.30139966,1.700999975,-1.816899896,2.843199968,,,,2.692299843,0.306600004,9.424799919,,,565,4.393299818,-1.510299891,12.26799989
1.68301E+18,11.32140112,1.494099975,-1.455899954,2.766599894,,,,2.663800001,0.308499992,9.432799339,,,566,4.157899976,-1.147399962,12.19939923
1.68301E+18,11.34139966,0.680000007,-0.856000006,1.681999922,,,,2.644299984,0.296999991,9.438699722,,,567,3.324299991,-0.559000015,11.12069964
1.68301E+18,11.36139966,0.256500006,-0.546700001,0.074299999,,,,2.646199942,0.301499993,9.437999725,,,568,2.902699947,-0.245200008,9.512299724
1.68301E+18,11.38140112,-0.0986,-0.488099992,-1.462599993,,,,2.687599897,0.321399987,9.425600052,,,569,2.588999897,-0.166700006,7.963000059
1.68301E+18,11.40139966,-0.802899957,-0.517399967,-2.340399981,,,,2.734799862,0.350699991,9.410999298,,,570,1.931899905,-0.166699976,7.070599318
1.68301E+18,11.42139966,-1.498699903,-0.61619997,-2.539599895,,,,2.753899813,0.380799979,9.404299736,,,571,1.255199909,-0.235399991,6.864699841
1.68301E+18,11.44139966,-1.95419991,-0.694199979,-2.667500019,,,,2.74849987,0.40989998,9.404600143,,,572,0.79429996,-0.284299999,6.737100124
1.68301E+18,11.46140112,-2.060799837,-0.719699979,-2.669499874,,,,2.737399817,0.435299993,9.406700134,,,573,0.676599979,-0.284399986,6.73720026
1.68301E+18,11.48139966,-1.778899908,-0.676099956,-2.504199982,,,,2.730199814,0.450599998,9.408100128,,,574,0.951299906,-0.225499958,6.903900146
1.68301E+18,11.50139966,-1.401899934,-0.612599969,-2.289499998,,,,2.725800037,0.45569998,9.409099579,,,575,1.323900104,-0.156899989,7.119599581
1.68301E+18,11.52140112,-0.834199965,-0.638700008,-1.772399902,,,,2.717099905,0.452299982,9.411799431,,,576,1.88289994,-0.186400026,7.639399529
1.68301E+18,11.54140112,-0.414299995,-0.589599967,-1.24150002,,,,2.689499855,0.442499995,9.420199394,,,577,2.27519986,-0.147099972,8.178699374
1.68301E+18,11.56139966,-0.221900001,-0.491399974,-0.833000004,,,,2.644099951,0.432599992,9.433499336,,,578,2.42219995,-0.058799982,8.600499332
1.68301E+18,11.58139966,-0.227899998,-0.460199982,-0.717999995,,,,2.601099968,0.421000004,9.446000099,,,579,2.37319997,-0.039199978,8.728000104
1.68301E+18,11.60139966,-0.243299991,-0.381899983,-0.874799967,,,,2.567399979,0.411300004,9.455599785,,,580,2.324099988,0.029400021,8.580799818
1.68301E+18,11.62139966,-0.214099988,-0.521299958,-0.853599966,,,,2.538300037,0.403699994,9.463799477,,,581,2.324200049,-0.117599964,8.610199511
1.68301E+18,11.64139966,0.1105,-0.626999974,-0.577799976,,,,2.507799864,0.391599983,9.472399712,,,582,2.618299864,-0.235399991,8.894599736
1.68301E+18,11.66139966,0.708700001,-0.763099968,0.459899992,,,,2.468600035,0.361099988,9.48390007,,,583,3.177300036,-0.40199998,9.943800062
1.68301E+18,11.68140112,1.163399935,-0.836499989,1.562399983,,,,2.415899992,0.306899995,9.499400139,,,584,3.579299927,-0.529599994,11.06180012
1.68301E+18,11.70139966,1.217399955,-0.726399958,2.103399992,,,,2.352200031,0.236099988,9.517399788,,,585,3.569599986,-0.49029997,11.62079978
1.68301E+18,11.72139966,0.745700002,-0.276499987,1.315299988,,,,2.304100037,0.158799991,9.53069973,,,586,3.049800038,-0.117699996,10.84599972
1.68301E+18,11.74140112,0.330799997,-0.123199999,0.75150001,,,,2.287499905,0.093800001,9.535599709,,,587,2.618299901,-0.029399998,10.28709972
1.68301E+18,11.76139966,0.432099998,-0.672199965,2.532799959,,,,2.274399996,0.0348,9.539099693,,,588,2.706499994,-0.637399964,12.07189965
1.68301E+18,11.78139966,0.448799998,-0.737199962,3.841300011,,,,2.208699942,-0.047199998,9.554499626,,,589,2.657499939,-0.78439996,13.39579964
1.68301E+18,11.80139966,0.136500001,-0.038899999,2.613299847,,,,2.109099865,-0.127700001,9.576299667,,,590,2.245599866,-0.1666,12.18959951
1.68301E+18,11.82140112,0.386399984,0.339100003,1.023499966,,,,2.055399895,-0.172399998,9.587200165,,,591,2.441799879,0.166700006,10.61070013
1.68301E+18,11.84139966,1.855699897,0.175099999,1.034099936,,,,2.056999922,-0.194799989,9.586400032,,,592,3.912699819,-0.019699991,10.62049997
1.68301E+18,11.86139966,3.323499918,0.0222,2.177099943,,,,2.079900026,-0.218400002,9.580999374,,,593,5.403399944,-0.196200002,11.75809932
1.68301E+18,11.88140112,3.26699996,-0.0079,3.16989994,,,,2.08739996,-0.246999994,9.578700066,,,594,5.35439992,-0.254899994,12.74860001
1.68301E+18,11.90139966,1.370899916,0.118799999,2.49759984,,,,2.061399937,-0.256099999,9.58409977,,,595,3.432299852,-0.1373,12.08169961
1.68301E+18,11.92139966,-0.200599998,0.092,1.196499944,,,,2.034399986,-0.21949999,9.59070015,,,596,1.833799988,-0.12749999,10.78720009
1.68301E+18,11.94139966,-0.770699978,-0.15259999,-0.057499997,,,,2.045599937,-0.161200002,9.589499474,,,597,1.27489996,-0.313799992,9.531999476
1.68301E+18,11.96140112,-0.979399979,-0.343999982,-1.547500014,,,,2.09739995,-0.097199999,9.579199791,,,598,1.117999971,-0.441199981,8.031699777
1.68301E+18,11.98139966,-1.25759995,-0.379899979,-2.928799868,,,,2.149999857,-0.0319,9.567899704,,,599,0.892399907,-0.411799978,6.639099836
1.68301E+18,12.00139966,-1.272599936,-0.354399979,-3.541100025,,,,2.174799919,0.021,9.562399864,,,600,0.902199984,-0.333399979,6.021299839
1.68301E+18,12.02140112,-0.829299986,-0.155699998,-3.531599998,,,,2.172800064,0.047799997,9.562699318,,,601,1.343500078,-0.107900001,6.031099319
1.68301E+18,12.04140112,-0.420599997,0.0149,-3.405599833,,,,2.166199923,0.053599998,9.564199448,,,602,1.745599926,0.068499998,6.158599615
1.68301E+18,12.06139966,-0.359599978,0.129600003,-3.190399885,,,,2.164000034,0.046799999,9.564700127,,,603,1.804400057,0.176400002,6.374300241
1.68301E+18,12.08139966,-0.215299994,0.309300005,-3.013299942,,,,2.166800022,0.033799998,9.564099312,,,604,1.951500028,0.343100004,6.55079937
1.68301E+18,12.10139966,-0.057099998,0.356899977,-2.503700018,,,,2.165499926,0.015699999,9.564499855,,,605,2.108399928,0.372599976,7.060799837
1.68301E+18,12.12139966,-0.23089999,0.406199992,-1.947600007,,,,2.152999878,-0.0041,9.567299843,,,606,1.922099888,0.402099992,7.619699836
1.68301E+18,12.14139966,-0.590999961,0.505100012,-1.401199937,,,,2.140399933,-0.024599999,9.570099831,,,607,1.549399972,0.480500013,8.168899894
1.68301E+18,12.16139966,-0.680299997,0.575299978,-0.881099999,,,,2.141499996,-0.045699999,9.569799423,,,608,1.461199999,0.52959998,8.688699424
1.68301E+18,12.18140112,-0.712700009,0.531499982,-0.613399982,,,,2.154299974,-0.060799997,9.566800117,,,609,1.441599965,0.470699985,8.953400135
1.68301E+18,12.20139966,-0.605699956,0.509800017,-0.461599976,,,,2.174700022,-0.068499997,9.562199593,,,610,1.569000065,0.44130002,9.100599617
1.68301E+18,12.22139966,-0.325499982,0.430799991,0.159400001,,,,2.188799858,-0.077799998,9.558899879,,,611,1.863299876,0.352999993,9.718299881
1.68301E+18,12.24140112,0.055,0.424299985,1.169999957,,,,2.190599918,-0.090799995,9.558400154,,,612,2.245599918,0.33349999,10.72840011
1.68301E+18,12.26139966,0.405999988,0.508000016,2.05099988,,,,2.182899952,-0.105999999,9.559999466,,,613,2.58889994,0.402000017,11.61099935
1.68301E+18,12.28139966,0.471599996,0.568799973,2.522500038,,,,2.185899973,-0.117699996,9.559199333,,,614,2.657499969,0.451099977,12.08169937
1.68301E+18,12.30139966,0.396299988,0.681899965,2.187599897,,,,2.221999884,-0.1131,9.550899506,,,615,2.618299872,0.568799965,11.7384994
1.68301E+18,12.32140112,0.379999995,0.463099986,1.864299893,,,,2.306900024,-0.090499997,9.531000137,,,616,2.68690002,0.372599989,11.39530003
1.68301E+18,12.34139966,0.620299995,-0.0065,2.193500042,,,,2.409800053,-0.052199997,9.505700111,,,617,3.030100048,-0.058699997,11.69920015
1.68301E+18,12.36139966,0.710599959,-0.373099983,2.431399822,,,,2.496099949,-0.018999999,9.483599663,,,618,3.206699908,-0.392099982,11.91499949
1.68301E+18,12.38140112,0.283099979,-0.1219,1.333299994,,,,2.570600033,-0.0055,9.463699341,,,619,2.853700012,-0.1274,10.79699934
1.68301E+18,12.40139966,0.128700003,-0.115999997,0.775699973,,,,2.646499872,-0.0015,9.442699432,,,620,2.775199875,-0.117499997,10.21839941
1.68301E+18,12.42139966,0.863799989,-0.69690001,2.191999912,,,,2.695899963,-0.009099999,9.428699493,,,621,3.559699953,-0.70600001,11.62069941
1.68301E+18,12.44139966,1.770599961,-1.311200023,4.362299919,,,,2.671700001,-0.032199997,9.435599327,,,622,4.442299962,-1.34340002,13.79789925
1.68301E+18,12.46140112,1.768599987,-1.684399962,5.485799789,,,,2.585500002,-0.061099999,9.459400177,,,623,4.354099989,-1.745499961,14.94519997
1.68301E+18,12.48139966,1.339599967,-1.569000006,4.355999947,,,,2.504499912,-0.078400001,9.480999947,,,624,3.844099879,-1.647400007,13.83699989
1.68301E+18,12.50139966,0.993399978,-1.467199922,2.056799889,,,,2.487900019,-0.0625,9.485599518,,,625,3.481299996,-1.529699922,11.54239941
1.68301E+18,12.52140112,0.829999983,-1.276600003,-0.088599995,,,,2.533599854,-0.0374,9.473599434,,,626,3.363599837,-1.314000003,9.384999439
1.68301E+18,12.54140112,0.238999993,-0.841799974,-1.978899956,,,,2.614599943,-0.0211,9.451600075,,,627,2.853599936,-0.862899974,7.472700119
1.68301E+18,12.56139966,-1.169499993,-0.67049998,-3.000200033,,,,2.679699898,-0.006,9.433400154,,,628,1.510199904,-0.676499981,6.433200121
1.68301E+18,12.58139966,-2.273299932,-0.748600006,-3.437099934,,,,2.694999933,0.0131,9.428999901,,,629,0.421700001,-0.735500006,5.991899967
1.68301E+18,12.60139966,-2.664999962,-0.779799998,-3.557799816,,,,2.684599876,0.024699999,9.431900024,,,630,0.019599915,-0.755099999,5.874100208
1.68301E+18,12.62139966,-2.58130002,-0.655799985,-3.206199884,,,,2.679399967,0.018299999,9.433400154,,,631,0.098099947,-0.637499986,6.22720027
1.68301E+18,12.64139966,-2.242499828,-0.471399993,-2.511499882,,,,2.674000025,-0.009,9.434999466,,,632,0.431500196,-0.480399992,6.923499584
1.68301E+18,12.66139966,-1.748600006,-0.254500002,-1.789399981,,,,2.660699844,-0.049399998,9.438599586,,,633,0.912099838,-0.3039,7.649199605
1.68301E+18,12.68140112,-1.233399987,-0.218099996,-1.239899993,,,,2.625999928,-0.0858,9.44810009,,,634,1.39259994,-0.303899996,8.208200097
1.68301E+18,12.70139966,-0.896999955,-0.2104,-0.979299963,,,,2.573999882,-0.1131,9.462100029,,,635,1.676999927,-0.3235,8.482800066
1.68301E+18,12.72139966,-0.475199997,-0.248799995,-0.798799992,,,,2.514999866,-0.133499995,9.477700233,,,636,2.039799869,-0.382299989,8.678900242
1.68301E+18,12.74140112,-0.0037,-0.256500006,-0.68659997,,,,2.45539999,-0.155299991,9.493000031,,,637,2.45169999,-0.411799997,8.806400061
1.68301E+18,12.76139966,0.494800001,-0.203099996,-0.43599999,,,,2.398099899,-0.179199994,9.507199287,,,638,2.892899901,-0.382299989,9.071199298
1.68301E+18,12.78139966,0.943299949,0.0048,0.0016,,,,2.341899872,-0.210799992,9.520500183,,,639,3.285199821,-0.205999992,9.522100183
1.68301E+18,12.80139966,1.43809998,0.221000001,0.918899953,,,,2.278499842,-0.250400007,9.534899712,,,640,3.716599822,-0.029400006,10.45379966
1.68301E+18,12.82140112,1.943899989,0.310000002,2.08949995,,,,2.204200029,-0.300199986,9.550899506,,,641,4.148100019,0.009800017,11.64039946
1.68301E+18,12.84139966,2.032399893,0.460699975,2.681399822,,,,2.125499964,-0.352899998,9.566999435,,,642,4.157899857,0.107799977,12.24839926
1.68301E+18,12.86139966,1.842899919,0.685699999,2.237099886,,,,2.06009984,-0.391499996,9.579799652,,,643,3.902999759,0.294200003,11.81689954
1.68301E+18,12.88140112,1.787299991,0.527700007,1.92689991,,,,2.027400017,-0.409999996,9.585999489,,,644,3.814700007,0.117700011,11.5128994
1.68301E+18,12.90139966,1.91079998,0.073600002,2.845799923,,,,2.011699915,-0.416799992,9.588999748,,,645,3.922499895,-0.343199991,12.43479967
1.68301E+18,12.92139966,1.732299924,-0.104699999,3.858699799,,,,1.974499941,-0.434499979,9.595899582,,,646,3.706799865,-0.539199978,13.45459938
1.68301E+18,12.94139966,1.090399981,0.342899978,3.389999866,,,,1.929999948,-0.460599989,9.60379982,,,647,3.020399928,-0.117700011,12.99379969
1.68301E+18,12.96140112,0.442099988,0.795300007,1.552899957,,,,1.911299944,-0.471699983,9.606900215,,,648,2.353399932,0.323600024,11.15980017
1.68301E+18,12.98139966,0.921499968,0.862399995,-0.256099999,,,,1.941999912,-0.450499982,9.601799965,,,649,2.86349988,0.411900014,9.345699966
1.68301E+18,13.00139966,1.839999914,0.422099978,-0.084399998,,,,2.023699999,-0.402500004,9.587100029,,,650,3.863699913,0.019599974,9.502700031
1.68301E+18,13.02140112,2.650599957,-0.069699995,1.559399962,,,,2.105499983,-0.361699998,9.571100235,,,651,4.756099939,-0.431399994,11.1305002
1.68301E+18,13.04140112,1.426599979,-0.827799976,2.655099869,,,,2.14289999,-0.329299986,9.563899994,,,652,3.569499969,-1.157099962,12.21899986
1.68301E+18,13.06139966,-0.791499972,-1.251199961,1.46449995,,,,2.13499999,-0.259000003,9.567899704,,,653,1.343500018,-1.510199964,11.03239965
1.68301E+18,13.08139966,-2.020999908,-1.52489996,-0.193999991,,,,2.138700008,-0.161799997,9.569199562,,,654,0.1177001,-1.686699957,9.375199571
1.68301E+18,13.10139966,-1.8477,-1.343799949,-1.62469995,,,,2.190999985,-0.087899998,9.558300018,,,655,0.343299985,-1.431699947,7.933600068
1.68301E+18,13.12139966,-1.604099989,-1.100600004,-2.618700027,,,,2.261100054,-0.046699997,9.542200089,,,656,0.657000065,-1.147300001,6.923500061
1.68301E+18,13.14139966,-1.970699906,-1.028499961,-3.275399923,,,,2.304199934,-0.0207,9.531999588,,,657,0.333500028,-1.049199961,6.256599665
1.68301E+18,13.16139966,-2.188899994,-0.945499957,-3.510200024,,,,2.306499958,-0.0057,9.531499863,,,658,0.117599964,-0.951199956,6.021299839
1.68301E+18,13.18140112,-2.19659996,-0.796899974,-3.260399818,,,,2.28489995,-0.0071,9.536699295,,,659,0.08829999,-0.803999974,6.276299477
1.68301E+18,13.20139966,-1.982899904,-0.72240001,-2.786399841,,,,2.257499933,-0.022799999,9.543199539,,,660,0.274600029,-0.745200008,6.756799698
1.68301E+18,13.22139966,-1.420499921,-0.529699981,-2.536799908,,,,2.234400034,-0.048799999,9.548500061,,,661,0.813900113,-0.57849998,7.011700153
1.68301E+18,13.24140112,-0.769899964,-0.336699992,-2.100499868,,,,2.211499929,-0.084899999,9.553599358,,,662,1.441599965,-0.421599992,7.453099489
1.68301E+18,13.26139966,-0.330799997,-0.1118,-1.539699912,,,,2.174399853,-0.13319999,9.561599731,,,663,1.843599856,-0.24499999,8.021899819
1.68301E+18,13.28139966,-0.0579,0.247699991,-1.117900014,,,,2.127099991,-0.188899994,9.571299553,,,664,2.06919999,0.058799997,8.453399539
1.68301E+18,13.30139966,0.0105,0.648599982,-1.056599975,,,,2.088000059,-0.2465,9.578499794,,,665,2.098500059,0.402099982,8.521899819
1.68301E+18,13.32140112,-0.101599999,0.941699982,-1.078199983,,,,2.072700024,-0.294400007,9.580499649,,,666,1.971100025,0.647299975,8.502299666
1.68301E+18,13.34139966,0.003,1.016799927,-0.831099987,,,,2.075999975,-0.330300003,9.57859993,,,667,2.078999975,0.686499923,8.747499943
1.68301E+18,13.36139966,0.1928,0.915600002,-0.240399987,,,,2.08220005,-0.356700003,9.576299667,,,668,2.275000051,0.558899999,9.335899681
1.68301E+18,13.38140112,0.358399987,0.8398,0.584299982,,,,2.083299875,-0.378899992,9.575200081,,,669,2.441699862,0.460900009,10.15950006
1.68301E+18,13.40139966,0.538800001,0.91079998,1.398399949,,,,2.07949996,-0.40079999,9.575200081,,,670,2.618299961,0.50999999,10.97360003
1.68301E+18,13.42139966,0.735399961,1.000800014,2.13470006,,,,2.078999996,-0.422199994,9.574399948,,,671,2.814399958,0.578600019,11.70910001
1.68301E+18,13.44139966,0.808600008,1.12559998,2.550600052,,,,2.093999863,-0.439199984,9.570300102,,,672,2.902599871,0.686399996,12.12090015
1.68301E+18,13.46140112,0.96359998,1.121199965,3.010999918,,,,2.135200024,-0.444499999,9.56099987,,,673,3.098800004,0.676699966,12.57199979
1.68301E+18,13.48139966,1.171299934,0.686499953,3.651000023,,,,2.192299843,-0.431599975,9.548600197,,,674,3.363599777,0.254899979,13.19960022
1.68301E+18,13.50139966,1.287799954,0.267800003,3.90899992,,,,2.252300024,-0.405000001,9.53579998,,,675,3.540099978,-0.137199998,13.4447999
1.68301E+18,13.52139966,1.050499916,0.194899991,3.189399958,,,,2.322900057,-0.381199986,9.519899368,,,676,3.373399973,-0.186299995,12.70929933
1.68301E+18,13.54140112,0.405599982,0.43779999,1.530599952,,,,2.398999929,-0.359400004,9.501799583,,,677,2.804599911,0.078399986,11.03239954
1.68301E+18,13.56139966,0.218999997,0.267199993,0.765399992,,,,2.477699995,-0.335799992,9.482500076,,,678,2.696699992,-0.068599999,10.24790007
1.68301E+18,13.58140283,0.857599974,-0.512099981,2.039599895,,,,2.515799999,-0.311499983,9.47329998,,,679,3.373399973,-0.823599964,11.51289988
1.68301E+18,13.60139966,1.882399917,-1.121999979,3.994099855,,,,2.49119997,-0.299899995,9.480099678,,,680,4.373599887,-1.421899974,13.47419953
1.68301E+18,13.62139966,1.781499982,-1.260900021,4.781099796,,,,2.425400019,-0.298299998,9.497200012,,,681,4.206900001,-1.559200019,14.27829981
1.68301E+18,13.64139966,0.959199965,-1.110700011,3.238399982,,,,2.375,-0.291599989,9.510199547,,,682,3.334199965,-1.4023,12.74859953
1.68301E+18,13.66139966,0.030099999,-0.914599955,0.613099992,,,,2.39199996,-0.242499992,9.507299423,,,683,2.422099959,-1.157099947,10.12039942
1.68301E+18,13.68140112,-0.424299985,-0.882399976,-1.387499928,,,,2.473899841,-0.176599994,9.487799644,,,684,2.049599856,-1.058999971,8.100299716
1.68301E+18,13.70139966,-0.908599973,-0.982299984,-2.488999844,,,,2.575799942,-0.115899995,9.46159935,,,685,1.667199969,-1.098199978,6.972599506
1.68301E+18,13.72139966,-1.76669991,-1.301399946,-3.187899828,,,,2.639499903,-0.051799998,9.444499969,,,686,0.872799993,-1.353199944,6.256600142
1.68301E+18,13.74140112,-2.556299925,-1.515100002,-3.60559988,,,,2.654299974,0.014699999,9.440499306,,,687,0.09800005,-1.500400003,5.834899426
1.68301E+18,13.76139966,-2.66809988,-1.418200016,-3.570499897,,,,2.638700008,0.064899996,9.444699287,,,688,-0.029399872,-1.35330002,5.87419939
1.68301E+18,13.78139966,-2.164199829,-1.144500017,-3.164999962,,,,2.61529994,0.0854,9.451000214,,,689,0.451100111,-1.059100017,6.286000252
1.68301E+18,13.80139966,-1.475199938,-0.849299967,-2.543499947,,,,2.593199968,0.084399998,9.457099915,,,690,1.118000031,-0.764899969,6.913599968
1.68301E+18,13.82140112,-0.941399992,-0.67809999,-1.964299917,,,,2.559499979,0.079899997,9.466400146,,,691,1.618099988,-0.598199993,7.502100229
1.68301E+18,13.84139966,-0.599799991,-0.739099979,-1.496399999,,,,2.512099981,0.081999995,9.479000092,,,692,1.912299991,-0.657099985,7.982600093
1.68301E+18,13.86139966,-0.365999997,-0.698300004,-1.263599992,,,,2.464599848,0.090300001,9.491399765,,,693,2.098599851,-0.608000003,8.227799773
1.68301E+18,13.88140112,-0.160599992,-0.635899961,-0.969500005,,,,2.425899982,0.096499994,9.501299858,,,694,2.265299991,-0.539399967,8.531799853
1.68301E+18,13.90139966,0.036399998,-0.449799985,-0.781099975,,,,2.395499945,0.096699998,9.508999825,,,695,2.431899942,-0.353099987,8.727899849
1.68301E+18,13.92139966,0.202299997,-0.369599998,-0.543099999,,,,2.366899967,0.094999999,9.516200066,,,696,2.569199964,-0.274599999,8.973100066
1.68301E+18,13.94139966,0.452799976,-0.483599991,0.242499992,,,,2.33220005,0.091399997,9.524799347,,,697,2.785000026,-0.392199993,9.767299339
1.68301E+18,13.96140112,1.075699925,-0.529599965,1.51639998,,,,2.287899971,0.078499995,9.535599709,,,698,3.363599896,-0.451099969,11.05199969
1.68301E+18,13.98139966,1.708899975,-0.638099968,2.817299843,,,,2.233299971,0.049699999,9.548799515,,,699,3.942199945,-0.588399969,12.36609936
1.68301E+18,14.00139966,1.848999977,-0.562999964,2.766000032,,,,2.181400061,0.0138,9.560899734,,,700,4.030400038,-0.549199964,12.32689977
1.68301E+18,14.02139966,1.387300014,-0.274399996,1.516299963,,,,2.16260004,-0.0099,9.565199852,,,701,3.549900055,-0.284299996,11.08149981
1.68301E+18,14.04139966,1.299700022,-0.541700006,2.008699894,,,,2.171700001,-0.026899999,9.563099861,,,702,3.471400023,-0.568600005,11.57179976
1.68301E+18,14.06139966,1.241299987,-0.883599997,4.112800121,,,,2.15170002,-0.067499995,9.567399979,,,703,3.393000007,-0.951099992,13.6802001
1.68301E+18,14.08139966,0.923799992,-0.375,4.401199818,,,,2.076999903,-0.144699991,9.583000183,,,704,3.000799894,-0.519699991,13.9842
1.68301E+18,14.10139966,0.0039,0.599099994,2.308500051,,,,2.006299973,-0.216699988,9.596699715,,,705,2.010199972,0.382400006,11.90519977
1.68301E+18,14.12139966,-0.300500005,1.066900015,-0.310900003,,,,1.996999979,-0.252999991,9.597799301,,,706,1.696499974,0.813900024,9.286899298
1.68301E+18,14.14139966,0.758399963,0.969199955,-1.180999994,,,,2.055999994,-0.253299981,9.585299492,,,707,2.814399958,0.715899974,8.404299498
1.68301E+18,14.16139966,1.752200007,0.2949,-0.031799998,,,,2.111500025,-0.236099988,9.573699951,,,708,3.863700032,0.058800012,9.541899953
1.68301E+18,14.18140112,1.825199962,-0.394299984,1.530200005,,,,2.12680006,-0.213699996,9.570799828,,,709,3.952000022,-0.60799998,11.10099983
1.68301E+18,14.20139966,0.570599973,-0.799999952,1.805199981,,,,2.086899996,-0.180600002,9.580299377,,,710,2.657499969,-0.980599955,11.38549936
1.68301E+18,14.22139966,-0.41869998,-0.941100001,0.650299966,,,,2.056400061,-0.127700001,9.58769989,,,711,1.637700081,-1.068800002,10.23799986
1.68301E+18,14.24140112,-0.267499983,-1.082299948,-0.511699975,,,,2.081699848,-0.0748,9.582799911,,,712,1.814199865,-1.157099947,9.071099937
1.68301E+18,14.26139966,0.0548,-0.878899992,-1.508700013,,,,2.141799927,-0.042799998,9.569699287,,,713,2.196599927,-0.92169999,8.060999274
1.68301E+18,14.28139966,-0.289199978,-0.629799962,-2.350600004,,,,2.191699982,-0.027099999,9.558499336,,,714,1.902500004,-0.656899961,7.207899332
1.68301E+18,14.30139966,-0.876299977,-0.42839998,-2.719099998,,,,2.210000038,-0.022599999,9.554299355,,,715,1.333700061,-0.450999979,6.835199356
1.68301E+18,14.32140112,-1.040300012,-0.273699999,-2.641199827,,,,2.207299948,-0.030199999,9.554900169,,,716,1.166999936,-0.303899998,6.913700342
1.68301E+18,14.34139966,-0.916099966,-0.1928,-2.895399809,,,,2.210599899,-0.042399999,9.554100037,,,717,1.294499934,-0.235199999,6.658700228
1.68301E+18,14.36139966,-0.522199988,-0.135399997,-2.903199911,,,,2.218699932,-0.060599998,9.552100182,,,718,1.696499944,-0.195999995,6.64890027
1.68301E+18,14.38140112,-0.213100001,-0.015099999,-2.590299845,,,,2.21359992,-0.092699997,9.552999496,,,719,2.000499919,-0.107799997,6.962699652
1.68301E+18,14.40139966,-0.092500001,0.183299989,-2.190700054,,,,2.200999975,-0.134299994,9.555500031,,,720,2.108499974,0.048999995,7.364799976
1.68301E+18,14.42139966,-0.0854,0.395199984,-2.005300045,,,,2.193799973,-0.179499999,9.556399345,,,721,2.108399972,0.215699986,7.5510993
1.68301E+18,14.44139966,-0.093499996,0.559700012,-1.641799927,,,,2.192100048,-0.226300001,9.555799484,,,722,2.098600052,0.333400011,7.913999557
1.68301E+18,14.46140112,-0.0126,0.773799956,-1.180199981,,,,2.189599991,-0.273699999,9.555099487,,,723,2.176999991,0.500099957,8.374899507
1.68301E+18,14.48139966,-0.0832,1.011600018,-0.874499977,,,,2.191599846,-0.315299988,9.55340004,,,724,2.108399846,0.69630003,8.678900063
1.68301E+18,14.50139966,-0.073199995,1.172799945,-0.439599991,,,,2.201200008,-0.349099994,9.550000191,,,725,2.128000014,0.823699951,9.1104002
1.68301E+18,14.52139966,0.059999999,1.190500021,0.339299977,,,,2.214999914,-0.376499981,9.545700073,,,726,2.274999913,0.81400004,9.88500005
1.68301E+18,14.54140112,0.199099988,1.211499929,1.118999958,,,,2.232800007,-0.397499979,9.540699959,,,727,2.431899995,0.813999951,10.65969992
1.68301E+18,14.56139966,0.298700005,1.291299939,1.849399924,,,,2.25090003,-0.408699989,9.535999298,,,728,2.549600035,0.88259995,11.38539922
1.68301E+18,14.58139966,0.3838,1.36589992,2.541499853,,,,2.273699999,-0.414599985,9.530399323,,,729,2.657499999,0.951299936,12.07189918
1.68301E+18,14.60139966,0.302100003,1.411399961,2.997999907,,,,2.296499968,-0.411199987,9.524999619,,,730,2.59859997,1.000199974,12.52299953
1.68301E+18,14.62139966,0.126299992,1.361199975,3.151199818,,,,2.325199842,-0.390299976,9.518899918,,,731,2.451499835,0.970899999,12.67009974
1.68301E+18,14.64139966,0.188899994,0.996499956,3.25880003,,,,2.370599985,-0.349299997,9.509300232,,,732,2.559499979,0.647199959,12.76810026
1.68301E+18,14.66139966,0.543599963,0.416699976,3.39139986,,,,2.4375,-0.289299995,9.494400024,,,733,2.981099963,0.127399981,12.88579988
1.68301E+18,14.68140112,0.527899981,0.311199993,2.634599924,,,,2.511999846,-0.232799992,9.476499557,,,734,3.039899826,0.078400001,12.11109948
1.68301E+18,14.70139966,-0.056399997,0.458799988,1.33949995,,,,2.586499929,-0.184199989,9.45759964,,,735,2.530099932,0.274599999,10.79709959
1.68301E+18,14.72139966,-0.323799998,0.449799985,0.433799982,,,,2.647899866,-0.135999992,9.441399574,,,736,2.324099869,0.313799992,9.875199556
1.68301E+18,14.74140112,0.167199999,-0.057,0.96389997,,,,2.686399937,-0.089999996,9.430999756,,,737,2.853599936,-0.146999996,10.39489973
1.68301E+18,14.76139966,0.937399983,-0.844199955,2.528399944,,,,2.671399832,-0.048099998,9.435599327,,,738,3.608799815,-0.892299954,11.96399927
1.68301E+18,14.78139966,1.404500008,-1.436200023,4.069399834,,,,2.606299877,-0.015099999,9.453899384,,,739,4.010799885,-1.451300022,13.52329922
1.68301E+18,14.80139966,1.30250001,-1.620099902,4.095600128,,,,2.521999836,0.0118,9.476699829,,,740,3.824499846,-1.608299903,13.57229996
1.68301E+18,14.82140112,0.872299969,-1.559700012,2.562399864,,,,2.471699953,0.0495,9.489899635,,,741,3.343999922,-1.510200012,12.0522995
1.68301E+18,14.84139966,0.459499985,-1.396799922,0.202299997,,,,2.48239994,0.112199999,9.486499786,,,742,2.941899925,-1.284599923,9.688799784
1.68301E+18,14.86140112,0.244199991,-1.324000001,-1.835199952,,,,2.560400009,0.176699996,9.464799881,,,743,2.8046,-1.147300005,7.629599929
1.68301E+18,14.88139966,-0.361000001,-1.384699941,-3.200099945,,,,2.655799866,0.237299994,9.437099457,,,744,2.294799864,-1.147399947,6.236999512
1.68301E+18,14.90139966,-1.124899983,-1.566900015,-3.83920002,,,,2.71359992,0.292099983,9.419199944,,,745,1.588699937,-1.274800032,5.579999924
1.68301E+18,14.92139966,-1.810799956,-1.700299978,-3.847999811,,,,2.712999821,0.327399999,9.418199539,,,746,0.902199864,-1.372899979,5.570199728
1.68301E+18,14.94139966,-2.147599936,-1.651299953,-3.563699961,,,,2.677199841,0.337199986,9.427999496,,,747,0.529599905,-1.314099967,5.864299536
1.68301E+18,14.96139966,-1.961299896,-1.306399941,-3.114499807,,,,2.638000011,0.315899998,9.439799309,,,748,0.676700115,-0.990499943,6.325299501
1.68301E+18,14.98139966,-1.275900006,-1.011099935,-2.459800005,,,,2.599799871,0.265799999,9.451999664,,,749,1.323899865,-0.745299935,6.992199659
1.68301E+18,15.00139966,-0.653699994,-0.70419997,-1.877699971,,,,2.546399832,0.204099998,9.467999458,,,750,1.892699838,-0.500099972,7.590299487
1.68301E+18,15.02139966,-0.16839999,-0.483099997,-1.388299942,,,,2.47300005,0.139899999,9.488599777,,,751,2.30460006,-0.343199998,8.100299835
1.68301E+18,15.04139966,0.202799991,-0.234899998,-1.163599968,,,,2.395900011,0.078000002,9.50909996,,,752,2.598700002,-0.156899996,8.345499992
1.68301E+18,15.06139966,0.291599989,-0.121799998,-0.857499957,,,,2.326699972,0.023799999,9.526499748,,,753,2.618299961,-0.097999999,8.668999791
1.68301E+18,15.08139966,0.335799992,-0.047799997,-0.353100002,,,,2.262799978,-0.0208,9.541899681,,,754,2.59859997,-0.068599997,9.188799679
1.68301E+18,15.10139966,0.59709996,0.032099999,0.504599988,,,,2.197700024,-0.061499998,9.55700016,,,755,2.794799984,-0.029399998,10.06160015
1.68301E+18,15.12139966,1.001199961,0.030099999,1.498999953,,,,2.126999855,-0.098699994,9.572599411,,,756,3.128199816,-0.068599995,11.07159936
1.68301E+18,15.14139966,1.523899913,0.052099999,2.111399889,,,,2.055500031,-0.13059999,9.587900162,,,757,3.579399943,-0.078499991,11.69930005
1.68301E+18,15.16139966,1.944700003,0.155100003,2.197599888,,,,1.997499943,-0.155100003,9.599699974,,,758,3.942199945,0,11.79729986
1.68301E+18,15.18139966,1.980999947,0.315699995,1.574499965,,,,1.970999956,-0.168599993,9.604999542,,,759,3.951999903,0.147100002,11.17949951
1.68301E+18,15.20139966,1.763799906,0.221199989,1.449399948,,,,1.982199907,-0.172199994,9.602600098,,,760,3.745999813,0.048999995,11.05200005
1.68301E+18,15.22139966,1.569700003,0.044099998,2.588699818,,,,1.990099907,-0.181400001,9.600799561,,,761,3.55979991,-0.137300003,12.18949938
1.68301E+18,15.24139966,1.264699936,0.209600002,2.94630003,,,,1.961599946,-0.209600002,9.606100082,,,762,3.226299882,0,12.55240011
1.68301E+18,15.26139966,0.175399989,0.727199972,1.872200012,,,,1.932899952,-0.2368,9.611299515,,,763,2.108299941,0.490399972,11.48349953
1.68301E+18,15.28139966,-0.606999993,1.011399984,0.646200001,,,,1.930899978,-0.2465,9.611499786,,,764,1.323899984,0.764899984,10.25769979
1.68301E+18,15.30139966,0.238399997,0.755299985,0.082699999,,,,1.958199978,-0.235499993,9.606200218,,,765,2.196599975,0.519799992,9.688900217
1.68301E+18,15.32139966,1.770499945,0.297499985,0.717299998,,,,1.995099902,-0.209199995,9.599199295,,,766,3.765599847,0.08829999,10.31649929
1.68301E+18,15.34139966,2.937599897,-0.0392,2.105700016,,,,2.024399996,-0.186199993,9.593599319,,,767,4.961999893,-0.225399993,11.69929934
1.68301E+18,15.36139966,2.492899895,-0.308200002,2.588799953,,,,2.037699938,-0.172199994,9.590999603,,,768,4.530599833,-0.480399996,12.17979956
1.68301E+18,15.38139966,0.879199982,-0.394499987,1.502900004,,,,2.052899837,-0.13499999,9.588399887,,,769,2.932099819,-0.529499978,11.09129989
1.68301E+18,15.40139966,-0.153499991,-0.744399965,0.481599987,,,,2.095200062,-0.069399998,9.579899788,,,770,1.941700071,-0.813799962,10.06149977
1.68301E+18,15.42139966,-0.759000003,-0.873699963,-0.700199962,,,,2.161299944,-0.0088,9.565499306,,,771,1.402299941,-0.882499963,8.865299344
1.68301E+18,15.44139966,-1.362200022,-0.690800011,-1.940699935,,,,2.225199938,0.043499999,9.550700188,,,772,0.862999916,-0.647300012,7.610000253
1.68301E+18,15.46139966,-1.702899933,-0.451999992,-2.638000011,,,,2.261899948,0.079300001,9.541799545,,,773,0.559000015,-0.372699991,6.903799534
1.68301E+18,15.48139966,-1.515699983,-0.253899992,-2.677199841,,,,2.260999918,0.096999995,9.541899681,,,774,0.745299935,-0.156899996,6.864699841
1.68301E+18,15.50140112,-1.254599929,-0.153699994,-2.631899834,,,,2.245100021,0.104599997,9.545599937,,,775,0.990500093,-0.049099997,6.913700104
1.68301E+18,15.52139966,-1.036999941,-0.1822,-2.828299999,,,,2.243299961,0.113600001,9.545899391,,,776,1.20630002,-0.068599999,6.717599392
1.68301E+18,15.54140112,-0.724099994,-0.258100003,-3.012099981,,,,2.253999949,0.120899998,9.543299675,,,777,1.529899955,-0.137200005,6.531199694
1.68301E+18,15.56139966,-0.261799991,-0.19659999,-2.843400002,,,,2.262399912,0.118199997,9.54129982,,,778,2.000599921,-0.078399993,6.697899818
1.68301E+18,15.58139966,0.007,-0.051199999,-2.47939992,,,,2.267999887,0.100199997,9.540200233,,,779,2.274999887,0.048999999,7.060800314
1.68301E+18,15.60140112,-0.109399997,0.202899992,-1.764099956,,,,2.266799927,0.071599998,9.540699959,,,780,2.15739993,0.27449999,7.776600003
1.68301E+18,15.62139966,-0.320499986,0.511299968,-1.167099953,,,,2.262199879,0.037699997,9.541999817,,,781,1.941699892,0.548999965,8.374899864
1.68301E+18,15.64139966,-0.467500001,0.733900011,-0.745599985,,,,2.262099981,0.011299999,9.542099953,,,782,1.79459998,0.74520001,8.796499968
1.68301E+18,15.66139966,-0.593299985,0.827499986,-0.255600005,,,,2.260499954,-0.0037,9.542499542,,,783,1.667199969,0.823799986,9.286899537
1.68301E+18,15.68140112,-0.587799966,0.699400008,0.235599995,,,,2.264699936,-0.0031,9.541500092,,,784,1.67689997,0.696300008,9.777100086
1.68301E+18,15.70139966,-0.286899984,0.392999977,0.878499985,,,,2.287499905,0.0089,9.536099434,,,785,2.000599921,0.401899977,10.41459942
1.68301E+18,15.72139966,0.170299992,0.129999995,1.796099901,,,,2.31069994,0.016999999,9.530499458,,,786,2.480999932,0.146999994,11.32659936
1.68301E+18,15.74140283,0.346799999,0.0339,2.445799828,,,,2.320499897,0.015099999,9.528100014,,,787,2.667299896,0.049,11.97389984
1.68301E+18,15.76139966,0.314899981,0.255400002,2.458499908,,,,2.332799911,0.0092,9.525099754,,,788,2.647699893,0.264600002,11.98359966
1.68301E+18,15.78139966,0.452899992,0.224399999,2.661799908,,,,2.361500025,0.0011,9.517999649,,,789,2.814400017,0.225499999,12.17979956
1.68301E+18,15.80139966,0.814099967,-0.15259999,3.331499815,,,,2.412199974,0.0055,9.505299568,,,790,3.226299942,-0.14709999,12.83679938
1.68301E+18,15.82140112,1.006199956,-0.218699992,3.278999805,,,,2.474999905,0.003,9.489099503,,,791,3.481199861,-0.215699992,12.76809931
1.68301E+18,15.84139966,0.427100003,-0.043099999,2.378200054,,,,2.553999901,-0.0058,9.46819973,,,792,2.981099904,-0.048899999,11.84639978
1.68301E+18,15.86139966,-0.202699989,0.122699998,1.531899929,,,,2.615099907,-0.0148,9.451499939,,,793,2.412399918,0.107899998,10.98339987
1.68301E+18,15.88140112,-0.048299998,-0.022399999,1.521199942,,,,2.647099972,-0.0266,9.442500114,,,794,2.598799974,-0.048999999,10.96370006
1.68301E+18,15.90139966,0.706999958,-0.584399998,2.90109992,,,,2.636999846,-0.033299997,9.445300102,,,795,3.343999803,-0.617699996,12.34640002
1.68301E+18,15.92139966,1.307299972,-1.054899931,4.541699886,,,,2.576099873,-0.043299999,9.462100029,,,796,3.883399844,-1.09819993,14.00379992
1.68301E+18,15.94139966,1.241099954,-1.172699928,4.762700081,,,,2.485399961,-0.052999999,9.486299515,,,797,3.726499915,-1.225699928,14.2489996
1.68301E+18,15.96140112,0.952999949,-1.104799986,3.130299807,,,,2.430199862,-0.0425,9.500599861,,,798,3.383199811,-1.147299986,12.63089967
1.68301E+18,15.98139966,0.50150001,-1.024199963,0.916499972,,,,2.440399885,0.0142,9.498099327,,,799,2.941899896,-1.009999963,10.4145993
1.68301E+18,16.00139966,0.273200005,-1.064899921,-0.753799975,,,,2.501899958,0.084199995,9.481699944,,,800,2.775099963,-0.980699927,8.727899969
1.68301E+18,16.02139966,-0.437899977,-1.216499925,-2.027499914,,,,2.575799942,0.157299995,9.460999489,,,801,2.137899965,-1.059199929,7.433499575
1.68301E+18,16.04140112,-1.487499952,-1.298299909,-2.94389987,,,,2.625,0.239099994,9.445699692,,,802,1.137500048,-1.059199914,6.501799822
1.68301E+18,16.06139966,-2.065599918,-1.254699945,-3.262699842,,,,2.634399891,0.313299984,9.440899849,,,803,0.568799973,-0.941399962,6.178200006
1.68301E+18,16.08139966,-2.032500029,-1.323499918,-3.176499844,,,,2.620899916,0.362399995,9.442899704,,,804,0.588399887,-0.961099923,6.26639986
1.68301E+18,16.10140112,-1.875399947,-1.391499996,-3.511099815,,,,2.610899925,0.400999993,9.444099426,,,805,0.735499978,-0.990500003,5.932999611
1.68301E+18,16.12139966,-1.287599921,-1.304099917,-3.362999916,,,,2.611500025,0.421499997,9.443099976,,,806,1.323900104,-0.88259992,6.08010006
1.68301E+18,16.14140283,-0.733599961,-1.090999961,-2.710299969,,,,2.59679985,0.414299995,9.447400093,,,807,1.86319989,-0.676699966,6.737100124
1.68301E+18,16.16140283,-0.246899992,-0.911599994,-1.801699996,,,,2.551499844,0.391799986,9.460700035,,,808,2.304599851,-0.519800007,7.659000039
1.68301E+18,16.18140283,0.171299994,-0.637299955,-1.055299997,,,,2.486199856,0.362699986,9.479299545,,,809,2.65749985,-0.274599969,8.423999548
1.68301E+18,16.20139966,0.412499994,-0.323300004,-0.798599958,,,,2.421499968,0.333099991,9.497099876,,,810,2.833999962,0.009799987,8.698499918
1.68301E+18,16.22139966,0.496299982,-0.157799989,-0.888899982,,,,2.376999855,0.314699978,9.508999825,,,811,2.873299837,0.156899989,8.620099843
1.68301E+18,16.24140283,0.649999976,-0.029999999,-0.797699988,,,,2.350699902,0.3046,9.515799522,,,812,3.000699878,0.274600001,8.718099535
1.68301E+18,16.26140283,0.920699954,0.059,-0.245299995,,,,2.325199842,0.293899983,9.522399902,,,813,3.245899796,0.352899984,9.277099907
1.68301E+18,16.28139966,1.214299917,0.0005,1.019500017,,,,2.286599874,0.273999989,9.532400131,,,814,3.500899792,0.274499989,10.55190015
1.68301E+18,16.30139966,1.487900019,0.0002,2.240700006,,,,2.228699923,0.244799986,9.54679966,,,815,3.716599941,0.244999986,11.78749967
1.68301E+18,16.32140283,1.459399939,0.128600001,2.645699978,,,,2.159199953,0.214499995,9.563499451,,,816,3.618599892,0.343099996,12.20919943
1.68301E+18,16.34140283,1.297500014,0.455899984,2.044699907,,,,2.10529995,0.191199988,9.576000214,,,817,3.402799964,0.647099972,11.62070012
1.68301E+18,16.36139966,1.301800013,0.273000002,1.904099941,,,,2.091199875,0.177999988,9.579400063,,,818,3.392999887,0.45099999,11.4835
1.68301E+18,16.38140283,1.596899986,-0.26699999,2.798300028,,,,2.10010004,0.169,9.577599525,,,819,3.697000027,-0.09799999,12.37589955
1.68301E+18,16.40140283,1.813399911,-0.192099988,3.293399811,,,,2.079799891,0.133299991,9.58259964,,,820,3.893199801,-0.058799997,12.87599945
1.68301E+18,16.42140283,1.481299996,0.2104,3.205600023,,,,2.039200068,0.073899999,9.591899872,,,821,3.520500064,0.284299999,12.7974999
1.68301E+18,16.44139966,0.846899986,0.936800003,1.707899928,,,,2.006700039,0.0144,9.599100113,,,822,2.853600025,0.951200003,11.30700004
1.68301E+18,16.46140112,0.674399972,1.33039999,-0.0049,,,,2.022399902,-0.026099999,9.595799446,,,823,2.696799874,1.304299992,9.590899446
1.68301E+18,16.48139966,1.295899987,1.108199954,-0.17719999,,,,2.087300062,-0.039299998,9.581799507,,,824,3.383200049,1.068899956,9.404599518
1.68301E+18,16.50139966,1.49849999,0.344799995,1.138499975,,,,2.139600039,-0.040799998,9.570199966,,,825,3.638100028,0.303999998,10.70869994
1.68301E+18,16.52139966,0.380899996,-0.101499997,1.778100014,,,,2.149099827,-0.035700001,9.568099976,,,826,2.529999822,-0.137199998,11.34619999
1.68301E+18,16.54140112,-1.090799928,-0.136099994,1.183200002,,,,2.120499849,-0.0109,9.57460022,,,827,1.029699922,-0.146999994,10.75780022
1.68301E+18,16.56139966,-1.812399983,-0.296200007,0.354299992,,,,2.09679985,0.031500001,9.579799652,,,828,0.284399867,-0.264700007,9.934099644
1.68301E+18,16.58140283,-1.3125,-0.315799981,-0.670699954,,,,2.116699934,0.080399998,9.575099945,,,829,0.804199934,-0.235399984,8.904399991
1.68301E+18,16.60139966,-0.89319998,-0.456499994,-1.550999999,,,,2.167999983,0.1329,9.562999725,,,830,1.274800003,-0.323599994,8.011999726
1.68301E+18,16.62139966,-0.862899959,-0.6523,-2.264600039,,,,2.216199875,0.191399992,9.550999641,,,831,1.353299916,-0.460900009,7.286399603
1.68301E+18,16.64140283,-1.007300019,-0.798599958,-2.698299885,,,,2.242899895,0.24939999,9.543399811,,,832,1.235599875,-0.549199969,6.845099926
1.68301E+18,16.66140283,-1.109200001,-0.869699955,-2.79399991,,,,2.246799946,0.300899982,9.540999413,,,833,1.137599945,-0.568799973,6.746999502
1.68301E+18,16.68140283,-1.040099978,-0.836199999,-2.832199812,,,,2.246299982,0.335999995,9.539899826,,,834,1.206200004,-0.500200003,6.707700014
1.68301E+18,16.70139966,-0.826699972,-0.710399985,-2.840699911,,,,2.248699903,0.3574,9.538599968,,,835,1.421999931,-0.352999985,6.697900057
1.68301E+18,16.72139966,-0.347499996,-0.511200011,-2.575299978,,,,2.25,0.364099979,9.538000107,,,836,1.902500004,-0.147100031,6.962700129
1.68301E+18,16.74140112,-0.198200002,-0.356899977,-2.183799982,,,,2.247799873,0.356899977,9.538799286,,,837,2.049599871,0,7.354999304
1.68301E+18,16.76139966,-0.097199999,-0.086899996,-1.763399959,,,,2.244799852,0.341899991,9.540100098,,,838,2.147599854,0.254999995,7.776700139
1.68301E+18,16.78139966,-0.224399999,0.109099999,-1.430699944,,,,2.244600058,0.322299987,9.540800095,,,839,2.020200059,0.431399986,8.11010015
1.68301E+18,16.80139966,-0.412099987,0.232299998,-1.107299924,,,,2.245899916,0.306999981,9.540999413,,,840,1.833799928,0.53929998,8.433699489
1.68301E+18,16.82140112,-0.494299978,0.305700004,-0.70480001,,,,2.249699831,0.292400002,9.540599823,,,841,1.755399853,0.598100007,8.835799813
1.68301E+18,16.84139966,-0.5176,0.386199981,-0.292400002,,,,2.253399849,0.280599982,9.540100098,,,842,1.735799849,0.666799963,9.247700095
1.68301E+18,16.86139966,-0.40109998,0.414099991,0.266499996,,,,2.254600048,0.272300005,9.539999962,,,843,1.853500068,0.686399996,9.806499958
1.68301E+18,16.8814043,-0.187199995,0.456,1.041299939,,,,2.25639987,0.259799987,9.539899826,,,844,2.069199875,0.715799987,10.58119977
1.68301E+18,16.90139966,0.204999998,0.809399962,1.795899987,,,,2.25639987,0.239799991,9.540499687,,,845,2.461399868,1.049199954,11.33639967
1.68301E+18,16.92139966,0.43809998,1.067700028,2.629499912,,,,2.258699894,0.216899991,9.540499687,,,846,2.696799874,1.284600019,12.1699996
1.68301E+18,16.94139966,0.119999997,1.189599991,2.897500038,,,,2.272699833,0.212599993,9.537199974,,,847,2.39269983,1.402199984,12.43470001
1.68301E+18,16.96140112,-0.337300003,0.843499959,2.796599865,,,,2.298599958,0.244899988,9.53030014,,,848,1.961299956,1.088399947,12.32690001
1.68301E+18,16.98139966,-0.2764,0.019399999,2.83949995,,,,2.34559989,0.313899994,9.516799927,,,849,2.06919989,0.333299993,12.35629988
1.68301E+18,17.00139966,0.0154,-0.740399957,3.252300024,,,,2.416599989,0.387400001,9.496299744,,,850,2.431999989,-0.352999955,12.74859977
1.68301E+18,17.02139966,-0.125399992,-0.765100002,2.500699997,,,,2.498600006,0.431599975,9.473099709,,,851,2.373200014,-0.333500028,11.97379971
