time,seconds_elapsed,z,y,x
1682997779449322000,0.038322021484375,0.3360999822616577,-0.0340999998152256,-0.07099999487400055
1682997779469328400,0.058328369140625,0.3360999822616577,-0.0340999998152256,-0.07099999487400055
1682997779489322000,0.078322021484375,0.00039999998989515007,-0.03350000083446503,0.0009999999310821295
1682997779509323500,0.098323486328125,-0.006899999920278788,-0.004699999932199717,0.06679999828338623
1682997779529322000,0.118322021484375,-0.019299998879432678,0.01489999983459711,-0.00139999995008111
1682997779549322000,0.138322021484375,0.021800000220537186,-0.02419999986886978,-0.007999999448657036
1682997779569323500,0.158323486328125,0.10679999738931656,-0.035099998116493225,0.07649999856948853
1682997779589322000,0.178322021484375,0.1516999900341034,-0.03610000014305115,0.0714000016450882
1682997779609322000,0.198322021484375,0.0851999968290329,-0.045899998396635056,-0.012399999424815178
1682997779629322000,0.218322021484375,0.04919999837875366,-0.04619999974966049,0.027699999511241913
1682997779649322000,0.238322021484375,-0.1281999945640564,-0.0348999984562397,0.09779999405145645
1682997779669322000,0.258322021484375,-0.10419999808073044,-0.025499999523162842,0.020800000056624413
1682997779689322000,0.278322021484375,-0.06909999996423721,-0.016099998727440834,0.07069999724626541
1682997779709322000,0.298322021484375,0.02029999904334545,-0.006599999964237213,0.06269999593496323
1682997779729322000,0.318322021484375,0.054899998009204865,-0.02630000002682209,0.0072999997064471245
1682997779749322000,0.338322021484375,0.04690000042319298,-0.026200000196695328,-0.06650000065565109
1682997779769322000,0.358322021484375,0.093299999833107,0.013100000098347664,-0.04919999837875366
1682997779789322000,0.378322021484375,0.08159999549388885,-0.016200000420212746,0.012999999336898327
1682997779809322000,0.398322021484375,0.07349999994039536,-0.03579999879002571,0.0616999976336956
1682997779829322000,0.418322021484375,0.07880000025033951,-0.0357000008225441,0.052299998700618744
1682997779849322000,0.438322021484375,0.18119999766349792,0.013499999418854713,-0.09669999778270721
1682997779869322000,0.458322021484375,0.262800008058548,0.023799998685717583,-0.284199982881546
1682997779889322000,0.478322021484375,0.24300000071525574,0.04389999806880951,-0.18159998953342438
1682997779909322000,0.498322021484375,0.05329999700188637,0.05389999970793724,0.07919999957084656
1682997779929322000,0.518322021484375,0.2289000004529953,-0.12219999730587006,-0.06520000100135803
1682997779949322000,0.538322021484375,0.21519999206066132,-0.05289999768137932,-0.043299999088048935
1682997779969322000,0.558322021484375,0.11869999766349792,-0.0714000016450882,0.09939999878406525
1682997779989322000,0.578322021484375,-0.00989999994635582,-0.14790000021457672,0.16249999403953552
1682997780009322000,0.598322021484375,-0.3400999903678894,-0.21319998800754547,0.22749999165534973
1682997780029322000,0.618322021484375,-0.5162000060081482,-0.1006999984383583,0.3440999984741211
1682997780049322000,0.638322021484375,-0.49129998683929443,0.0811999961733818,0.08819999545812607
1682997780069322000,0.658322021484375,-0.4599999785423279,-0.15809999406337738,-0.19359999895095825
1682997780089322000,0.678322021484375,-0.38359999656677246,-0.06449999660253525,-0.23989999294281006
1682997780109322000,0.698322021484375,-0.36579999327659607,0.17559999227523804,-0.17549999058246613
1682997780129322000,0.718322021484375,-0.48739999532699585,-0.04600000008940697,-0.19689999520778656
1682997780149322000,0.738322021484375,-0.5144999623298645,-0.03350000083446503,0.017999999225139618
1682997780169322000,0.758322021484375,-0.24729999899864197,0.20250000059604645,0.06189999729394913
1682997780189322000,0.778322021484375,-0.09129999577999115,-0.1516999900341034,0
1682997780209322000,0.798322021484375,-0.19839999079704285,-0.17339999973773956,0.06319999694824219
1682997780229322000,0.818322021484375,-0.241799995303154,0.04969999939203262,0.01719999872148037
1682997780249322000,0.838322021484375,-0.2554999887943268,-0.09079999476671219,0.24229998886585236
1682997780269322000,0.858322021484375,-0.15439999103546143,0.022699998691678047,0.2824999988079071
1682997780289322000,0.878322021484375,-0.08619999885559082,-0.07009999454021454,0.04129999876022339
1682997780309322000,0.898322021484375,-0.07499999552965164,-0.08469999581575394,-0.094200000166893
1682997780329322000,0.918322021484375,0.00559999980032444,-0.19739998877048492,0.19919998943805695
1682997780349322000,0.938322021484375,0.29009997844696045,-0.08460000157356262,0.32659998536109924
1682997780369322000,0.958322021484375,0.4145999848842621,0.02889999933540821,0.14100000262260437
1682997780389322000,0.978322021484375,0.44849997758865356,0.0064999996684491634,0.014800000004470348
1682997780409322000,0.998322021484375,0.46449998021125793,-0.142099991440773,-0.24390000104904175
1682997780429322000,1.018322021484375,0.5800999999046326,-0.06449999660253525,-0.35760000348091125
1682997780449322000,1.038322021484375,-0.273499995470047,0.25859999656677246,-0.26510000228881836
1682997780469322000,1.058322021484375,-0.16030000150203705,-0.07499999552965164,-0.08699999749660492
1682997780489322000,1.078322021484375,0.07000000029802322,-0.016599999740719795,-0.04169999808073044
1682997780509322000,1.098322021484375,0.43320000171661377,-0.03669999912381172,0.08839999884366989
1682997780529322000,1.118322021484375,0.5771999955177307,-0.15459999442100525,0.1704999953508377
1682997780549322000,1.138322021484375,0.17509999871253967,-0.1938999891281128,0.14800000190734863
1682997780569322000,1.158322021484375,-0.029899999499320984,0.23749999701976776,0.04129999876022339
1682997780589322000,1.178322021484375,-0.1103999987244606,0.09049999713897705,-0.16009999811649323
1682997780609322000,1.198322021484375,0.018199998885393143,-0.13490000367164612,-0.15860000252723694
1682997780629322000,1.218322021484375,0.027499999850988388,-0.03689999878406525,-0.09449999779462814
1682997780649322000,1.238322021484375,-0.020399998873472214,-0.017500000074505806,0.034299999475479126
1682997780669322000,1.258322021484375,-0.0876999944448471,0.011699999682605267,0.17080000042915344
1682997780689322000,1.278322021484375,-0.1867000013589859,-0.047199998050928116,0.10480000078678131
1682997780709322000,1.298322021484375,-0.12469999492168427,-0.027499999850988388,-0.015099999494850636
1682997780729322000,1.318322021484375,-0.13809999823570251,-0.01759999990463257,0.09049999713897705
1682997780749322000,1.338322021484375,0.16599999368190765,0.002099999925121665,0.07889999449253082
1682997780769322000,1.358322021484375,0.30489999055862427,-0.09549999982118607,0.0008999999845400453
1682997780789322000,1.378322021484375,0.21599999070167542,-0.09510000050067902,-0.09569999575614929
1682997780809322000,1.398322021484375,0.3319000005722046,-0.03610000014305115,-0.125
1682997780829322000,1.418322021484375,0.19189999997615814,0.003000000026077032,-0.10740000009536743
1682997780849322000,1.438322021484375,0.07090000063180923,0.00279999990016222,-0.03500000014901161
1682997780869322000,1.458322021484375,0.17839999496936798,0.07119999825954437,0.16169999539852142
1682997780889322000,1.478322021484375,0.04639999940991402,-0.03700000047683716,0.19329999387264252
1682997780909322000,1.498322021484375,-0.11969999969005585,-0.13529999554157257,-0.45239999890327454
1682997780929322000,1.518322021484375,-0.23799999058246613,0.2272000014781952,-0.5619999766349792
1682997780949322000,1.538322021484375,-0.09189999848604202,-0.23399999737739563,0.4535999894142151
1682997780969322000,1.558322021484375,0.026899999007582664,-0.01860000006854534,0.44099998474121094
1682997780989322000,1.578322021484375,-0.03790000081062317,-0.10689999908208847,0.12199999392032623
1682997781009322000,1.598322021484375,0.0037999998312443495,0.020499998703598976,-0.09839999675750732
1682997781029322000,1.618322021484375,0.00559999980032444,0.010699999518692493,-0.03590000048279762
1682997781049322000,1.638322021484375,0.1736999899148941,0.0008999999845400453,0.03370000049471855
1682997781069322000,1.658322021484375,0.13989999890327454,-0.03819999843835831,-0.003999999724328518
1682997781089322000,1.678322021484375,0.01269999984651804,0.16749998927116394,0.11129999905824661
1682997781109322000,1.698322021484375,0.10119999945163727,0.0007999999797903001,-0.2087000012397766
1682997781129322000,1.718322021484375,0.13419999182224274,-0.11679999530315399,-0.2052999883890152
1682997781149322000,1.738322021484375,-0.02319999970495701,-0.20520000159740448,-0.022299999371170998
1682997781169322000,1.758322021484375,-0.1784999966621399,0.029999999329447746,-0.057099997997283936
1682997781189322000,1.778322021484375,-0.05219999700784683,0.07889999449253082,0.09099999815225601
1682997781209322000,1.798322021484375,-0.16699999570846558,-0.13669998943805695,-0.09160000085830688
1682997781229322000,1.818322021484375,-0.3634999990463257,-0.019099999219179153,-0.000699999975040555
1682997781249322000,1.838322021484375,-0.17729999125003815,0.04939999803900719,0.12539999186992645
1682997781269322000,1.858322021484375,-0.17829999327659607,-0.05849999934434891,0.1274999976158142
1682997781289322000,1.878322021484375,-0.10799999535083771,0.009999999776482582,0.17309999465942383
1682997781309322000,1.898322021484375,-0.11259999871253967,-0.03889999911189079,0.06769999861717224
1682997781329322000,1.918322021484375,-0.06399999558925629,-0.04859999939799309,-0.2003999948501587
1682997781349322000,1.938322021484375,0.13650000095367432,-0.12680000066757202,-0.25439998507499695
1682997781369322000,1.958322021484375,0.2583000063896179,-0.10689999908208847,-0.06239999830722809
1682997781389322000,1.978322021484375,0.38609999418258667,0.0011999999405816197,0.07589999586343765
1682997781409322000,1.998322021484375,0.3955000042915344,0.011299999430775642,0.19569998979568481
1682997781429322000,2.018322021484375,0.27059999108314514,0.03099999949336052,0.14459998905658722
1682997781449322000,2.038322021484375,0.18679998815059662,-0.06700000166893005,-0.10539999604225159
1682997781469322000,2.058322021484375,0.04209999740123749,-0.0867999941110611,-0.09939999878406525
1682997781489322000,2.078322021484375,-0.09919999539852142,-0.028199998661875725,0.08829999715089798
1682997781509322000,2.098322021484375,-0.09479999542236328,-0.008700000122189522,0.07099999487400055
1682997781529322000,2.118322021484375,-0.07369999587535858,-0.11669999361038208,0.12629999220371246
1682997781549322000,2.138322021484375,-0.23879998922348022,0.20679999887943268,-0.11620000004768372
1682997781569322000,2.158322021484375,-0.18379999697208405,-0.09699999541044235,-0.14259999990463257
1682997781589322000,2.178322021484375,-0.07569999992847443,-0.1656000018119812,0.029099998995661736
1682997781609322000,2.198322021484375,-0.0011999999405816197,-0.008599999360740185,0.20829999446868896
1682997781629322000,2.218322021484375,0.02319999970495701,0.020800000056624413,0.10740000009536743
1682997781649322000,2.238322021484375,-0.07000000029802322,-0.05729999765753746,-0.06610000133514404
1682997781669322000,2.258322021484375,-0.1151999980211258,0.031099999323487282,-0.3360999822616577
1682997781689322000,2.278322021484375,-0.025599999353289604,-0.027400000020861626,-0.1622999906539917
1682997781709322000,2.298322021484375,0.17659999430179596,-0.06650000065565109,0.24650000035762787
1682997781729322000,2.318322021484375,-0.018299998715519905,0.07079999893903732,-0.016099998727440834
1682997781749322000,2.338322021484375,0.013100000098347664,-0.04649999737739563,-0.243599995970726
1682997781769322000,2.358322021484375,0.27539998292922974,-0.046299997717142105,0.07189999520778656
1682997781789322000,2.378322021484375,0.24009999632835388,-0.036399997770786285,0.052400000393390656
1682997781809322000,2.398322021484375,0.2336999922990799,-0.026599999517202377,-0.06309999525547028
1682997781829322000,2.418322021484375,0.19829998910427094,0.012299999594688416,-0.11050000041723251
1682997781849322000,2.438322021484375,-0.013899999670684338,-0.06639999896287918,-0.30799999833106995
1682997781869322000,2.458322021484375,-0.019899999722838402,0.011599999852478504,-0.06239999830722809
1682997781889322000,2.478322021484375,0.06929999589920044,-0.018199998885393143,0.274399995803833
1682997781909322000,2.498322021484375,0.033799998462200165,-0.2636999785900116,0.5374999642372131
1682997781929322000,2.518322021484375,-0.01719999872148037,-0.16569998860359192,0.15969999134540558
1682997781949322000,2.538322021484375,-0.1459999978542328,0.0010999999940395355,-0.13580000400543213
1682997781969322000,2.558322021484375,-0.2775000035762787,0.01119999960064888,-0.25529998540878296
1682997781989322000,2.578322021484375,-0.29009997844696045,0.08989999443292618,-0.12690000236034393
1682997782009322000,2.598322021484375,-0.13809999823570251,0.0997999981045723,0.47529998421669006
1682997782029322000,2.618322021484375,-0.42659997940063477,-0.24319998919963837,0.6502000093460083
1682997782049322000,2.638322021484375,0.1551000028848648,-0.34059998393058777,-0.8443999886512756
1682997782069322000,2.658322021484375,0.9863999485969543,0.19949999451637268,-0.9756999611854553
1682997782089322000,2.678322021484375,1.4321999549865723,0.32690000534057617,0.35429999232292175
1682997782109322000,2.698322021484375,0.8726999759674072,-0.3009999990463257,0.7892999649047852
1682997782129322000,2.718322021484375,0.19929999113082886,-0.35909998416900635,0.5608999729156494
1682997782149322000,2.738322021484375,-0.405599981546402,-0.02319999970495701,0.27619999647140503
1682997782169322000,2.758322021484375,-0.3278000056743622,-0.23479999601840973,-0.9792999625205994
1682997782189322000,2.778322021484375,-0.05939999967813492,0.24039998650550842,-1.4024999141693115
1682997782209322000,2.798322021484375,0.061400000005960464,0.0279999990016222,-0.05869999900460243
1682997782229322000,2.818322021484375,-0.31949999928474426,-0.3904999792575836,0.7978999614715576
1682997782249322000,2.838322021484375,-0.8833999633789062,0.025299999862909317,-0.22659999132156372
1682997782269322000,2.858322021484375,-1.3131999969482422,-0.3726999759674072,-0.19370000064373016
1682997782289322000,2.878322021484375,-1.7251999378204346,-0.02850000001490116,-0.19949999451637268
1682997782309322000,2.898322021484375,-1.1952999830245972,-0.07079999893903732,0.03709999844431877
1682997782329322000,2.918322021484375,-0.22919999063014984,0.12780000269412994,0.5629000067710876
1682997782349322000,2.938322021484375,0.06749999523162842,-0.08500000089406967,0.5259999632835388
1682997782369322000,2.958322021484375,0.18709999322891235,-0.0794999971985817,0.3360999822616577
1682997782389322000,2.978322021484375,0.3869999945163727,0.45799997448921204,-0.06639999896287918
1682997782409322000,2.998322021484375,0.4878000020980835,-0.4244999885559082,-0.04580000042915344
1682997782429322000,3.018322021484375,0.6150000095367432,0.1354999989271164,-0.14569999277591705
1682997782449322000,3.038322021484375,0.5806999802589417,-0.2158999890089035,0.0139999995008111
1682997782469322000,3.058322021484375,0.5238999724388123,-0.07679999619722366,-0.015199999324977398
1682997782489322000,3.078322021484375,0.4179999828338623,0.013100000098347664,-0.19039998948574066
1682997782509322000,3.098322021484375,0.35670000314712524,0.07319999486207962,-0.20340000092983246
1682997782529322000,3.118322021484375,0.20799998939037323,0.005200000014156103,-0.22439999878406525
1682997782549322000,3.138322021484375,0.06920000165700912,-0.0729999989271164,-0.30069997906684875
1682997782569322000,3.158322021484375,0.05269999802112579,0.014800000004470348,0.055799998342990875
1682997782589322000,3.178322021484375,-0.2280000001192093,-0.4171999990940094,0.4068000018596649
1682997782609322000,3.198322021484375,-0.2418999969959259,0.003999999724328518,-0.05719999969005585
1682997782629322000,3.218322021484375,-0.11479999870061874,0.2198999971151352,0.003999999724328518
1682997782649322000,3.238322021484375,0.17749999463558197,0.0729999989271164,0.2953000068664551
1682997782669322000,3.258322021484375,0.09939999878406525,-0.1030999943614006,0.04309999942779541
1682997782689322000,3.278322021484375,0.017999999225139618,-0.0632999986410141,-0.19259999692440033
1682997782709322000,3.298322021484375,0.24120000004768372,0.015399999916553497,-0.010599999688565731
1682997782729322000,3.318322021484375,0.1371999979019165,0.01529999915510416,-0.1664000004529953
1682997782749322000,3.338322021484375,0.023499999195337296,0.19139999151229858,0.07779999822378159
1682997782769322000,3.358322021484375,-0.30309998989105225,0.0044999998062849045,0.396699994802475
1682997782789322000,3.378322021484375,-0.3985999822616577,-0.06419999897480011,0.0771000012755394
1682997782809322000,3.398322021484375,-0.25099998712539673,-0.024299999698996544,0.0510999970138073
1682997782829322000,3.418322021484375,-0.09669999778270721,-0.20960000157356262,0.035599999129772186
1682997782849322000,3.438322021484375,-0.11319999396800995,0.0072999997064471245,-0.11490000039339066
1682997782869322000,3.458322021484375,-0.043800000101327896,0.13599999248981476,-0.023399999365210533
1682997782889322000,3.478322021484375,0.26600000262260437,-0.1078999936580658,0.1818999946117401
1682997782909322000,3.498322021484375,0.41259998083114624,-0.23409999907016754,0.008200000040233135
1682997782929322000,3.518322021484375,0.24949999153614044,0.031700000166893005,-0.2020999938249588
1682997782949322000,3.538322021484375,0.09849999845027924,0.0714000016450882,-0.15209999680519104
1682997782969322000,3.558322021484375,-0.11449999362230301,-0.026399999856948853,-0.358599990606308
1682997782989322000,3.578322021484375,-0.288100004196167,-0.065700002014637,-0.35349997878074646
1682997783009322000,3.598322021484375,-0.271699994802475,0.09049999713897705,-0.01679999940097332
1682997783029322000,3.618322021484375,-0.060499999672174454,-0.07679999619722366,0.3418999910354614
1682997783049322000,3.638322021484375,-0.06870000064373016,-0.15549999475479126,0.2255999892950058
1682997783069322000,3.658322021484375,-0.1850000023841858,0.050599999725818634,-0.028599999845027924
1682997783089322000,3.678322021484375,-0.04099999740719795,0.011899999342858791,-0.0357000008225441
1682997783109322000,3.698322021484375,0.04879999905824661,-0.08529999852180481,-0.044099997729063034
1682997783129322000,3.718322021484375,0.1590999960899353,0.013199999928474426,0.1711999922990799
1682997783149322000,3.738322021484375,0.16459999978542328,-0.1136000007390976,0.12280000001192093
1682997783169322000,3.758322021484375,0.09869999438524246,-0.07369999587535858,-0.14350000023841858
1682997783189322000,3.778322021484375,0.10419999808073044,0.005200000014156103,-0.17669999599456787
1682997783209322000,3.798322021484375,0.1808999925851822,-0.004399999976158142,0.08869999647140503
1682997783229322000,3.818322021484375,0.1437000036239624,-0.04360000044107437,-0.007799999788403511
1682997783249322000,3.838322021484375,0.08259999752044678,-0.08299999684095383,-0.11339999735355377
1682997783269322000,3.858322021484375,-0.08150000125169754,-0.044099997729063034,-0.121799997985363
1682997783289322000,3.878322021484375,-0.17729999125003815,0.00419999985024333,0.14980000257492065
1682997783309322000,3.898322021484375,-0.19020000100135803,0.013700000010430813,0.030299998819828033
1682997783329322000,3.918322021484375,-0.19929999113082886,-0.10379999876022339,-0.12520000338554382
1682997783349322000,3.938322021484375,-0.21299999952316284,0.03350000083446503,-0.007999999448657036
1682997783369322000,3.958322021484375,-0.25360000133514404,0.06300000101327896,0.21319998800754547
1682997783389322000,3.978322021484375,-0.21439999341964722,-0.04399999976158142,0.1841999888420105
1682997783409322000,3.998322021484375,-0.17350000143051147,-0.16030000150203705,0.032600000500679016
1682997783429322000,4.018322021484375,-0.09969999641180038,-0.06019999831914902,-0.18389999866485596
1682997783449322000,4.038322021484375,-0.011899999342858791,0.03009999915957451,0.01730000041425228
1682997783469322000,4.058322021484375,0.11299999803304672,0.012799999676644802,0.02019999921321869
1682997783489322000,4.078322021484375,0.29739999771118164,-0.16110000014305115,-0.03359999880194664
1682997783509322000,4.098322021484375,0.4391999840736389,-0.11959999799728394,-0.15719999372959137
1682997783529322000,4.118322021484375,0.398499995470047,0.00930000003427267,-0.09609999507665634
1682997783549322000,4.138322021484375,0.3425999879837036,0.009599999524652958,0.03929999843239784
1682997783569322000,4.158322021484375,0.3671000003814697,-0.11829999834299088,-0.002199999988079071
1682997783589322000,4.178322021484375,0.18850000202655792,-0.1096000000834465,-0.09139999747276306
1682997783609322000,4.198322021484375,-0.03759999945759773,0.035499997437000275,0.013599999248981476
1682997783629322000,4.218322021484375,-0.22179999947547913,0.003999999724328518,0.14630000293254852
1682997783649322000,4.238322021484375,-0.34139999747276306,-0.007199999876320362,0.02759999968111515
1682997783669322000,4.258322021484375,-0.3050999939441681,-0.05700000002980232,-0.05849999934434891
1682997783689322000,4.278322021484375,-0.22059999406337738,0.011299999430775642,-0.017999999225139618
1682997783709322000,4.298322021484375,-0.125,-0.007999999448657036,0.041099999099969864
1682997783729322000,4.318322021484375,-0.006399999838322401,-0.06629999727010727,-0.055399999022483826
1682997783749322000,4.338322021484375,0.1394999921321869,-0.03629999980330467,-0.00559999980032444
1682997783769322000,4.358322021484375,0.21939998865127563,-0.026099998503923416,0.0038999998942017555
1682997783789322000,4.378322021484375,0.21809999644756317,-0.016200000420212746,-0.06459999829530716
1682997783809322000,4.398322021484375,0.1265999972820282,-0.04600000008940697,-0.006799999624490738
1682997783829322000,4.418322021484375,-0.03739999979734421,-0.056599996984004974,-0.03790000081062317
1682997783849322000,4.438322021484375,-0.12079999595880508,-0.00839999970048666,0.028699999675154686
1682997783869322000,4.458322021484375,-0.050599999725818634,0.0005999999702908099,0.16300000250339508
1682997783889322000,4.478322021484375,-0.01269999984651804,-0.07819999754428864,0.06480000168085098
1682997783909322000,4.498322021484375,-0.043699998408555984,-0.05869999900460243,-0.08789999783039093
1682997783929322000,4.518322021484375,-0.11400000005960464,0.04879999905824661,-0.05609999969601631
1682997783949322000,4.538322021484375,-0.059699997305870056,-0.05920000001788139,0.11029999703168869
1682997783969322000,4.558322021484375,-0.02879999950528145,-0.02969999983906746,0.004399999976158142
1682997783989322000,4.578322021484375,0.00019999999494757503,-0.04910000041127205,-0.12929999828338623
1682997784009322000,4.598322021484375,-0.019500000402331352,0.009800000116229057,-0.07819999754428864
1682997784029322000,4.618322021484375,0.019199999049305916,-0.019700000062584877,0.06659999489784241
1682997784049322000,4.638322021484375,0.028699999675154686,-0.05900000035762787,0.01549999974668026
1682997784069322000,4.658322021484375,0.010099999606609344,-0.00019999999494757503,-0.0429999977350235
1682997784089322000,4.678322021484375,0.07090000063180923,0.009399999864399433,0.08349999785423279
1682997784109322000,4.698322021484375,0.06419999897480011,-0.08869999647140503,0.07360000163316727
1682997784129322000,4.718322021484375,-0.08619999885559082,-0.029999999329447746,-0.12019999325275421
1682997784149322000,4.738322021484375,-0.07970000058412552,0.02850000001490116,-0.0018999999156221747
1682997784169322000,4.758322021484375,0.020399998873472214,-0.030499998480081558,0.13359999656677246
1682997784189322000,4.778322021484375,0.04129999876022339,-0.10889999568462372,0.016699999570846558
1682997784209322000,4.798322021484375,-0.004100000020116568,-0.05989999696612358,-0.02019999921321869
1682997784229322000,4.818322021484375,-0.028999999165534973,0.028199998661875725,-0.13519999384880066
1682997784249322000,4.838322021484375,0.06199999898672104,-0.0502999983727932,0.050200000405311584
1682997784269322000,4.858322021484375,0.0754999965429306,-0.07999999821186066,-0.00029999998514540493
1682997784289322000,4.878322021484375,0.06269999593496323,-0.011599999852478504,-0.06870000064373016
1682997784309322000,4.898322021484375,0.02290000021457672,-0.04149999842047691,0.047199998050928116
1682997784329322000,4.918322021484375,-0.09269999712705612,-0.05179999768733978,0.006799999624490738
1682997784349323500,4.938323486328125,-0.12139999866485596,-0.032600000500679016,0.045899998396635056
1682997784369325300,4.9583251953125,-0.07539999485015869,-0.04270000010728836,-0.03219999745488167
1682997784389322000,4.978322021484375,-0.05249999836087227,-0.023099999874830246,-0.01209999993443489
1682997784409322000,4.998322021484375,-0.031300000846385956,-0.02319999970495701,0.06619999557733536
1682997784429323500,5.018323486328125,-0.050200000405311584,-0.003599999938160181,-0.05079999938607216
1682997784449322000,5.038322021484375,0.017999999225139618,-0.013299999758601189,-0.05939999967813492
1682997784469322000,5.058322021484375,0.11469999700784683,-0.023099999874830246,-0.0015999999595806003
1682997784489322000,5.078322021484375,0.11649999767541885,0.006000000052154064,0.03539999946951866
1682997784509323500,5.098323486328125,0.05419999733567238,-0.07270000129938126,-0.004999999888241291
1682997784529323500,5.118323486328125,0.05480000004172325,-0.033900000154972076,-0.11369999498128891
1682997784549322000,5.138322021484375,0.06629999727010727,-0.024699999019503593,-0.009800000116229057
1682997784569323500,5.158323486328125,0.04149999842047691,-0.054899998009204865,0.13179999589920044
1682997784589322000,5.178322021484375,-0.08909999579191208,-0.06539999693632126,0.05040000006556511
1682997784609322000,5.198322021484375,-0.1906999945640564,0.002699999837204814,-0.05689999833703041
1682997784629322000,5.218322021484375,-0.2184000015258789,-0.007400000002235174,0.0011999999405816197
1682997784649323500,5.238323486328125,-0.2037999927997589,-0.03700000047683716,-0.06859999895095825
1682997784669323500,5.258323486328125,-0.14710000157356262,-0.03700000047683716,-0.03099999949336052
1682997784689323500,5.278323486328125,-0.03700000047683716,0.002099999925121665,0.034199997782707214
1682997784709322000,5.298322021484375,0.06949999928474426,-0.02709999866783619,0.0414000004529953
1682997784729322000,5.318322021484375,0.17659999430179596,-0.03659999743103981,-0.0478999987244606
1682997784749322000,5.338322021484375,0.22939999401569366,-0.03659999743103981,0.03779999911785126
1682997784769322000,5.358322021484375,0.12319999933242798,-0.03680000081658363,0.02539999969303608
1682997784789322000,5.378322021484375,0.05289999768137932,-0.0762999951839447,-0.14190000295639038
1682997784809322000,5.398322021484375,0.045099999755620956,-0.008200000040233135,-0.10520000010728836
1682997784829322000,5.418322021484375,0.07849999517202377,-0.03839999809861183,0.10339999943971634
1682997784849322000,5.438322021484375,-0.012600000016391277,-0.1078999936580658,0.1356000006198883
1682997784869322000,5.458322021484375,-0.17899999022483826,0.009099999442696571,-0.05269999802112579
1682997784889322000,5.478322021484375,-0.21050000190734863,-0.0010999999940395355,0.03439999744296074
1682997784909322000,5.498322021484375,-0.25779998302459717,-0.040699999779462814,0.07129999995231628
1682997784929322000,5.518322021484375,-0.18529999256134033,-0.0210999995470047,-0.016699999570846558
1682997784949322000,5.538322021484375,-0.0705999955534935,-0.05049999803304672,-0.016599999740719795
1682997784969322000,5.558322021484375,0.012399999424815178,-0.020999999716877937,0.022499999031424522
1682997784989322000,5.578322021484375,0.01759999990463257,-0.010999999940395355,0.002899999963119626
1682997785009322000,5.598322021484375,0.034299999475479126,-0.010900000110268593,-0.054999999701976776
1682997785029322000,5.618322021484375,0.11169999837875366,-0.010900000110268593,0.013499999418854713
1682997785049322000,5.638322021484375,0.13319998979568481,-0.05999999865889549,0.02239999920129776
1682997785069322000,5.658322021484375,0.013799999840557575,-0.0405999980866909,-0.055799998342990875
1682997785089322000,5.678322021484375,0.005699999630451202,0.017899999395012856,0.001999999862164259
1682997785109322000,5.698322021484375,0.037699997425079346,-0.09019999951124191,0.0786999985575676
1682997785129322000,5.718322021484375,-0.00699999975040555,-0.05130000039935112,-0.019299998879432678
1682997785149322000,5.738322021484375,-0.07939999550580978,-0.16920000314712524,0.010099999606609344
1682997785169322000,5.758322021484375,-0.09319999814033508,0.016699999570846558,0.057499997317790985
1682997785189322000,5.778322021484375,-0.16589999198913574,-0.003000000026077032,-0.05949999764561653
1682997785209322000,5.798322021484375,-0.21369999647140503,-0.1305999904870987,0.03889999911189079
1682997785229322000,5.818322021484375,-0.2578999996185303,0.01640000008046627,0.0681999996304512
1682997785249322000,5.838322021484375,-0.21199999749660492,0.016499999910593033,-0.018299998715519905
1682997785269322000,5.858322021484375,-0.03799999877810478,-0.04189999774098396,-0.015699999406933784
1682997785289322000,5.878322021484375,0.10349999368190765,-0.04169999808073044,0.014999999664723873
1682997785309322000,5.898322021484375,0.11989999562501907,-0.002099999925121665,-0.041999999433755875
1682997785329322000,5.918322021484375,0.13109999895095825,-0.011699999682605267,-0.07000000029802322
1682997785349322000,5.938322021484375,0.08799999952316284,-0.02149999886751175,-0.001999999862164259
1682997785369322000,5.958322021484375,0.05859999731183052,-0.08049999922513962,0.06469999998807907
1682997785389322000,5.978322021484375,-0.006399999838322401,-0.021699998527765274,0.014699999243021011
1682997785409322000,5.998322021484375,-0.07019999623298645,-0.021900000050663948,0.023899998515844345
1682997785429322000,6.018322021484375,-0.10480000078678131,-0.021900000050663948,-0.034699998795986176
1682997785449322000,6.038322021484375,-0.1022999957203865,-0.05139999836683273,0.0142000000923872
1682997785469322000,6.058322021484375,-0.08309999853372574,-0.0023999998811632395,0.042899999767541885
1682997785489322000,6.078322021484375,0.0405999980866909,-0.041600000113248825,0.013399999588727951
1682997785509322000,6.098322021484375,0.02719999849796295,-0.07090000063180923,-0.044999998062849045
1682997785529322000,6.118322021484375,-0.051899999380111694,-0.002199999988079071,-0.07429999858140945
1682997785549322000,6.138322021484375,-0.02329999953508377,-0.021900000050663948,0.03189999982714653
1682997785569322000,6.158322021484375,0.05269999802112579,-0.041600000113248825,0.13779999315738678
1682997785589322000,6.178322021484375,0.0421999990940094,-0.041600000113248825,-0.018299998715519905
1682997785609322000,6.198322021484375,-0.014399999752640724,-0.01209999993443489,-0.05559999868273735
1682997785629322000,6.218322021484375,-0.07009999454021454,-0.04149999842047691,0.013499999418854713
1682997785649322000,6.238322021484375,-0.06849999725818634,-0.021900000050663948,-0.03519999980926514
1682997785669322000,6.258322021484375,-0.01939999870955944,-0.03179999813437462,0.09109999984502792
1682997785689322000,6.278322021484375,-0.015099999494850636,-0.031300000846385956,-0.026899999007582664
1682997785709322000,6.298322021484375,-0.01889999955892563,-0.029999999329447746,-0.06289999932050705
1682997785729322000,6.318322021484375,-0.012799999676644802,-0.03059999831020832,0.1030999943614006
1682997785749322000,6.338322021484375,0.05199999734759331,-0.03099999949336052,0.09449999779462814
1682997785769322000,6.358322021484375,0.02019999921321869,-0.041099999099969864,-0.008100000210106373
1682997785789322000,6.378322021484375,-0.02889999933540821,-0.011799999512732029,-0.0494999997317791
1682997785809322000,6.398322021484375,-0.02850000001490116,0.007599999662488699,0.025999998673796654
1682997785829322000,6.418322021484375,-0.03889999911189079,-0.07099999487400055,-0.035599999129772186
1682997785849322000,6.438322021484375,-0.04899999871850014,-0.012299999594688416,0.06939999759197235
1682997785869322000,6.458322021484375,-0.011599999852478504,0.016899999231100082,0.027699999511241913
1682997785889322000,6.478322021484375,0.04529999941587448,-0.022199999541044235,0.01719999872148037
1682997785909322000,6.498322021484375,0.07360000163316727,-0.0908999964594841,0.05570000037550926
1682997785929322000,6.518322021484375,-0.012999999336898327,0.016899999231100082,-0.04189999774098396
1682997785949322000,6.538322021484375,-0.029899999499320984,0.00699999975040555,-0.00279999990016222
1682997785969322000,6.558322021484375,0.011299999430775642,-0.0811999961733818,-0.0030999998562037945
1682997785989322000,6.578322021484375,-0.03539999946951866,-0.0714000016450882,-0.02290000021457672
1682997786009322000,6.598322021484375,-0.06260000169277191,0.016699999570846558,0.006099999882280827
1682997786029322000,6.618322021484375,-0.013499999418854713,-0.03229999914765358,0.053700000047683716
1682997786049322000,6.638322021484375,0.020899999886751175,-0.0811999961733818,-0.003700000001117587
1682997786069322000,6.658322021484375,0.0010999999940395355,-0.011899999342858791,-0.021900000050663948
1682997786089322000,6.678322021484375,-0.00559999980032444,-0.002300000051036477,-0.02539999969303608
1682997786109322000,6.698322021484375,-0.022099999710917473,-0.07129999995231628,0.08829999715089798
1682997786129322000,6.718322021484375,-0.00009999999747378752,-0.06159999966621399,0.007199999876320362
1682997786149322000,6.738322021484375,0.03150000050663948,-0.051899999380111694,-0.013700000010430813
1682997786169322000,6.758322021484375,-0.0632999986410141,0.0066999997943639755,-0.014699999243021011
1682997786189322000,6.778322021484375,-0.020800000056624413,-0.0031999999191612005,0.05130000039935112
1682997786209322000,6.798322021484375,-0.03819999843835831,-0.1404999941587448,0.002099999925121665
1682997786229322000,6.818322021484375,-0.0949999988079071,0.026099998503923416,-0.046799998730421066
1682997786249322000,6.838322021484375,-0.025999998673796654,0.03579999879002571,0.02019999921321869
1682997786269322000,6.858322021484375,0.031199999153614044,-0.12109999358654022,-0.02029999904334545
1682997786289322000,6.878322021484375,0.0007999999797903001,-0.023099999874830246,0.017500000074505806
1682997786309322000,6.898322021484375,0.020399998873472214,0.05509999766945839,0.0828000009059906
1682997786329322000,6.918322021484375,0.021900000050663948,-0.0625,-0.00559999980032444
1682997786349322000,6.938322021484375,0.004799999762326479,-0.08219999819993973,0.02369999885559082
1682997786369322000,6.958322021484375,-0.050200000405311584,-0.0037999998312443495,-0.025299999862909317
1682997786389322000,6.978322021484375,-0.08619999885559082,0.0058999997563660145,0.0038999998942017555
1682997786409322000,6.998322021484375,-0.06589999794960022,-0.04309999942779541,0.05199999734759331
1682997786429322000,7.018322021484375,-0.027899999171495438,-0.07249999791383743,0.003000000026077032
1682997786449322000,7.038322021484375,0.028699999675154686,-0.013599999248981476,-0.05460000038146973
1682997786469322000,7.058322021484375,0.02019999921321869,0.016499999910593033,-0.032600000500679016
1682997786489322000,7.078322021484375,-0.03659999743103981,-0.05219999700784683,-0.026399999856948853
1682997786509322000,7.098322021484375,0.004399999976158142,-0.04270000010728836,0.1062999963760376
1682997786529322000,7.118322021484375,0.005699999630451202,0.015799999237060547,0.08320000022649765
1682997786549322000,7.138322021484375,-0.002099999925121665,-0.042899999767541885,-0.014800000004470348
1682997786569322000,7.158322021484375,-0.00009999999747378752,-0.08219999819993973,-0.004600000102072954
1682997786589322000,7.178322021484375,-0.046799998730421066,0.015699999406933784,-0.02449999935925007
1682997786609322000,7.198322021484375,-0.0210999995470047,-0.04339999705553055,0.027300000190734863
1682997786629322000,7.218322021484375,-0.03019999898970127,-0.02369999885559082,-0.007999999448657036
1682997786649322000,7.238322021484375,-0.02499999850988388,-0.03350000083446503,0.03179999813437462
1682997786669322000,7.258322021484375,-0.019500000402331352,-0.023599999025464058,-0.04619999974966049
1682997786689322000,7.278322021484375,-0.0142000000923872,-0.06269999593496323,0.003000000026077032
1682997786709322000,7.298322021484375,0.04050000011920929,-0.0038999998942017555,0.021800000220537186
1682997786729322000,7.318322021484375,0.06719999760389328,-0.023499999195337296,0.031199999153614044
1682997786749322000,7.338322021484375,0.07679999619722366,-0.013700000010430813,0.01209999993443489
1682997786769322000,7.358322021484375,0.040699999779462814,-0.11169999837875366,0.042399998754262924
1682997786789322000,7.378322021484375,-0.10979999601840973,-0.0429999977350235,-0.08309999853372574
1682997786809322000,7.398322021484375,-0.1046999990940094,0.015699999406933784,0.006000000052154064
1682997786829322000,7.418322021484375,-0.026200000196695328,-0.05289999768137932,0.06390000134706497
1682997786849322000,7.438322021484375,0.021299999207258224,-0.07249999791383743,-0.003700000001117587
1682997786869322000,7.458322021484375,0.02070000022649765,0.015799999237060547,0.007599999662488699
1682997786889322000,7.478322021484375,0.011099999770522118,0.006099999882280827,-0.010699999518692493
1682997786909322000,7.498322021484375,-0.03590000048279762,-0.08209999650716782,-0.029099998995661736
1682997786929322000,7.518322021484375,-0.06399999558925629,-0.032999999821186066,-0.028999999165534973
1682997786949322000,7.538322021484375,-0.003700000001117587,-0.013100000098347664,-0.013700000010430813
1682997786969322000,7.558322021484375,-0.004600000102072954,-0.023000000044703484,0.003499999875202775
1682997786989322000,7.578322021484375,-0.014399999752640724,-0.042799998074769974,0.04089999943971634
1682997787009322000,7.598322021484375,-0.04349999874830246,-0.02319999970495701,0.00019999999494757503
1682997787029322000,7.618322021484375,-0.03059999831020832,-0.013700000010430813,0.007199999876320362
1682997787049322000,7.638322021484375,-0.042500000447034836,-0.033399999141693115,0.05549999698996544
1682997787069322000,7.658322021484375,-0.06469999998807907,-0.013899999670684338,-0.002099999925121665
1682997787089322000,7.678322021484375,-0.03399999812245369,-0.023799998685717583,0.006199999712407589
1682997787109322000,7.698322021484375,-0.007999999448657036,-0.06300000101327896,0.05509999766945839
1682997787129322000,7.718322021484375,-0.009800000116229057,-0.04319999739527702,0.006899999920278788
1682997787149322000,7.738322021484375,0.01979999989271164,-0.0037999998312443495,-0.020800000056624413
1682997787169322000,7.758322021484375,0.032600000500679016,-0.03309999778866768,-0.029099998995661736
1682997787189322000,7.778322021484375,0.008599999360740185,-0.042799998074769974,0.010999999940395355
1682997787209322000,7.798322021484375,-0.042399998754262924,-0.032999999821186066,0.020899999886751175
1682997787229322000,7.818322021484375,-0.03319999948143959,-0.013299999758601189,0.041099999099969864
1682997787249322000,7.838322021484375,-0.013899999670684338,-0.05249999836087227,0.02199999988079071
1682997787269322000,7.858322021484375,-0.023599999025464058,-0.05249999836087227,-0.015599999576807022
1682997787289322000,7.878322021484375,-0.0608999989926815,-0.052400000393390656,-0.02369999885559082
1682997787309322000,7.898322021484375,-0.09759999811649323,-0.0032999999821186066,-0.05219999700784683
1682997787329322000,7.918322021484375,-0.05719999969005585,-0.04259999841451645,0.06509999930858612
1682997787349322000,7.938322021484375,-0.022499999031424522,-0.06260000169277191,0.029600000008940697
1682997787369322000,7.958322021484375,-0.05299999937415123,-0.013399999588727951,0.0026000000070780516
1682997787389322000,7.978322021484375,-0.04389999806880951,-0.04270000010728836,0.014699999243021011
1682997787409322000,7.998322021484375,-0.03500000014901161,-0.013100000098347664,-0.031700000166893005
1682997787429322000,8.018322021484375,0.013199999928474426,-0.02279999852180481,-0.010099999606609344
1682997787449322000,8.038322021484374,-0.01489999983459711,-0.012999999336898327,-0.04859999939799309
1682997787469322000,8.058322021484376,-0.09039999544620514,-0.042399998754262924,-0.019299998879432678
1682997787489322000,8.078322021484375,-0.08779999613761902,0.006399999838322401,0.11679999530315399
1682997787509322000,8.098322021484375,-0.03199999779462814,-0.06309999525547028,0.08060000091791153
1682997787529322000,8.118322021484374,-0.014800000004470348,-0.04309999942779541,-0.05889999866485596
1682997787549322000,8.138322021484376,-0.00699999975040555,-0.023099999874830246,-0.05289999768137932
1682997787569322000,8.158322021484375,0.0018999999156221747,-0.052299998700618744,-0.010400000028312206
1682997787589322000,8.178322021484375,-0.017099998891353607,-0.032600000500679016,-0.047599997371435165
1682997787609322000,8.198322021484374,-0.04559999704360962,-0.05219999700784683,0.05130000039935112
1682997787629322000,8.218322021484376,-0.05480000004172325,-0.05209999904036522,-0.0357000008225441
1682997787649322000,8.238322021484375,-0.05469999834895134,-0.022599998861551285,-0.0340999998152256
1682997787669322000,8.258322021484375,-0.045099999755620956,-0.012799999676644802,0.023799998685717583
1682997787689322000,8.278322021484374,-0.01640000008046627,-0.08150000125169754,0.06209999695420265
1682997787709322000,8.298322021484376,-0.006799999624490738,-0.012799999676644802,0.013399999588727951
1682997787729322000,8.318322021484375,-0.0064999996684491634,-0.05199999734759331,0.07289999723434448
1682997787749322000,8.338322021484375,-0.07339999824762344,-0.002899999963119626,-0.09179999679327011
1682997787769322000,8.358322021484375,-0.05209999904036522,-0.03229999914765358,-0.05130000039935112
1682997787789322000,8.378322021484376,-0.012600000016391277,-0.07159999758005142,0.08469999581575394
1682997787809322000,8.398322021484375,-0.021399999037384987,0.016599999740719795,0.015599999576807022
1682997787829322000,8.418322021484375,-0.010699999518692493,-0.022499999031424522,-0.013299999758601189
1682997787849322000,8.438322021484375,-0.009599999524652958,-0.14019998908042908,-0.032099999487400055
1682997787869322000,8.458322021484374,-0.07569999992847443,0.016599999740719795,0.03619999811053276
1682997787889322000,8.478322021484376,-0.07449999451637268,0.04600000008940697,-0.04169999808073044
1682997787909322000,8.498322021484375,0.03150000050663948,-0.1597999930381775,0.017099998891353607
1682997787929322000,8.518322021484375,-0.03849999979138374,0.006799999624490738,-0.04169999808073044
1682997787949322000,8.538322021484374,0.019700000062584877,0.026399999856948853,0.08509999513626099
1682997787969322000,8.558322021484376,0.029399998486042023,-0.08139999955892563,0.026200000196695328
1682997787989322000,8.578322021484375,-0.07620000094175339,-0.0616999976336956,-0.10869999974966049
1682997788009322000,8.598322021484375,-0.07400000095367432,0.03629999980330467,-0.02029999904334545
1682997788029322000,8.618322021484374,-0.015399999916553497,-0.04209999740123749,0.016999999061226845
1682997788049322000,8.638322021484376,-0.025699999183416367,-0.13050000369548798,0.00559999980032444
1682997788069322000,8.658322021484375,-0.08449999988079071,0.035999998450279236,0.004100000020116568
1682997788089322000,8.678322021484375,-0.07719999551773071,-0.032600000500679016,0.041600000113248825
1682997788109322000,8.698322021484374,-0.023099999874830246,-0.032600000500679016,-0.017400000244379044
1682997788129322000,8.718322021484376,0.04019999876618385,-0.0030999998562037945,0.060499999672174454
1682997788149322000,8.738322021484375,0.055399999022483826,-0.04230000078678131,0.031099999323487282
1682997788169322000,8.758322021484375,0.04399999976158142,-0.061799999326467514,-0.045899998396635056
1682997788189322000,8.778322021484374,-0.023599999025464058,-0.03240000084042549,-0.045099999755620956
1682997788209322000,8.798322021484376,-0.031599998474121094,0.016499999910593033,-0.006099999882280827
1682997788229322000,8.818322021484375,-0.030299998819828033,-0.06189999729394913,0.022099999710917473
1682997788249322000,8.838322021484375,-0.06849999725818634,-0.032499998807907104,-0.007899999618530273
1682997788269322000,8.858322021484375,-0.039000000804662704,0.0064999996684491634,0.05920000001788139
1682997788289322000,8.878322021484376,-0.020800000056624413,-0.042500000447034836,0.04769999906420708
1682997788309322000,8.898322021484375,-0.012399999424815178,-0.06209999695420265,-0.05920000001788139
1682997788329322000,8.918322021484375,-0.003499999875202775,-0.012999999336898327,-0.04919999837875366
1682997788349322000,8.938322021484375,0.015699999406933784,-0.03269999846816063,-0.020800000056624413
1682997788369322000,8.958322021484374,-0.032600000500679016,-0.04259999841451645,-0.032600000500679016
1682997788389322000,8.978322021484376,-0.05130000039935112,-0.003599999938160181,0.09149999916553497
1682997788409322000,8.998322021484375,-0.041200000792741776,-0.03309999778866768,0.08919999748468399
1682997788429322000,9.018322021484375,0.007499999832361937,-0.0625,-0.027699999511241913
1682997788449322000,9.038322021484374,-0.01119999960064888,-0.03309999778866768,-0.03720000013709068
1682997788469322000,9.058322021484376,-0.08739999681711197,0.006000000052154064,-0.03749999776482582
1682997788489322000,9.078322021484375,-0.05739999935030937,-0.023399999365210533,0.019600000232458115
1682997788509322000,9.098322021484375,-0.00019999999494757503,-0.09209999442100525,-0.00029999998514540493
1682997788529322000,9.118322021484374,-0.002099999925121665,-0.0038999998942017555,-0.021299999207258224
1682997788549322000,9.138322021484376,-0.012899999506771564,0.015599999576807022,0.015799999237060547
1682997788569322000,9.158322021484375,0.035599999129772186,-0.08249999582767487,0.04319999739527702
1682997788589322000,9.178322021484375,-0.021900000050663948,-0.04339999705553055,-0.016699999570846558
1682997788609322000,9.198322021484374,-0.06790000200271606,0.01529999915510416,0.03139999881386757
1682997788629322000,9.218322021484376,-0.03619999811053276,-0.03370000049471855,0.06939999759197235
1682997788649322000,9.238322021484375,-0.054499998688697815,-0.06309999525547028,-0.05739999935030937
1682997788669322000,9.258322021484375,-0.053700000047683716,-0.03370000049471855,-0.017799999564886093
1682997788689322000,9.278322021484374,-0.03350000083446503,0.015199999324977398,0.04999999701976776
1682997788709322000,9.298322021484376,-0.043299999088048935,-0.06319999694824219,0.010300000198185444
1682997788729322000,9.318322021484375,-0.03350000083446503,-0.014099999330937862,0.010499999858438969
1682997788749322000,9.338322021484375,-0.05289999768137932,0.005399999674409628,0.03999999910593033
1682997788769322000,9.358322021484375,-0.0729999989271164,-0.05329999700188637,-0.02759999968111515
1682997788789322000,9.378322021484376,-0.08449999988079071,-0.07279999554157257,-0.03629999980330467
1682997788809322000,9.398322021484375,-0.04839999973773956,-0.0139999995008111,0.002899999963119626
1682997788829322000,9.418322021484375,0.06439999490976334,-0.00419999985024333,0.021900000050663948
1682997788849322000,9.438322021484375,0.10049999505281448,-0.1021999940276146,0.01249999925494194
1682997788869322000,9.458322021484374,0.013299999758601189,-0.013899999670684338,-0.0066999997943639755
1682997788889322000,9.478322021484376,-0.061400000005960464,0.00559999980032444,-0.00699999975040555
1682997788909322000,9.498322021484375,-0.06729999929666519,-0.07279999554157257,-0.03659999743103981
1682997788929322000,9.518322021484375,-0.08449999988079071,-0.03370000049471855,0.0015999999595806003
1682997788949322000,9.538322021484374,-0.053999997675418854,-0.023899998515844345,0.020399998873472214
1682997788969322000,9.558322021484376,-0.02449999935925007,-0.04360000044107437,-0.019199999049305916
1682997788989322000,9.578322021484375,-0.015099999494850636,-0.024000000208616257,0.03869999945163727
1682997789009322000,9.598322021484375,0.013899999670684338,-0.05350000038743019,0.028099998831748962
1682997789029322000,9.618322021484374,-0.014499999582767487,-0.0142000000923872,-0.03999999910593033
1682997789049322000,9.638322021484376,-0.032099999487400055,-0.0142000000923872,-0.03989999741315842
1682997789069322000,9.658322021484375,-0.03889999911189079,-0.033900000154972076,0.03779999911785126
1682997789089322000,9.678322021484375,-0.04559999704360962,-0.08299999684095383,0.037299998104572296
1682997789109322000,9.698322021484374,-0.07129999995231628,-0.014299999922513962,-0.02070000022649765
1682997789129322000,9.718322021484376,-0.06929999589920044,-0.014299999922513962,-0.05889999866485596
1682997789149322000,9.738322021484375,-0.06870000064373016,-0.014299999922513962,-0.029500000178813934
1682997789169322000,9.758322021484375,-0.021399999037384987,-0.053599998354911804,0.10589999705553055
1682997789189322000,9.778322021484374,0.02539999969303608,-0.03399999812245369,0.007499999832361937
1682997789209322000,9.798322021484376,0.005699999630451202,-0.043699998408555984,-0.04999999701976776
1682997789229322000,9.818322021484375,-0.05139999836683273,-0.02410000003874302,-0.04989999905228615
1682997789249322000,9.838322021484375,-0.06859999895095825,-0.06340000033378601,0.007899999618530273
1682997789269322000,9.858322021484375,-0.06689999997615814,-0.014499999582767487,0.02589999884366989
1682997789289322000,9.878322021484376,-0.06599999964237213,-0.004699999932199717,0.015099999494850636
1682997789309322000,9.898322021484375,-0.04609999805688858,-0.024399999529123306,0.034299999475479126
1682997789329325300,9.9183251953125,-0.056199997663497925,-0.05379999801516533,-0.08329999446868896
1682997789349322000,9.938322021484375,-0.06589999794960022,-0.034199997782707214,-0.03519999980926514
1682997789369323500,9.958323486328124,-0.06679999828338623,0.014499999582767487,0.0794999971985817
1682997789389323500,9.978323486328126,-0.039400000125169754,-0.04429999738931656,0.06799999624490738
1682997789409323500,9.998323486328125,0.04639999940991402,-0.09319999814033508,-0.00930000003427267
1682997789429323500,10.018323486328125,-0.041099999099969864,0.014599999412894249,-0.06669999659061432
1682997789449322000,10.038322021484374,-0.06749999523162842,0.014599999412894249,0.0210999995470047
1682997789469323500,10.058323486328124,-0.06480000168085098,-0.093299999833107,-0.00930000003427267
1682997789489322000,10.078322021484375,-0.06309999525547028,-0.04429999738931656,-0.00989999994635582
1682997789509325300,10.0983251953125,-0.06129999831318855,0.014399999752640724,-0.020399998873472214
1682997789529323500,10.118323486328125,-0.031199999153614044,-0.04439999908208847,-0.001999999862164259
1682997789549322000,10.138322021484376,-0.059699997305870056,-0.05429999902844429,-0.003499999875202775
1682997789569322000,10.158322021484375,-0.0786999985575676,-0.044599998742341995,0.04439999908208847
1682997789589322000,10.178322021484375,-0.03999999910593033,-0.005399999674409628,0.06300000101327896
1682997789609322000,10.198322021484374,-0.031199999153614044,-0.03480000048875809,-0.015199999324977398
1682997789629323500,10.218323486328124,-0.021699998527765274,-0.044499997049570084,-0.004600000102072954
1682997789649323500,10.238323486328126,-0.0405999980866909,-0.015099999494850636,-0.004600000102072954
1682997789669323500,10.258323486328125,-0.04919999837875366,-0.02499999850988388,0.043299999088048935
1682997789689323500,10.278323486328125,-0.04769999906420708,-0.015199999324977398,-0.005799999926239252
1682997789709322000,10.298322021484376,-0.03680000081658363,-0.03480000048875809,0.023399999365210533
1682997789729322000,10.318322021484375,-0.05480000004172325,-0.025100000202655792,0.003499999875202775
1682997789749322000,10.338322021484375,-0.06289999932050705,-0.01529999915510416,0.022499999031424522
1682997789769322000,10.358322021484375,-0.05309999734163284,-0.01529999915510416,0.03139999881386757
1682997789789322000,10.378322021484376,0.0038999998942017555,-0.07419999688863754,0.031300000846385956
1682997789809322000,10.398322021484375,-0.04609999805688858,-0.025100000202655792,-0.056299999356269836
1682997789829322000,10.418322021484375,-0.03610000014305115,0.0139999995008111,0.031700000166893005
1682997789849322000,10.438322021484375,-0.026200000196695328,-0.06439999490976334,0.0405999980866909
1682997789869322000,10.458322021484374,-0.05469999834895134,-0.025100000202655792,-0.027300000190734863
1682997789889322000,10.478322021484376,-0.053599998354911804,0.00419999985024333,0.002199999988079071
1682997789909322000,10.498322021484375,-0.05339999869465828,-0.04479999840259552,0.021399999037384987
1682997789929322000,10.518322021484375,-0.05329999700188637,-0.025100000202655792,-0.01759999990463257
1682997789949322000,10.538322021484374,-0.014800000004470348,-0.025100000202655792,0.011799999512732029
1682997789969322000,10.558322021484376,-0.01529999915510416,-0.025100000202655792,-0.006899999920278788
1682997789989322000,10.578322021484375,-0.04439999908208847,-0.02499999850988388,-0.006099999882280827
1682997790009322000,10.598322021484375,-0.07249999791383743,-0.015199999324977398,0.0044999998062849045
1682997790029322000,10.618322021484374,-0.05289999768137932,-0.07400000095367432,0.014499999582767487
1682997790049322000,10.638322021484376,-0.034699998795986176,0.004299999680370092,-0.014499999582767487
1682997790069322000,10.658322021484375,0.01249999925494194,-0.015199999324977398,0.03439999744296074
1682997790089322000,10.678322021484375,-0.007599999662488699,-0.024899998679757118,0.01549999974668026
1682997790109322000,10.698322021484374,-0.036399997770786285,-0.05429999902844429,0.03539999946951866
1682997790129322000,10.718322021484376,-0.05379999801516533,-0.015099999494850636,0.00699999975040555
1682997790149322000,10.738322021484375,-0.05219999700784683,-0.03460000082850456,0.027699999511241913
1682997790169322000,10.758322021484375,-0.11029999703168869,-0.024699999019503593,-0.07859999686479568
1682997790189322000,10.778322021484374,-0.052299998700618744,-0.01489999983459711,0.029600000008940697
1682997790209322000,10.798322021484376,0.013399999588727951,-0.06399999558925629,0.0681999996304512
1682997790229322000,10.818322021484375,-0.0279999990016222,-0.04429999738931656,-0.01860000006854534
1682997790249322000,10.838322021484375,0.000699999975040555,-0.004900000058114529,0.012299999594688416
1682997790269322000,10.858322021484375,0,-0.034299999475479126,-0.016099998727440834
1682997790289322000,10.878322021484376,0.010999999940395355,-0.06369999796152115,-0.01529999915510416
1682997790309322000,10.898322021484375,-0.05559999868273735,-0.02449999935925007,-0.034699998795986176
1682997790329322000,10.918322021484375,-0.06309999525547028,0.014599999412894249,0.04319999739527702
1682997790349322000,10.938322021484375,-0.05269999802112579,-0.053999997675418854,0.11109999567270279
1682997790369322000,10.958322021484374,-0.04319999739527702,-0.05389999970793724,-0.014599999412894249
1682997790389322000,10.978322021484376,-0.024000000208616257,-0.014499999582767487,-0.03150000050663948
1682997790409322000,10.998322021484375,-0.03370000049471855,-0.02419999986886978,-0.02979999966919422
1682997790429322000,11.018322021484375,-0.05269999802112579,0.005200000014156103,-0.019099999219179153
1682997790449322000,11.038322021484374,0.015599999576807022,-0.043800000101327896,-0.009200000204145908
1682997790469322000,11.058322021484376,0.005699999630451202,-0.053599998354911804,-0.01889999955892563
1682997790489322000,11.078322021484375,-0.04129999876022339,0.014999999664723873,-0.038599997758865356
1682997790509322000,11.098322021484375,-0.038599997758865356,-0.02419999986886978,0.03869999945163727
1682997790529322000,11.118322021484374,-0.04639999940991402,-0.10269999504089355,0.028199998661875725
1682997790549322000,11.138322021484376,-0.0737999975681305,-0.0340999998152256,-0.019899999722838402
1682997790569322000,11.158322021484375,-0.08259999752044678,0.024699999019503593,0.028999999165534973
1682997790589322000,11.178322021484375,-0.025200000032782555,-0.07329999655485153,0.04859999939799309
1682997790609322000,11.198322021484374,-0.02709999866783619,-0.07319999486207962,-0.08699999749660492
1682997790629322000,11.218322021484376,-0.018699999898672104,0.014999999664723873,0.030899999663233757
1682997790649322000,11.238322021484375,0.009499999694526196,-0.03399999812245369,0.049799997359514236
1682997790669322000,11.258322021484375,-0.029600000008940697,-0.0632999986410141,0.002099999925121665
1682997790689322000,11.278322021484374,-0.04829999804496765,0.0052999998442828655,-0.05480000004172325
1682997790709322000,11.298322021484376,-0.018199998885393143,-0.024000000208616257,0.004399999976158142
1682997790729322000,11.318322021484375,-0.027799999341368675,-0.05339999869465828,0.023899998515844345
1682997790749322000,11.338322021484375,-0.046799998730421066,-0.033799998462200165,-0.06359999626874924
1682997790769322000,11.358322021484375,-0.03680000081658363,-0.023899998515844345,0.025299999862909317
1682997790789322000,11.378322021484376,0.021399999037384987,-0.06309999525547028,0.044599998742341995
1682997790809322000,11.398322021484375,-0.03689999878406525,-0.023899998515844345,-0.0038999998942017555
1682997790829322000,11.418322021484375,-0.04470000043511391,-0.04349999874830246,0.006799999624490738
1682997790849322000,11.438322021484375,-0.07259999960660934,-0.00419999985024333,-0.0018999999156221747
1682997790869322000,11.458322021484374,-0.042899999767541885,-0.02369999885559082,-0.030299998819828033
1682997790889322000,11.478322021484376,-0.053599998354911804,-0.02369999885559082,-0.02979999966919422
1682997790909322000,11.498322021484375,0.0032999999821186066,-0.03350000083446503,0.06780000030994415
1682997790929322000,11.518322021484375,-0.007999999448657036,-0.06289999932050705,0.009399999864399433
1682997790949322000,11.538322021484374,-0.027799999341368675,-0.013799999840557575,-0.038100000470876694
1682997790969322000,11.558322021484376,-0.04690000042319298,-0.013799999840557575,0.030899999663233757
1682997790989322000,11.578322021484375,-0.02709999866783619,-0.04319999739527702,-0.01769999973475933
1682997791009322000,11.598322021484375,-0.04659999907016754,-0.033299997448921204,-0.026799999177455902
1682997791029322000,11.618322021484374,-0.03669999912381172,-0.013700000010430813,0.021900000050663948
1682997791049322000,11.638322021484376,-0.0568000003695488,-0.06279999762773514,-0.02709999866783619
1682997791069322000,11.658322021484375,-0.07729999721050262,-0.023499999195337296,0.002300000051036477
1682997791089322000,11.678322021484375,-0.011599999852478504,-0.013700000010430813,0.04099999740719795
1682997791109322000,11.698322021484374,0.03399999812245369,-0.04309999942779541,-0.0071000000461936
1682997791129322000,11.718322021484376,-0.025999998673796654,-0.04309999942779541,-0.045499999076128006
1682997791149322000,11.738322021484375,-0.05460000038146973,-0.0037999998312443495,0.032999999821186066
1682997791169322000,11.758322021484375,-0.03579999879002571,-0.06269999593496323,-0.006300000008195639
1682997791189322000,11.778322021484374,0.0016999999061226845,-0.06260000169277191,-0.01589999906718731
1682997791209322000,11.798322021484376,-0.008499999530613422,-0.013599999248981476,-0.01589999906718731
1682997791229322000,11.818322021484375,-0.057099997997283936,-0.023499999195337296,-0.007199999876320362
1682997791249322000,11.838322021484375,-0.05700000002980232,-0.023599999025464058,0.0892999991774559
1682997791269322000,11.858322021484375,0,-0.05299999937415123,0.02070000022649765
1682997791289322000,11.878322021484376,-0.000699999975040555,-0.033299997448921204,-0.02669999934732914
1682997791309322000,11.898322021484375,-0.05920000001788139,-0.013599999248981476,-0.045399997383356094
1682997791329322000,11.918322021484375,-0.05819999799132347,-0.013599999248981476,-0.045399997383356094
1682997791349322000,11.938322021484375,0.00029999998514540493,-0.05289999768137932,0.0026000000070780516
1682997791369322000,11.958322021484374,0.00029999998514540493,-0.04309999942779541,0.030799999833106995
1682997791389322000,11.978322021484376,-0.0279999990016222,0.015599999576807022,-0.018799999728798866
1682997791409322000,11.998322021484375,-0.045099999755620956,-0.033399999141693115,0.019500000402331352
1682997791429322000,12.018322021484375,-0.05249999836087227,-0.08259999752044678,0.008599999360740185
1682997791449322000,12.038322021484374,-0.050999999046325684,-0.013899999670684338,-0.031099999323487282
1682997791469322000,12.058322021484376,-0.05079999938607216,0.005499999970197678,0.05590000003576279
1682997791489322000,12.078322021484375,-0.011799999512732029,-0.03370000049471855,0.044499997049570084
1682997791509322000,12.098322021484375,-0.05040000006556511,-0.07289999723434448,-0.014099999330937862
1682997791529322000,12.118322021484374,-0.04939999803900719,0.015199999324977398,0.0348999984562397
1682997791549325300,12.1383251953125,-0.04839999973773956,-0.004299999680370092,-0.02369999885559082
1682997791569322000,12.158322021484375,-0.04800000041723251,-0.06309999525547028,-0.013700000010430813
1682997791589322000,12.178322021484375,-0.07719999551773071,-0.023899998515844345,0.014999999664723873
1682997791609322000,12.198322021484374,-0.05769999697804451,-0.0142000000923872,0.033900000154972076
1682997791629322000,12.218322021484376,-0.04939999803900719,-0.024000000208616257,0.004399999976158142
1682997791649322000,12.238322021484375,-0.05139999836683273,-0.05339999869465828,-0.034699998795986176
1682997791669322000,12.258322021484375,-0.0421999990940094,-0.024000000208616257,-0.035099998116493225
1682997791689322000,12.278322021484374,-0.0031999999191612005,0.015099999494850636,0.04149999842047691
1682997791709322000,12.298322021484376,0.035999998450279236,-0.053599998354911804,0.0689999982714653
1682997791729322000,12.318322021484375,-0.028999999165534973,-0.10260000079870224,-0.009200000204145908
1682997791749322000,12.338322021484375,-0.1103999987244606,0.01489999983459711,-0.08699999749660492
1682997791769322000,12.358322021484375,-0.11419999599456787,0.0050999997183680534,0.02929999865591526
1682997791789322000,12.378322021484376,-0.062199998646974564,-0.07339999824762344,0.02719999849796295
1682997791809322000,12.398322021484375,-0.07039999961853027,-0.034199997782707214,-0.02199999988079071
1682997791829322000,12.418322021484375,-0.059699997305870056,0.034299999475479126,-0.0023999998811632395
1682997791849322000,12.438322021484375,-0.03019999898970127,-0.034199997782707214,-0.022299999371170998
1682997791869322000,12.458322021484374,-0.03009999915957451,-0.06369999796152115,-0.022199999541044235
1682997791889322000,12.478322021484376,-0.04899999871850014,-0.034299999475479126,0.006399999838322401
1682997791909322000,12.498322021484375,-0.0279999990016222,0.004799999762326479,0.03480000048875809
1682997791929322000,12.518322021484375,-0.02719999849796295,-0.07360000163316727,-0.014499999582767487
1682997791949322000,12.538322021484374,-0.04479999840259552,-0.02459999918937683,-0.02449999935925007
1682997791969322000,12.558322021484376,-0.09189999848604202,0.004699999932199717,-0.045499999076128006
1682997791989322000,12.578322021484375,-0.052299998700618744,-0.024799998849630356,0.03959999978542328
1682997792009322000,12.598322021484375,-0.02449999935925007,-0.06419999897480011,0.03680000081658363
1682997792029322000,12.618322021484374,-0.017099998891353607,-0.015199999324977398,0.045399997383356094
1682997792049322000,12.638322021484376,-0.008700000122189522,-0.015199999324977398,-0.013100000098347664
1682997792069322000,12.658322021484375,-0.008799999952316284,-0.044599998742341995,0.016599999740719795
1682997792089322000,12.678322021484375,-0.01759999990463257,-0.06419999897480011,0.0066999997943639755
1682997792109322000,12.698322021484374,-0.034699998795986176,0.004299999680370092,-0.06149999797344208
1682997792129322000,12.718322021484376,-0.041999999433755875,-0.0348999984562397,0.025499999523162842
1682997792149322000,12.738322021484375,-0.0689999982714653,-0.06430000066757202,-0.004900000058114529
1682997792169322000,12.758322021484375,-0.05790000036358833,0.0139999995008111,0.04319999739527702
1682997792189322000,12.778322021484374,-0.019099999219179153,-0.03500000014901161,0.09119999408721924
1682997792209322000,12.798322021484376,-0.000699999975040555,-0.05460000038146973,-0.01529999915510416
1682997792229322000,12.818322021484375,-0.02029999904334545,-0.005399999674409628,-0.06260000169277191
1682997792249322000,12.838322021484375,-0.027799999341368675,-0.015199999324977398,-0.023099999874830246
1682997792269322000,12.858322021484375,-0.025200000032782555,-0.025100000202655792,0.015099999494850636
1682997792289322000,12.878322021484376,0.00559999980032444,-0.06430000066757202,0.02449999935925007
1682997792309322000,12.898322021484375,-0.020999999716877937,-0.01529999915510416,-0.05379999801516533
1682997792329322000,12.918322021484375,-0.027400000020861626,0.023799998685717583,-0.03439999744296074
1682997792349322000,12.938322021484375,-0.004799999762326479,-0.025299999862909317,0.07099999487400055
1682997792369322000,12.958322021484374,-0.0005999999702908099,-0.1136000007390976,0.020499998703598976
1682997792389322000,12.978322021484376,-0.0632999986410141,0.003999999724328518,-0.018799999728798866
1682997792409322000,12.998322021484375,-0.0771000012755394,0.013700000010430813,0.038599997758865356
1682997792429322000,13.018322021484375,-0.06319999694824219,-0.07449999451637268,0.027899999171495438
1682997792449322000,13.038322021484374,-0.041200000792741776,-0.06469999998807907,0.03749999776482582
1682997792469322000,13.058322021484376,-0.05949999764561653,0.04309999942779541,-0.0013000000035390258
1682997792489322000,13.078322021484375,-0.020600000396370888,-0.03519999980926514,-0.0008999999845400453
1682997792509322000,13.098322021484375,0.017500000074505806,-0.044999998062849045,-0.010099999606609344
1682997792529322000,13.118322021484374,0.01730000041425228,-0.005799999926239252,0.009399999864399433
1682997792549322000,13.138322021484376,0.019199999049305916,0.023499999195337296,0.0876999944448471
1682997792569322000,13.158322021484375,-0.03539999946951866,-0.1233999952673912,0.00019999999494757503
1682997792589322000,13.178322021484375,-0.16619999706745148,-0.05460000038146973,-0.09470000118017197
1682997792609322000,13.198322021484374,-0.21220000088214874,-0.005499999970197678,-0.02579999901354313
1682997792629322000,13.218322021484376,-0.08799999952316284,-0.025200000032782555,0.041200000792741776
1682997792649322000,13.238322021484375,0.021399999037384987,-0.04490000009536743,0.10859999805688858
1682997792669322000,13.258322021484375,0.09149999916553497,-0.01549999974668026,-0.007899999618530273
1682997792689322000,13.278322021484374,0.06749999523162842,-0.03500000014901161,-0.035599999129772186
1682997792709322000,13.298322021484376,-0.030299998819828033,-0.03500000014901161,-0.06449999660253525
1682997792729322000,13.318322021484375,-0.019500000402331352,0.013899999670684338,0.08139999955892563
1682997792749322000,13.338322021484375,0.019600000232458115,-0.06449999660253525,0.020999999716877937
1682997792769322000,13.358322021484375,-0.008100000210106373,-0.01549999974668026,-0.02709999866783619
1682997792789322000,13.378322021484376,-0.06359999626874924,-0.025299999862909317,0.021699998527765274
1682997792809322000,13.398322021484375,-0.11949999630451202,-0.01549999974668026,-0.017500000074505806
1682997792829322000,13.418322021484375,-0.03150000050663948,-0.035099998116493225,0.021699998527765274
1682997792849322000,13.438322021484375,0.015399999916553497,-0.035099998116493225,-0.06610000133514404
1682997792869322000,13.458322021484374,0.014499999582767487,-0.01549999974668026,0.021800000220537186
1682997792889322000,13.478322021484376,-0.004600000102072954,-0.02539999969303608,0.0689999982714653
1682997792909322000,13.498322021484375,-0.02199999988079071,-0.06459999829530716,-0.019199999049305916
1682997792929322000,13.518322021484375,-0.05009999871253967,-0.05480000004172325,-0.019199999049305916
1682997792949322000,13.538322021484374,-0.0494999997317791,-0.005799999926239252,0.02889999933540821
1682997792969322000,13.558322021484376,0.009099999442696571,-0.03519999980926514,0.03819999843835831
1682997792989322000,13.578322021484375,0.008700000122189522,-0.045099999755620956,0.018299998715519905
1682997793009322000,13.598322021484375,-0.03959999978542328,-0.05480000004172325,-0.02029999904334545
1682997793029322000,13.618322021484374,-0.029199998825788498,0.013700000010430813,0.018799999728798866
1682997793049322000,13.638322021484376,0.01899999938905239,-0.015699999406933784,0.04699999839067459
1682997793069322000,13.658322021484375,0.0279999990016222,-0.1039000004529953,-0.031300000846385956
1682997793089322000,13.678322021484375,-0.02850000001490116,0.023499999195337296,-0.03099999949336052
1682997793109322000,13.698322021484374,-0.06529999524354935,-0.015699999406933784,-0.04179999977350235
1682997793129322000,13.718322021484376,-0.02449999935925007,-0.03539999946951866,0.08410000056028366
1682997793149322000,13.738322021484375,-0.024799998849630356,-0.04529999941587448,0.07239999622106552
1682997793169322000,13.758322021484375,-0.034699998795986176,-0.015799999237060547,-0.014699999243021011
1682997793189322000,13.778322021484374,0.023599999025464058,-0.03539999946951866,0.005799999926239252
1682997793209322000,13.798322021484376,0.004100000020116568,-0.025599999353289604,-0.02319999970495701
1682997793229322000,13.818322021484375,-0.013100000098347664,-0.03529999777674675,0.016200000420212746
1682997793249322000,13.838322021484375,-0.029899999499320984,-0.054999999701976776,0.005699999630451202
1682997793269322000,13.858322021484375,-0.13419999182224274,-0.04519999772310257,-0.03319999948143959
1682997793289322000,13.878322021484376,-0.10379999876022339,0.013499999418854713,0.043800000101327896
1682997793309322000,13.898322021484375,-0.0279999990016222,-0.035499997437000275,0.032899998128414154
1682997793329322000,13.918322021484375,0.007799999788403511,-0.025699999183416367,-0.006300000008195639
1682997793349322000,13.938322021484375,-0.004799999762326479,-0.035499997437000275,0.013199999928474426
1682997793369322000,13.958322021484374,0.0037999998312443495,-0.025699999183416367,-0.006099999882280827
1682997793389322000,13.978322021484376,0.012799999676644802,-0.05509999766945839,0.032899998128414154
1682997793409322000,13.998322021484375,0.01269999984651804,-0.006099999882280827,-0.03539999946951866
1682997793429322000,14.018322021484375,0.023499999195337296,-0.025699999183416367,0.032899998128414154
1682997793449322000,14.038322021484374,-0.03350000083446503,-0.0648999959230423,-0.025599999353289604
1682997793469322000,14.058322021484376,-0.07029999792575836,-0.01589999906718731,-0.025599999353289604
1682997793489322000,14.078322021484375,-0.05920000001788139,-0.006099999882280827,0.04179999977350235
1682997793509322000,14.098322021484375,-0.029399998486042023,-0.01599999889731407,0.011799999512732029
1682997793529322000,14.118322021484374,-0.019700000062584877,-0.006099999882280827,0.011699999682605267
1682997793549322000,14.138322021484376,-0.02029999904334545,-0.0551999993622303,0.021399999037384987
1682997793569322000,14.158322021484375,-0.011500000022351742,-0.006099999882280827,0.011899999342858791
1682997793589322000,14.178322021484375,0.01679999940097332,-0.025699999183416367,0.0030999998562037945
1682997793609322000,14.198322021484374,0.016300000250339508,-0.035499997437000275,-0.03529999777674675
1682997793629322000,14.218322021484376,0.02709999866783619,-0.05509999766945839,0.0625
1682997793649322000,14.238322021484375,-0.00930000003427267,-0.01589999906718731,-0.006000000052154064
1682997793669322000,14.258322021484375,-0.01599999889731407,-0.054999999701976776,-0.024699999019503593
1682997793689322000,14.278322021484374,-0.08069999516010284,-0.04519999772310257,-0.03399999812245369
1682997793709322000,14.298322021484376,-0.15549999475479126,-0.04519999772310257,0.024699999019503593
1682997793729322000,14.318322021484375,-0.09609999507665634,-0.006000000052154064,0.0044999998062849045
1682997793749322000,14.338322021484375,0.017899999395012856,-0.03539999946951866,0.03399999812245369
1682997793769322000,14.358322021484375,0.014800000004470348,-0.06480000168085098,-0.003999999724328518
1682997793789322000,14.378322021484376,-0.035099998116493225,0.013599999248981476,-0.041999999433755875
1682997793809322000,14.398322021484375,-0.0058999997563660145,-0.03529999777674675,0.046299997717142105
1682997793829322000,14.418322021484375,-0.035099998116493225,-0.0940999984741211,0.026999998837709427
1682997793849322000,14.438322021484375,-0.10189999639987946,0.013799999840557575,-0.020399998873472214
1682997793869322000,14.458322021484374,-0.05209999904036522,-0.03519999980926514,0.05819999799132347
1682997793889322000,14.478322021484376,-0.04230000078678131,-0.08410000056028366,-0.028599999845027924
1682997793909322000,14.498322021484375,-0.08100000023841858,-0.015399999916553497,-0.007199999876320362
1682997793929322000,14.518322021484375,-0.060999996960163116,-0.005499999970197678,-0.0064999996684491634
1682997793949322000,14.538322021484374,-0.022599998861551285,-0.08399999886751175,0.06209999695420265
1682997793969322000,14.558322021484376,-0.042799998074769974,-0.01529999915510416,-0.005799999926239252
1682997793989322000,14.578322021484375,-0.07189999520778656,-0.025100000202655792,0.023799998685717583
1682997794009322000,14.598322021484375,-0.0722000002861023,-0.054499998688697815,0.043800000101327896
1682997794029322000,14.618322021484374,-0.03370000049471855,-0.044599998742341995,-0.003399999812245369
1682997794049322000,14.638322021484376,-0.03500000014901161,0.004399999976158142,-0.040699999779462814
1682997794069322000,14.658322021484375,0.032999999821186066,-0.014999999664723873,-0.019999999552965164
1682997794089322000,14.678322021484375,-0.04429999738931656,-0.014999999664723873,-0.03929999843239784
1682997794109322000,14.698322021484374,-0.04179999977350235,-0.05429999902844429,0.06799999624490738
1682997794129322000,14.718322021484376,-0.07919999957084656,-0.024899998679757118,0.05739999935030937
1682997794149322000,14.738322021484375,-0.03879999741911888,-0.03460000082850456,0.00009999999747378752
1682997794169322000,14.758322021484375,-0.018199998885393143,-0.024699999019503593,0.011599999852478504
1682997794189322000,14.778322021484374,-0.026499999687075615,-0.03439999744296074,-0.006399999838322401
1682997794209322000,14.798322021484376,-0.07360000163316727,-0.07360000163316727,-0.024899998679757118
1682997794229322000,14.818322021484375,-0.0819999948143959,0.004900000058114529,-0.03350000083446503
1682997794249322000,14.838322021484375,0.005499999970197678,-0.044099997729063034,0.03449999913573265
1682997794269322000,14.858322021484375,0.015199999324977398,-0.06369999796152115,0.004699999932199717
1682997794289322000,14.878322021484376,-0.07099999487400055,0.024399999529123306,-0.014699999243021011
1682997794309322000,14.898322021484375,-0.0502999983727932,-0.05389999970793724,0.07279999554157257
1682997794329322000,14.918322021484375,-0.05920000001788139,-0.05389999970793724,-0.0142000000923872
1682997794349322000,14.938322021484375,-0.02979999966919422,0.004900000058114529,0.01589999906718731
1682997794369322000,14.958322021484374,-0.0010999999940395355,-0.004799999762326479,-0.012799999676644802
1682997794389322000,14.978322021484376,-0.020800000056624413,-0.07339999824762344,-0.021699998527765274
1682997794409322000,14.998322021484375,-0.040300000458955765,-0.004699999932199717,0.01759999990463257
1682997794429322000,15.018322021484375,-0.0010999999940395355,-0.024299999698996544,0.03720000013709068
1682997794449322000,15.038322021484374,0.04769999906420708,-0.04389999806880951,-0.0010999999940395355
1682997794469322000,15.058322021484376,-0.028599999845027924,-0.02419999986886978,-0.029399998486042023
1682997794489322000,15.078322021484375,-0.06419999897480011,-0.02419999986886978,0.029399998486042023
1682997794509322000,15.098322021484375,-0.09079999476671219,-0.043800000101327896,0.00969999935477972
1682997794529322000,15.118322021484374,-0.07029999792575836,-0.043699998408555984,-0.02850000001490116
1682997794549322000,15.138322021484376,-0.031300000846385956,-0.02410000003874302,-0.008599999360740185
1682997794569322000,15.158322021484375,-0.012999999336898327,-0.043699998408555984,0.020899999886751175
1682997794589322000,15.178322021484375,-0.06239999830722809,-0.033900000154972076,-0.00839999970048666
1682997794609323500,15.198323486328125,-0.013700000010430813,-0.014299999922513962,0.00139999995008111
1682997794629322000,15.218322021484376,0.0044999998062849045,-0.033900000154972076,0.010999999940395355
1682997794649322000,15.238322021484375,0.004399999976158142,-0.02410000003874302,-0.04729999974370003
1682997794669322000,15.258322021484375,-0.0729999989271164,-0.02410000003874302,0.0016999999061226845
1682997794689322000,15.278322021484374,-0.06239999830722809,-0.0044999998062849045,0.0009999999310821295
1682997794709322000,15.298322021484376,0.004299999680370092,-0.043800000101327896,0.039799999445676804
1682997794729322000,15.318322021484375,0.05079999938607216,-0.053599998354911804,0.02019999921321869
1682997794749322000,15.338322021484375,0.0210999995470047,-0.03399999812245369,-0.01860000006854534
1682997794769322000,15.358322021484375,-0.005399999674409628,-0.02410000003874302,-0.028099998831748962
1682997794789322000,15.378322021484376,-0.011899999342858791,-0.06340000033378601,0.010300000198185444
1682997794809322000,15.398322021484375,-0.037299998104572296,-0.033900000154972076,-0.02929999865591526
1682997794829322000,15.418322021484375,-0.042899999767541885,0.005200000014156103,-0.0005999999702908099
1682997794849322000,15.438322021484375,-0.09869999438524246,-0.06340000033378601,0.02719999849796295
1682997794869322000,15.458322021484374,-0.10719999670982361,-0.07329999655485153,0.006799999624490738
1682997794889322000,15.478322021484376,-0.08869999647140503,0.01489999983459711,-0.012999999336898327
1682997794909322000,15.498322021484375,-0.0044999998062849045,-0.004799999762326479,0.0738999992609024
1682997794929322000,15.518322021484375,-0.00930000003427267,-0.09299999475479126,0.07400000095367432
1682997794949322000,15.538322021484374,0.02589999884366989,-0.014499999582767487,-0.0803999975323677
1682997794969322000,15.558322021484376,-0.016300000250339508,-0.043800000101327896,-0.06920000165700912
1682997794989322000,15.578322021484375,0.019899999722838402,-0.024299999698996544,-0.050200000405311584
1682997795009322000,15.598322021484375,0.057099997997283936,-0.024399999529123306,0.08449999988079071
1682997795029322000,15.618322021484374,0.04739999771118164,-0.05389999970793724,0.07319999486207962
1682997795049322000,15.638322021484376,-0.028099998831748962,-0.024399999529123306,-0.053199999034404755
1682997795069322000,15.658322021484375,-0.014599999412894249,-0.034199997782707214,0.006000000052154064
1682997795089322000,15.678322021484375,-0.09889999777078629,-0.014599999412894249,-0.023499999195337296
1682997795109322000,15.698322021484374,-0.057099997997283936,-0.04399999976158142,0.01549999974668026
1682997795129322000,15.718322021484376,-0.01769999973475933,-0.05379999801516533,0.005200000014156103
1682997795149322000,15.738322021484375,-0.03700000047683716,0.014699999243021011,-0.014599999412894249
1682997795169322000,15.758322021484375,-0.007799999788403511,-0.06369999796152115,0.02319999970495701
1682997795189322000,15.778322021484374,-0.03709999844431877,-0.02449999935925007,-0.00699999975040555
1682997795209322000,15.798322021484376,-0.017799999564886093,-0.004999999888241291,0.03059999831020832
1682997795229322000,15.818322021484375,0.021199999377131462,-0.044199999421834946,0.030399998649954796
1682997795249322000,15.838322021484375,-0.026399999856948853,-0.053999997675418854,-0.04769999906420708
1682997795269322000,15.858322021484375,-0.004399999976158142,-0.03439999744296074,0.03009999915957451
1682997795289322000,15.878322021484376,-0.041099999099969864,-0.004999999888241291,-0.04859999939799309
1682997795309322000,15.898322021484375,-0.04989999905228615,-0.11289999634027481,0.07759999483823776
1682997795329322000,15.918322021484375,-0.07800000160932541,0.0340999998152256,-0.05979999899864197
1682997795349322000,15.938322021484375,0.029199998825788498,-0.01489999983459711,0.04739999771118164
1682997795369322000,15.958322021484374,-0.03009999915957451,-0.14239999651908875,-0.050599999725818634
1682997795389322000,15.978322021484376,-0.07750000059604645,0.10269999504089355,-0.010599999688565731
1682997795409322000,15.998322021484375,0.04859999939799309,-0.0737999975681305,0.07539999485015869
1682997795429322000,16.018322021484376,0.028299998492002487,-0.16210000216960907,-0.08069999516010284
1682997795449323500,16.038323486328125,-0.08779999613761902,0.07319999486207962,-0.0414000004529953
1682997795469322000,16.058322021484376,-0.008899999782443047,-0.0052999998442828655,0.0737999975681305
1682997795489322000,16.078322021484375,0.0494999997317791,-0.171999990940094,0.06289999932050705
1682997795509323500,16.098323486328123,-0.02719999849796295,-0.014999999664723873,-0.033799998462200165
1682997795529323500,16.118323486328126,-0.06369999796152115,0.014399999752640724,-0.022699998691678047
1682997795549322000,16.138322021484374,-0.08169999718666077,-0.0737999975681305,-0.022499999031424522
1682997795569322000,16.158322021484373,-0.08209999650716782,-0.04439999908208847,0.04490000009536743
1682997795589323500,16.178323486328125,-0.01589999906718731,-0.044499997049570084,0.024699999019503593
1682997795609323500,16.198323486328125,-0.028999999165534973,-0.024899998679757118,-0.014399999752640724
1682997795629322000,16.218322021484376,-0.0421999990940094,-0.024899998679757118,-0.003999999724328518
1682997795649322000,16.238322021484375,-0.016099998727440834,-0.05429999902844429,0.025499999523162842
1682997795669322000,16.258322021484375,0.027899999171495438,-0.0738999992609024,-0.0031999999191612005
1682997795689322000,16.278322021484374,0.023899998515844345,0.0044999998062849045,-0.031700000166893005
1682997795709322000,16.298322021484374,0.0210999995470047,-0.024899998679757118,-0.002099999925121665
1682997795729322000,16.318322021484374,0.04010000079870224,-0.0738999992609024,-0.03150000050663948
1682997795749322000,16.338322021484377,-0.017400000244379044,-0.034699998795986176,0.06579999625682831
1682997795769322000,16.358322021484376,-0.08419999480247498,0.024000000208616257,-0.0031999999191612005
1682997795789322000,16.378322021484376,-0.01489999983459711,-0.08370000123977661,0.025999998673796654
1682997795809322000,16.398322021484375,-0.02449999935925007,-0.05429999902844429,0.016300000250339508
1682997795829322000,16.418322021484375,-0.04389999806880951,0.004399999976158142,-0.003000000026077032
1682997795849322000,16.438322021484375,-0.05339999869465828,-0.015099999494850636,-0.03219999745488167
1682997795869322000,16.458322021484374,0.004699999932199717,-0.05429999902844429,0.03579999879002571
1682997795889322000,16.478322021484374,0.013700000010430813,-0.044499997049570084,0.01599999889731407
1682997795909322000,16.498322021484373,0.014399999752640724,-0.024899998679757118,-0.041999999433755875
1682997795929322000,16.518322021484376,-0.0722000002861023,0.014299999922513962,-0.07119999825954437
1682997795949322000,16.538322021484376,-0.09059999883174896,-0.09359999746084213,-0.023399999365210533
1682997795969322000,16.558322021484376,-0.04169999808073044,-0.005499999970197678,0.07129999995231628
1682997795989322000,16.578322021484375,0.005799999926239252,-0.015399999916553497,0.11800000071525574
1682997796009322000,16.598322021484375,-0.004100000020116568,-0.03500000014901161,-0.04749999940395355
1682997796029322000,16.618322021484374,-0.003499999875202775,-0.06430000066757202,-0.016499999910593033
1682997796049322000,16.638322021484374,-0.04989999905228615,-0.015199999324977398,-0.016099998727440834
1682997796069322000,16.658322021484373,-0.0762999951839447,-0.03480000048875809,-0.025599999353289604
1682997796089322000,16.678322021484377,-0.0738999992609024,-0.03480000048875809,-0.015799999237060547
1682997796109322000,16.698322021484376,-0.08219999819993973,-0.03480000048875809,-0.01640000008046627
1682997796129322000,16.718322021484376,-0.07159999758005142,-0.015199999324977398,0.012000000104308128
1682997796149322000,16.738322021484375,-0.05199999734759331,-0.025100000202655792,0.04050000011920929
1682997796169322000,16.758322021484375,-0.041999999433755875,-0.0348999984562397,-0.018199998885393143
1682997796189322000,16.778322021484374,-0.012399999424815178,-0.054499998688697815,-0.008299999870359898
1682997796209322000,16.798322021484374,-0.011699999682605267,-0.054499998688697815,0.03019999898970127
1682997796229322000,16.818322021484374,-0.0486999973654747,-0.025100000202655792,0.019700000062584877
1682997796249322000,16.838322021484377,-0.08509999513626099,-0.0348999984562397,0.00019999999494757503
1682997796269322000,16.858322021484376,-0.06359999626874924,-0.0348999984562397,-0.01979999989271164
1682997796289322000,16.878322021484376,-0.07249999791383743,-0.025200000032782555,0.05769999697804451
1682997796309322000,16.898322021484375,-0.0722000002861023,0.00419999985024333,-0.010900000110268593
1682997796329322000,16.918322021484375,-0.06289999932050705,-0.04479999840259552,-0.03969999775290489
1682997796349322000,16.938322021484375,-0.06419999897480011,-0.05460000038146973,-0.010199999436736107
1682997796369322000,16.958322021484374,-0.036399997770786285,0.00419999985024333,-0.0005999999702908099
1682997796389322000,16.978322021484374,0.00029999998514540493,-0.05460000038146973,-0.00139999995008111
1682997796409322000,16.998322021484373,-0.02029999904334545,-0.03500000014901161,0.008200000040233135
1682997796429322000,17.018322021484376,-0.04010000079870224,-0.025299999862909317,0.007999999448657036
1682997796449322000,17.038322021484376,-0.010699999518692493,-0.04479999840259552,-0.01119999960064888
1682997796469322000,17.058322021484376,-0.02019999921321869,-0.025200000032782555,-0.020899999886751175
1682997796489322000,17.078322021484375,-0.06769999861717224,-0.025200000032782555,0.008200000040233135
1682997796509322000,17.098322021484375,-0.07569999992847443,-0.07429999858140945,-0.0015999999595806003
1682997796529322000,17.118322021484374,-0.08449999988079071,-0.025200000032782555,-0.030899999663233757
1682997796549322000,17.138322021484374,-0.045399997383356094,0.013899999670684338,0.04659999907016754
1682997796569322000,17.158322021484373,0.02149999886751175,-0.07429999858140945,0.05559999868273735
1682997796589322000,17.178322021484377,0.0011999999405816197,-0.08410000056028366,-0.03179999813437462
1682997796609322000,17.198322021484376,-0.06610000133514404,0.013899999670684338,-0.05009999871253967
1682997796629322000,17.218322021484376,-0.07440000027418137,-0.00559999980032444,-0.0015999999595806003
1682997796649322000,17.238322021484375,-0.035099998116493225,-0.08410000056028366,0.046299997717142105
1682997796669322000,17.258322021484375,-0.044999998062849045,-0.00559999980032444,-0.0023999998811632395
1682997796689322000,17.278322021484374,-0.006399999838322401,-0.015399999916553497,0.026999998837709427
1682997796709322000,17.298322021484374,-0.0357000008225441,-0.025200000032782555,-0.03139999881386757
1682997796729322000,17.318322021484374,-0.006000000052154064,-0.03500000014901161,0.007699999958276749
1682997796749322000,17.338322021484377,-0.03500000014901161,-0.04490000009536743,0.017099998891353607
1682997796769322000,17.358322021484376,-0.0632999986410141,-0.00559999980032444,-0.02149999886751175
1682997796789322000,17.378322021484376,-0.014099999330937862,-0.04490000009536743,0.04659999907016754
1682997796809322000,17.398322021484375,-0.0429999977350235,-0.03500000014901161,-0.0510999970138073
1682997796829322000,17.418322021484375,-0.03229999914765358,-0.00559999980032444,0.03669999912381172
1682997796849322000,17.438322021484375,-0.021900000050663948,-0.015399999916553497,0.01679999940097332
1682997796869322000,17.458322021484374,0.007899999618530273,-0.05460000038146973,-0.0018999999156221747
1682997796889322000,17.478322021484374,-0.02979999966919422,-0.0348999984562397,-0.00039999998989515007
1682997796909322000,17.498322021484373,-0.046699997037649155,-0.0543999969959259,0.0004999999655410647
1682997796929322000,17.518322021484376,-0.08320000022649765,-0.0052999998442828655,-0.056599996984004974
1682997796949322000,17.538322021484376,-0.05269999802112579,-0.09359999746084213,-0.007799999788403511
1682997796969322000,17.558322021484376,-0.08139999955892563,0.004299999680370092,-0.03839999809861183
1682997796989322000,17.578322021484375,-0.0038999998942017555,-0.025100000202655792,0.057499997317790985
1682997797009322000,17.598322021484375,0.02410000003874302,-0.04479999840259552,0.0559999980032444
1682997797029322000,17.618322021484374,0.014299999922513962,-0.03500000014901161,0.05590000003576279
1682997797049322000,17.638322021484374,-0.05289999768137932,-0.04470000043511391,-0.04989999905228615
1682997797069322000,17.658322021484373,-0.032099999487400055,-0.015199999324977398,-0.05790000036358833
1682997797089322000,17.678322021484377,-0.011699999682605267,-0.02499999850988388,0.03009999915957451
1682997797109322000,17.698322021484376,-0.010199999436736107,-0.02499999850988388,0.000699999975040555
1682997797129322000,17.718322021484376,-0.018199998885393143,-0.024899998679757118,-0.01889999955892563
1682997797149322000,17.738322021484375,-0.03539999946951866,-0.05429999902844429,-0.038100000470876694
1682997797169322000,17.758322021484375,-0.052299998700618744,-0.034699998795986176,-0.018699999898672104
1682997797189322000,17.778322021484374,-0.0210999995470047,-0.024899998679757118,0.05829999968409538
1682997797209322000,17.798322021484374,-0.019500000402331352,-0.02499999850988388,-0.010900000110268593
1682997797229322000,17.818322021484374,-0.05689999833703041,-0.07400000095367432,0.028099998831748962
1682997797249322000,17.838322021484377,-0.11329999566078186,-0.024899998679757118,0.008499999530613422
1682997797269322000,17.858322021484376,-0.033900000154972076,-0.015099999494850636,0.06719999760389328
1682997797289322000,17.878322021484376,-0.015199999324977398,-0.05429999902844429,-0.010400000028312206
1682997797309322000,17.898322021484375,-0.005399999674409628,-0.04439999908208847,-0.008700000122189522
1682997797329322000,17.918322021484375,-0.06350000202655792,-0.024799998849630356,0.021299999207258224
1682997797349322000,17.938322021484375,-0.03350000083446503,-0.0050999997183680534,-0.02669999934732914
1682997797369322000,17.958322021484374,0.0050999997183680534,-0.1030999943614006,0.03219999745488167
1682997797389322000,17.978322021484374,-0.03399999812245369,-0.014800000004470348,-0.025299999862909317
1682997797409322000,17.998322021484373,-0.03399999812245369,-0.03439999744296074,0.02410000003874302
1682997797429322000,18.018322021484376,-0.05299999937415123,-0.004900000058114529,-0.04349999874830246
1682997797449322000,18.038322021484376,0.014099999330937862,-0.06379999965429306,0.03480000048875809
1682997797469322000,18.058322021484376,0.02290000021457672,-0.014800000004470348,-0.02369999885559082
1682997797489322000,18.078322021484375,0.02290000021457672,-0.02449999935925007,-0.0032999999821186066
1682997797509322000,18.098322021484375,-0.014399999752640724,-0.034299999475479126,0.01640000008046627
1682997797529322000,18.118322021484374,-0.04039999842643738,-0.06369999796152115,0.065700002014637
1682997797549322000,18.138322021484374,-0.11490000039339066,-0.014499999582767487,-0.06019999831914902
1682997797569322000,18.158322021484373,-0.1030999943614006,-0.03399999812245369,-0.029500000178813934
1682997797589322000,18.178322021484377,-0.06459999829530716,-0.03399999812245369,-0.019199999049305916
1682997797609322000,18.198322021484376,-0.008599999360740185,-0.014399999752640724,0.029600000008940697
1682997797629322000,18.218322021484376,0.056699998676776886,-0.04389999806880951,0.01979999989271164
1682997797649322000,18.238322021484375,0.035499997437000275,-0.06340000033378601,0.021399999037384987
1682997797669322000,18.258322021484375,-0.012399999424815178,-0.014299999922513962,-0.04519999772310257
1682997797689322000,18.278322021484374,-0.03989999741315842,-0.033799998462200165,-0.004299999680370092
1682997797709322000,18.298322021484374,-0.01850000023841858,-0.04349999874830246,-0.003599999938160181
1682997797729322000,18.318322021484374,-0.056199997663497925,-0.03370000049471855,0.0357000008225441
1682997797749322000,18.338322021484377,-0.0746999979019165,-0.04349999874830246,-0.00279999990016222
1682997797769322000,18.358322021484376,-0.06469999998807907,-0.0139999995008111,-0.0018999999156221747
1682997797789322000,18.378322021484376,-0.04649999737739563,-0.04339999705553055,0.00839999970048666
1682997797809322000,18.398322021484375,-0.05779999867081642,-0.053199999034404755,-0.02029999904334545
1682997797829322000,18.418322021484375,-0.040699999779462814,0.015399999916553497,-0.03909999877214432
1682997797849322000,18.438322021484375,0.0044999998062849045,-0.03359999880194664,0.03920000046491623
1682997797869322000,18.458322021484374,-0.008100000210106373,-0.04339999705553055,-0.03819999843835831
1682997797889322000,18.478322021484374,-0.029600000008940697,-0.05309999734163284,0.012000000104308128
1682997797909322000,18.498322021484373,-0.0016999999061226845,-0.013899999670684338,-0.0064999996684491634
1682997797929322000,18.518322021484376,0.03659999743103981,-0.03350000083446503,0.003999999724328518
1682997797949322000,18.538322021484376,-0.01119999960064888,-0.05299999937415123,-0.04339999705553055
1682997797969322000,18.558322021484376,-0.07699999958276749,-0.013700000010430813,-0.07199999690055847
1682997797989322000,18.578322021484375,-0.06520000100135803,-0.0038999998942017555,0.0348999984562397
1682997798009322000,18.598322021484375,-0.006199999712407589,-0.04319999739527702,0.1216999962925911
1682997798029322000,18.618322021484374,-0.0066999997943639755,-0.06279999762773514,0.02459999918937683
1682997798049322000,18.638322021484374,-0.04580000042915344,0.006000000052154064,-0.05089999735355377
1682997798069322000,18.658322021484373,-0.025599999353289604,-0.03309999778866768,-0.01979999989271164
1682997798089322000,18.678322021484377,-0.035099998116493225,-0.07229999452829361,-0.05829999968409538
1682997798109322000,18.698322021484376,-0.0543999969959259,-0.032999999821186066,-0.02879999950528145
1682997798129322000,18.718322021484376,-0.0357000008225441,0.015799999237060547,-0.020499998703598976
1682997798149322000,18.738322021484375,-0.027300000190734863,-0.0429999977350235,-0.0017999999690800905
1682997798169322000,18.758322021484375,-0.04769999906420708,-0.023399999365210533,-0.002699999837204814
1682997798189322000,18.778322021484374,-0.04839999973773956,0.005799999926239252,0.03539999946951866
1682997798209322000,18.798322021484374,-0.029600000008940697,-0.04309999942779541,0.00559999980032444
1682997798229322000,18.818322021484374,-0.039799999445676804,-0.06279999762773514,0.00559999980032444
1682997798249322000,18.838322021484377,-0.04910000041127205,0.015599999576807022,0.006000000052154064
1682997798269322000,18.858322021484376,-0.05819999799132347,-0.033299997448921204,-0.0421999990940094
1682997798289322000,18.878322021484376,-0.0575999990105629,-0.05289999768137932,0.016499999910593033
1682997798309322000,18.898322021484375,-0.06619999557733536,-0.013700000010430813,0.045399997383356094
1682997798329322000,18.918322021484375,-0.08529999852180481,-0.023399999365210533,-0.022599998861551285
1682997798349322000,18.938322021484375,-0.0364999994635582,-0.0429999977350235,0.006799999624490738
1682997798369322000,18.958322021484374,-0.04659999907016754,-0.013599999248981476,-0.002899999963119626
1682997798389322000,18.978322021484374,-0.026999998837709427,-0.10189999639987946,0.016599999740719795
1682997798409322000,18.998322021484373,-0.09489999711513519,0.0058999997563660145,-0.09009999781847
1682997798429322000,19.018322021484376,-0.007199999876320362,-0.052799999713897705,0.056199997663497925
1682997798449322000,19.038322021484376,-0.026899999007582664,-0.023499999195337296,-0.02319999970495701
1682997798469322000,19.058322021484376,-0.016200000420212746,-0.05289999768137932,0.054999999701976776
1682997798489322000,19.078322021484375,-0.12219999730587006,-0.023499999195337296,-0.004100000020116568
1682997798509322000,19.098322021484375,-0.11099999397993088,-0.0037999998312443495,-0.013299999758601189
1682997798529322000,19.118322021484374,-0.03309999778866768,-0.08229999989271164,0.035099998116493225
1682997798549322000,19.138322021484374,-0.07239999622106552,0.015699999406933784,-0.052799999713897705
1682997798569322000,19.158322021484373,-0.033900000154972076,-0.013700000010430813,0.05419999733567238
1682997798589322000,19.178322021484377,-0.005200000014156103,-0.05299999937415123,-0.014800000004470348
1682997798609322000,19.198322021484376,-0.025100000202655792,-0.06279999762773514,0.03370000049471855
1682997798629322000,19.218322021484376,-0.06340000033378601,0.015599999576807022,-0.02499999850988388
1682997798649322000,19.238322021484375,-0.06279999762773514,-0.05299999937415123,-0.015399999916553497
1682997798669322000,19.258322021484375,-0.06309999525547028,-0.033399999141693115,-0.015399999916553497
1682997798689322000,19.278322021484374,-0.044199999421834946,-0.04319999739527702,0.0037999998312443495
1682997798709322000,19.298322021484374,-0.035099998116493225,-0.003999999724328518,-0.016099998727440834
1682997798729322000,19.318322021484374,-0.0064999996684491634,-0.05299999937415123,0.052299998700618744
1682997798749322000,19.338322021484377,-0.02669999934732914,-0.06279999762773514,-0.03539999946951866
1682997798769322000,19.358322021484376,-0.006799999624490738,-0.0038999998942017555,-0.024799998849630356
1682997798789322000,19.378322021484376,-0.03500000014901161,-0.08240000158548355,0.03350000083446503
1682997798809322000,19.398322021484375,-0.13050000369548798,0.005799999926239252,-0.04429999738931656
1682997798829322000,19.418322021484375,-0.06129999831318855,-0.033299997448921204,0.05379999801516533
1682997798849322000,19.438322021484375,-0.033299997448921204,-0.05289999768137932,-0.06309999525547028
1682997798869322000,19.458322021484374,-0.044599998742341995,0.015699999406933784,-0.07239999622106552
1682997798889322000,19.478322021484374,-0.01640000008046627,-0.023599999025464058,-0.034699998795986176
1682997798909322000,19.498322021484373,-0.01730000041425228,-0.05309999734163284,0.041600000113248825
1682997798929322000,19.518322021484376,-0.008100000210106373,-0.03359999880194664,0.11809999495744705
1682997798949322000,19.538322021484376,-0.017500000074505806,-0.03359999880194664,0.02070000022649765
1682997798969322000,19.558322021484376,-0.025999998673796654,-0.023599999025464058,-0.04529999941587448
1682997798989322000,19.578322021484375,-0.05389999970793724,-0.023499999195337296,-0.053599998354911804
1682997799009322000,19.598322021484375,-0.07189999520778656,-0.023499999195337296,-0.05329999700188637
1682997799029322000,19.618322021484374,-0.012999999336898327,-0.05289999768137932,0.02419999986886978
1682997799049322000,19.638322021484374,-0.003499999875202775,-0.033399999141693115,-0.045099999755620956
1682997799069322000,19.658322021484373,-0.041999999433755875,-0.023499999195337296,-0.05460000038146973
1682997799089322000,19.678322021484377,-0.09950000047683716,-0.003999999724328518,0.0030999998562037945
1682997799109322000,19.698322021484376,-0.0405999980866909,-0.03350000083446503,0.04039999842643738
1682997799129322000,19.718322021484376,-0.012299999594688416,-0.053199999034404755,0.03969999775290489
1682997799149322000,19.738322021484375,0.015799999237060547,-0.013899999670684338,-0.009099999442696571
1682997799169322000,19.758322021484375,0.005799999926239252,-0.05309999734163284,0.0009999999310821295
1682997799189322000,19.778322021484374,-0.04179999977350235,-0.013899999670684338,-0.04779999703168869
1682997799209322000,19.798322021484374,-0.04999999701976776,-0.06289999932050705,0.02029999904334545
1682997799229322000,19.818322021484374,-0.03920000046491623,-0.06300000101327896,0.039400000125169754
1682997799249322000,19.838322021484377,-0.05829999968409538,-0.004100000020116568,-0.07739999890327454
1682997799269322000,19.858322021484376,-0.04839999973773956,-0.02369999885559082,0.010599999688565731
1682997799289322000,19.878322021484376,-0.01979999989271164,-0.043299999088048935,0.019999999552965164
1682997799309322000,19.898322021484375,-0.03059999831020832,-0.06300000101327896,-0.04859999939799309
1682997799329322000,19.918322021484375,-0.011299999430775642,-0.013899999670684338,0.01979999989271164
1682997799349322000,19.938322021484375,-0.021399999037384987,-0.013899999670684338,0
1682997799369322000,19.958322021484374,-0.002199999988079071,-0.08259999752044678,-0.028699999675154686
1682997799389322000,19.978322021484374,-0.03139999881386757,-0.02369999885559082,0.010199999436736107
1682997799409322000,19.998322021484373,-0.0018999999156221747,0.015399999916553497,0.01939999870955944
1682997799429322000,20.018322021484376,-0.030499998480081558,-0.053199999034404755,0.00969999935477972
1682997799449322000,20.038322021484376,-0.03879999741911888,-0.013899999670684338,-0.028599999845027924
1682997799469322000,20.058322021484376,-0.0771000012755394,-0.043299999088048935,-0.028299998492002487
1682997799489322000,20.078322021484375,-0.027799999341368675,-0.03350000083446503,0.0009999999310821295
1682997799509322000,20.098322021484375,-0.03839999809861183,-0.013899999670684338,-0.02879999950528145
1682997799529322000,20.118322021484374,0.008899999782443047,-0.043299999088048935,0.009999999776482582
1682997799549322000,20.138322021484374,0.017500000074505806,-0.06300000101327896,0.04829999804496765
1682997799569322000,20.158322021484373,-0.06969999521970749,-0.0139999995008111,-0.020099999383091927
1682997799589322000,20.178322021484377,-0.04959999769926071,-0.03359999880194664,0.028699999675154686
1682997799609322000,20.198322021484376,-0.02029999904334545,-0.053199999034404755,-0.0008999999845400453
1682997799629322000,20.218322021484376,-0.029999999329447746,-0.04339999705553055,-0.019999999552965164
1682997799649322000,20.238322021484375,-0.06879999488592148,-0.02369999885559082,-0.03929999843239784
1682997799669322000,20.258322021484375,-0.04039999842643738,-0.023799998685717583,-0.02070000022649765
1682997799689322000,20.278322021484374,0.006899999920278788,-0.04360000044107437,0.04600000008940697
1682997799709323500,20.298323486328126,0.034299999475479126,-0.0731000006198883,0.06369999796152115
1682997799729323500,20.318323486328126,-0.034199997782707214,-0.02410000003874302,-0.014599999412894249
1682997799749322000,20.338322021484377,-0.03359999880194664,0.0052999998442828655,-0.03370000049471855
1682997799769323500,20.358323486328125,0.015099999494850636,-0.043699998408555984,0.014800000004470348
1682997799789322000,20.378322021484376,-0.003399999812245369,-0.043699998408555984,-0.01489999983459711
1682997799809322000,20.398322021484375,-0.011099999770522118,-0.014299999922513962,0.05309999734163284
1682997799829322000,20.418322021484375,-0.0965999960899353,-0.0142000000923872,0.013599999248981476
1682997799849322000,20.438322021484375,-0.08500000089406967,-0.033799998462200165,-0.02449999935925007
1682997799869322000,20.458322021484374,-0.05559999868273735,-0.06319999694824219,-0.053599998354911804
1682997799889322000,20.478322021484374,-0.026799999177455902,-0.033799998462200165,-0.0050999997183680534
1682997799909322000,20.498322021484373,-0.0279999990016222,-0.014299999922513962,0.0811999961733818
1682997799929322000,20.518322021484376,0.038599997758865356,-0.043800000101327896,0.07069999724626541
1682997799949322000,20.538322021484376,0.017899999395012856,-0.05350000038743019,-0.03500000014901161
1682997799969322000,20.558322021484376,-0.020499998703598976,0.005399999674409628,-0.07189999520778656
1682997799989322000,20.578322021484375,-0.07759999483823776,0.005399999674409628,0.0066999997943639755
1682997800009322000,20.598322021484375,-0.05719999969005585,-0.05329999700188637,0.026099998503923416
1682997800029322000,20.618322021484374,-0.028199998661875725,-0.05329999700188637,-0.0616999976336956
1682997800049322000,20.638322021484374,0,0.005399999674409628,-0.002899999963119626
1682997800069322000,20.658322021484373,0.017899999395012856,-0.04360000044107437,-0.023000000044703484
1682997800089322000,20.678322021484377,-0.02159999869763851,-0.0729999989271164,-0.00419999985024333
1682997800109322000,20.698322021484376,-0.04079999774694443,-0.014299999922513962,0.043299999088048935
1682997800129322000,20.718322021484376,-0.05009999871253967,-0.014299999922513962,0.013399999588727951
1682997800149322000,20.738322021484375,-0.04019999876618385,-0.043699998408555984,-0.01589999906718731
1682997800169322000,20.758322021484375,-0.011399999260902405,-0.043699998408555984,0.02290000021457672
1682997800189322000,20.778322021484374,-0.0414000004529953,-0.043699998408555984,-0.04519999772310257
1682997800209322000,20.798322021484374,-0.01249999925494194,-0.043699998408555984,-0.005699999630451202
1682997800229322000,20.818322021484374,-0.022599998861551285,-0.02410000003874302,0.013499999418854713
1682997800249322000,20.838322021484377,-0.022299999371170998,-0.033900000154972076,-0.025200000032782555
1682997800269322000,20.858322021484376,-0.01249999925494194,-0.05350000038743019,-0.02459999918937683
1682997800289322000,20.878322021484376,-0.06069999933242798,-0.0142000000923872,-0.024399999529123306
1682997800309322000,20.898322021484375,-0.05049999803304672,-0.05350000038743019,0.013599999248981476
1682997800329322000,20.918322021484375,-0.0705999955534935,-0.043699998408555984,0.022599998861551285
1682997800349322000,20.938322021484375,-0.013799999840557575,-0.004600000102072954,0.03179999813437462
1682997800369322000,20.958322021484374,0.04270000010728836,-0.03399999812245369,0.02199999988079071
1682997800389322000,20.978322021484374,0.02239999920129776,-0.06340000033378601,-0.03610000014305115
1682997800409322000,20.998322021484373,-0.06459999829530716,-0.02419999986886978,-0.016499999910593033
1682997800429322000,21.018322021484376,-0.07279999554157257,-0.014399999752640724,0.04169999808073044
1682997800449322000,21.038322021484376,-0.03280000016093254,-0.053599998354911804,-0.007199999876320362
1682997800469322000,21.058322021484376,-0.09989999979734421,0.005200000014156103,-0.026200000196695328
1682997800489322000,21.078322021484375,-0.06019999831914902,-0.02410000003874302,0.01269999984651804
1682997800509322000,21.098322021484375,-0.0414000004529953,-0.08299999684095383,-0.016599999740719795
1682997800529322000,21.118322021484374,-0.042500000447034836,0.005200000014156103,-0.026099998503923416
1682997800549322000,21.138322021484374,-0.013899999670684338,-0.004600000102072954,0.022099999710917473
1682997800569322000,21.158322021484373,-0.04319999739527702,-0.053700000047683716,0.021199999377131462
1682997800589322000,21.178322021484377,-0.0908999964594841,-0.043800000101327896,0.0017999999690800905
1682997800609322000,21.198322021484376,-0.08989999443292618,-0.014399999752640724,-0.01759999990463257
1682997800629322000,21.218322021484376,-0.06019999831914902,-0.053599998354911804,-0.027400000020861626
1682997800649322000,21.238322021484375,-0.07909999787807465,-0.004600000102072954,0.020999999716877937
1682997800669322000,21.258322021484375,-0.04089999943971634,-0.04389999806880951,0.019899999722838402
1682997800689322000,21.278322021484374,-0.011899999342858791,-0.014399999752640724,-0.018799999728798866
1682997800709322000,21.298322021484374,-0.04099999740719795,-0.06350000202655792,-0.018799999728798866
1682997800729322000,21.318322021484374,-0.12789998948574066,0.01489999983459711,-0.018799999728798866
1682997800749322000,21.338322021484377,-0.0494999997317791,-0.0340999998152256,0.05819999799132347
1682997800769322000,21.358322021484376,-0.021800000220537186,-0.07339999824762344,-0.02969999983906746
1682997800789322000,21.378322021484376,-0.022599998861551285,-0.0340999998152256,-0.00989999994635582
1682997800809322000,21.398322021484375,-0.0414000004529953,0.03439999744296074,-0.01979999989271164
1682997800829322000,21.418322021484375,-0.06069999933242798,-0.09299999475479126,-0.00009999999747378752
1682997800849322000,21.438322021484375,-0.05999999865889549,-0.04389999806880951,-0.0007999999797903001
1682997800869322000,21.458322021484374,-0.06949999928474426,-0.004799999762326479,0.02709999866783619
1682997800889322000,21.478322021484374,-0.03989999741315842,-0.044099997729063034,0.05590000003576279
1682997800909322000,21.498322021484373,-0.06039999797940254,-0.05389999970793724,0.006899999920278788
1682997800929322000,21.518322021484376,-0.04209999740123749,-0.014599999412894249,-0.0016999999061226845
1682997800949322000,21.538322021484376,-0.02410000003874302,-0.014599999412894249,-0.029999999329447746
1682997800969322000,21.558322021484376,-0.053700000047683716,-0.0340999998152256,-0.01939999870955944
1682997800989322000,21.578322021484375,-0.04360000044107437,-0.014499999582767487,0.05849999934434891
1682997801009322000,21.598322021484375,-0.014699999243021011,-0.05379999801516533,-0.00029999998514540493
1682997801029322000,21.618322021484374,-0.024799998849630356,-0.0340999998152256,-0.04779999703168869
1682997801049322000,21.638322021484374,-0.043699998408555984,0.0050999997183680534,-0.008200000040233135
1682997801069322000,21.658322021484373,-0.05289999768137932,-0.03399999812245369,-0.027699999511241913
1682997801089322000,21.678322021484377,-0.0032999999821186066,-0.043800000101327896,0.011299999430775642
1682997801109322000,21.698322021484376,-0.031599998474121094,-0.03399999812245369,0.030700000002980232
1682997801129322000,21.718322021484376,-0.06889999657869339,0.01489999983459711,0.011299999430775642
1682997801149322000,21.738322021484375,-0.02889999933540821,-0.053599998354911804,0.002099999925121665
1682997801169322000,21.758322021484375,-0.03830000013113022,-0.05350000038743019,-0.01640000008046627
1682997801189322000,21.778322021484374,-0.04729999974370003,-0.014299999922513962,0.042399998754262924
1682997801209322000,21.798322021484374,-0.06639999896287918,-0.024000000208616257,-0.015199999324977398
1682997801229322000,21.818322021484374,-0.017999999225139618,-0.06319999694824219,-0.004100000020116568
1682997801249322000,21.838322021484377,-0.008599999360740185,-0.03370000049471855,-0.03219999745488167
1682997801269322000,21.858322021484376,-0.047199998050928116,0.01529999915510416,-0.03199999779462814
1682997801289322000,21.878322021484376,-0.027400000020861626,-0.023899998515844345,0.055399999022483826
1682997801309322000,21.898322021484375,0.010900000110268593,-0.09259999543428421,0.006099999882280827
1682997801329322000,21.918322021484375,-0.008999999612569809,-0.0139999995008111,-0.011799999512732029
1682997801349322000,21.938322021484375,-0.018699999898672104,0.025100000202655792,0.008200000040233135
1682997801369322000,21.958322021484374,-0.008499999530613422,-0.053199999034404755,0.018400000408291817
1682997801389322000,21.978322021484374,-0.056599996984004974,-0.09239999949932098,0.009499999694526196
1682997801409322000,21.998322021484373,-0.12389999628067017,0.025299999862909317,-0.05810000002384186
1682997801429322000,22.018322021484376,-0.04559999704360962,-0.02369999885559082,0.02029999904334545
1682997801449322000,22.038322021484376,-0.05739999935030937,-0.08249999582767487,-0.05829999968409538
1682997801469322000,22.058322021484376,0.008999999612569809,-0.013899999670684338,0.019500000402331352
1682997801489322000,22.078322021484375,0.08509999513626099,-0.023799998685717583,0.08689999580383301
1682997801509322000,22.098322021484375,0.04639999940991402,-0.04339999705553055,-0.048899997025728226
1682997801529322000,22.118322021484374,-0.057499997317790985,-0.05309999734163284,0.0013000000035390258
1682997801549322000,22.138322021484374,-0.11149999499320984,-0.003999999724328518,-0.008100000210106373
1682997801569322000,22.158322021484373,-0.060099996626377106,-0.023499999195337296,0.041099999099969864
1682997801589322000,22.178322021484377,-0.020099999383091927,-0.07249999791383743,0.003499999875202775
1682997801609322000,22.198322021484376,-0.04839999973773956,0.006000000052154064,-0.09209999442100525
1682997801629322000,22.218322021484376,-0.008499999530613422,-0.02319999970495701,0.026099998503923416
1682997801649322000,22.238322021484375,0.030700000002980232,-0.07229999452829361,0.006199999712407589
1682997801669322000,22.258322021484375,0.003599999938160181,-0.042799998074769974,-0.0026000000070780516
1682997801689322000,22.278322021484374,-0.0414000004529953,-0.003499999875202775,-0.011500000022351742
1682997801709322000,22.298322021484374,-0.07609999924898148,-0.013199999928474426,0.01809999905526638
1682997801729322000,22.318322021484374,-0.07239999622106552,-0.062199998646974564,0.018299998715519905
1682997801749322000,22.338322021484377,-0.10909999907016754,-0.02279999852180481,-0.009499999694526196
1682997801769322000,22.358322021484376,-0.06939999759197235,-0.0031999999191612005,-0.0478999987244606
1682997801789322000,22.378322021484376,-0.060499999672174454,-0.0031999999191612005,0.00139999995008111
1682997801809322000,22.398322021484375,-0.013700000010430813,-0.06199999898672104,0.07979999482631683
1682997801829322000,22.418322021484375,0.003999999724328518,-0.032600000500679016,-0.01679999940097332
1682997801849322000,22.438322021484375,0.042399998754262924,-0.05199999734759331,-0.0139999995008111
1682997801869322000,22.458322021484374,0.0044999998062849045,-0.051899999380111694,-0.031099999323487282
1682997801889322000,22.478322021484374,-0.050599999725818634,-0.032099999487400055,-0.029199998825788498
1682997801909322000,22.498322021484373,-0.04659999907016754,0.0071000000461936,-0.04809999838471413
1682997801929322000,22.518322021484376,-0.05350000038743019,-0.08100000023841858,-0.04800000041723251
1682997801949322000,22.538322021484376,-0.09059999883174896,-0.03189999982714653,-0.06790000200271606
1682997801969322000,22.558322021484376,-0.06019999831914902,-0.0026000000070780516,0.018199998885393143
1682997801989322000,22.578322021484375,-0.030899999663233757,-0.0811999961733818,0.045399997383356094
1682997802009322000,22.598322021484375,-0.03099999949336052,-0.041999999433755875,0.0058999997563660145
1682997802029322000,22.618322021484374,-0.050200000405311584,-0.002699999837204814,-0.05199999734759331
1682997802049322000,22.638322021484374,0.007799999788403511,-0.06159999966621399,0.006399999838322401
1682997802069322000,22.658322021484373,-0.031300000846385956,-0.041999999433755875,-0.04270000010728836
1682997802089322000,22.678322021484377,-0.021299999207258224,0.006899999920278788,0.0543999969959259
1682997802109322000,22.698322021484376,-0.020899999886751175,-0.041999999433755875,-0.03370000049471855
1682997802129322000,22.718322021484376,-0.05939999967813492,-0.041999999433755875,-0.013499999418854713
1682997802149322000,22.738322021484375,-0.06870000064373016,-0.03219999745488167,0.015399999916553497
1682997802169322000,22.758322021484375,-0.04989999905228615,-0.02239999920129776,-0.013799999840557575
1682997802189322000,22.778322021484374,-0.002899999963119626,-0.06159999966621399,0.025200000032782555
1682997802209322000,22.798322021484374,-0.033799998462200165,-0.02239999920129776,-0.05260000005364418
1682997802229322000,22.818322021484374,-0.0050999997183680534,-0.00279999990016222,-0.013299999758601189
1682997802249322000,22.838322021484377,0.013499999418854713,-0.051899999380111694,0.02459999918937683
1682997802269322000,22.858322021484376,0.003700000001117587,-0.04209999740123749,0.023799998685717583
1682997802289322000,22.878322021484376,-0.043800000101327896,-0.03229999914765358,-0.025200000032782555
1682997802309322000,22.898322021484375,-0.07099999487400055,-0.022499999031424522,0.023799998685717583
1682997802329322000,22.918322021484375,-0.07009999454021454,-0.07149999588727951,-0.04439999908208847
1682997802349322000,22.938322021484375,-0.07959999889135361,-0.041999999433755875,-0.053700000047683716
1682997802369322000,22.958322021484374,-0.05139999836683273,-0.002899999963119626,0.013799999840557575
1682997802389322000,22.978322021484374,0.033900000154972076,-0.07159999758005142,0.02239999920129776
1682997802409322000,22.998322021484373,0.0414000004529953,-0.06189999729394913,-0.026399999856948853
1682997802429322000,23.018322021484376,-0.017099998891353607,-0.022599998861551285,-0.006599999964237213
1682997802449322000,23.038322021484376,-0.09369999915361404,0.0066999997943639755,-0.016599999740719795
1682997802469322000,23.058322021484376,-0.034299999475479126,-0.06189999729394913,0.0510999970138073
1682997802489322000,23.078322021484375,-0.0050999997183680534,-0.08150000125169754,0.0018999999156221747
1682997802509322000,23.098322021484375,-0.09269999712705612,0.0066999997943639755,-0.0559999980032444
1682997802529322000,23.118322021484374,-0.06300000101327896,-0.022599998861551285,0.0414000004529953
1682997802549322000,23.138322021484374,-0.0348999984562397,-0.09129999577999115,-0.017500000074505806
1682997802569322000,23.158322021484373,-0.026399999856948853,-0.003000000026077032,-0.007499999832361937
1682997802589322000,23.178322021484377,-0.009099999442696571,-0.022699998691678047,0.031599998474121094
1682997802609322000,23.198322021484376,0.009200000204145908,-0.08150000125169754,-0.026099998503923416
1682997802629322000,23.218322021484376,-0.0786999985575676,-0.022599998861551285,-0.0738999992609024
1682997802649322000,23.238322021484375,-0.06849999725818634,-0.0421999990940094,-0.09299999475479126
1682997802669322000,23.258322021484375,-0.010799999348819256,-0.04230000078678131,0.10989999771118164
1682997802689322000,23.278322021484374,-0.002099999925121665,-0.052299998700618744,0.07849999517202377
1682997802709322000,23.298322021484374,-0.01119999960064888,-0.032600000500679016,-0.008599999360740185
1682997802729322000,23.318322021484374,-0.04859999939799309,-0.022699998691678047,-0.026799999177455902
1682997802749322000,23.338322021484377,-0.12370000034570694,-0.0421999990940094,-0.08500000089406967
1682997802769322000,23.358322021484376,-0.10249999910593033,-0.012799999676644802,0.021900000050663948
1682997802789322000,23.378322021484376,-0.04479999840259552,-0.06189999729394913,-0.008700000122189522
1682997802809322000,23.398322021484375,-0.01679999940097332,-0.06199999898672104,-0.009399999864399433
1682997802829322000,23.418322021484375,-0.08559999614953995,-0.0031999999191612005,-0.039799999445676804
1682997802849322000,23.438322021484375,-0.07539999485015869,-0.052299998700618744,0.03700000047683716
1682997802869322000,23.458322021484374,-0.04609999805688858,-0.052400000393390656,0.02539999969303608
1682997802889322000,23.478322021484374,-0.06539999693632126,-0.023000000044703484,-0.0044999998062849045
1682997802909322000,23.498322021484373,-0.07409999519586563,-0.003399999812245369,0.03399999812245369
1682997802929322000,23.518322021484376,-0.06390000134706497,-0.06229999661445618,-0.005399999674409628
1682997802949322000,23.538322021484376,-0.1216999962925911,-0.03280000016093254,-0.044199999421834946
1682997802969322000,23.558322021484376,-0.09319999814033508,-0.003499999875202775,0.023799998685717583
1682997802989322000,23.578322021484375,0.0016999999061226845,-0.013299999758601189,0.023499999195337296
1682997803009322000,23.598322021484375,0.03839999809861183,-0.05249999836087227,-0.024799998849630356
1682997803029322000,23.618322021484374,0.009499999694526196,-0.04270000010728836,-0.023899998515844345
