time,seconds_elapsed,z,y,x
1682998609815763200,0.04976318359375,-0.6509999632835388,0.36229997873306274,-0.15079998970031738
1682998609835761700,0.06976171875,-0.6509999632835388,0.36229997873306274,-0.15079998970031738
1682998609855761700,0.08976171875,-0.11019999533891678,0.056199997663497925,-0.3951999843120575
1682998609875761700,0.10976171875,-0.171999990940094,-0.06729999929666519,-0.07289999723434448
1682998609895763200,0.12976318359375,-0.2938999831676483,-0.03759999945759773,0.3149999976158142
1682998609915761700,0.14976171875,-0.25270000100135803,0.06599999964237213,0.5857999920845032
1682998609935761700,0.16976171875,-0.23759999871253967,0.409199982881546,0.608299970626831
1682998609955760000,0.189760009765625,-0.5557000041007996,0.31929999589920044,0.4519999921321869
1682998609975761700,0.20976171875,-0.31769999861717224,0.2921999990940094,0.030700000002980232
1682998609995761700,0.22976171875,-0.025299999862909317,0.12459999322891235,0.039000000804662704
1682998610015761700,0.24976171875,0.20989999175071716,0.06449999660253525,0.28679999709129333
1682998610035761700,0.26976171875,0.20559999346733093,0.2825999855995178,0.19629999995231628
1682998610055763200,0.28976318359375,-0.4633999764919281,0.3005000054836273,0.43849998712539673
1682998610075763200,0.30976318359375,-0.19059999287128448,-0.14630000293254852,0.2410999983549118
1682998610095761700,0.32976171875,0.04519999772310257,0.23099999129772186,-0.18979999423027039
1682998610115763200,0.34976318359375,0.050200000405311584,-0.125900000333786,-0.6082000136375427
1682998610135763200,0.36976318359375,0.43629997968673706,-0.07779999822378159,-0.9661999940872192
1682998610155761700,0.38976171875,-0.18039999902248383,0.19329999387264252,-0.8385999798774719
1682998610175772700,0.409772705078125,-0.3019999861717224,-0.11329999566078186,-0.45479997992515564
1682998610195763200,0.42976318359375,-0.44589999318122864,-0.057099997997283936,0.6064000129699707
1682998610215763200,0.44976318359375,-0.1615999937057495,-0.05590000003576279,0.7173999547958374
1682998610235760000,0.469760009765625,-0.13179999589920044,0.6378999948501587,0.17229999601840973
1682998610255763200,0.48976318359375,-0.6132999658584595,0.2791000008583069,0.37059998512268066
1682998610275761700,0.50976171875,-0.2678000032901764,0.8453999757766724,0.23339998722076416
1682998610295761700,0.52976171875,0.03019999898970127,-0.6136999726295471,0.22519999742507935
1682998610315760000,0.549760009765625,-0.08079999685287476,-0.3188999891281128,0.04010000079870224
1682998610335760100,0.569760009765625,0.5756999850273132,1.3245999813079834,-1.0910999774932861
1682998610355761700,0.58976171875,0.9819999933242798,-0.009499999694526196,-0.3831999897956848
1682998610375761700,0.60976171875,0.33069998025894165,0.42969998717308044,0.05460000038146973
1682998610395760000,0.629760009765625,-0.40379998087882996,0.1639999896287918,0.3269999921321869
1682998610415763200,0.64976318359375,-1.0710999965667725,-0.42149999737739563,0.835099995136261
1682998610435763200,0.66976318359375,0.3008999824523926,0.03179999813437462,0.49959999322891235
1682998610455761700,0.68976171875,1.6488999128341675,0.26809999346733093,-0.029199998825788498
1682998610475761700,0.70976171875,1.4269999265670776,0.6585999727249146,-0.05920000001788139
1682998610495761700,0.72976171875,0.6796999573707581,-0.011500000022351742,0.27549999952316284
1682998610515761700,0.74976171875,-0.1143999993801117,-0.8015999794006348,0.5598999857902527
1682998610535761700,0.76976171875,-0.4594999849796295,-0.1387999951839447,-0.1761000007390976
1682998610555761700,0.78976171875,0.025200000032782555,0.48649999499320984,-0.6596999764442444
1682998610575763200,0.80976318359375,0.4788999855518341,-0.11429999768733978,0.4104999899864197
1682998610595761700,0.82976171875,0.4966000020503998,-0.37389999628067017,1.1161999702453613
1682998610615761700,0.84976171875,0.38609999418258667,-0.3287999927997589,0.8066999912261963
1682998610635761700,0.86976171875,0.11659999936819077,-0.0064999996684491634,0.6276999711990356
1682998610655761700,0.88976171875,-0.22349999845027924,-0.25929999351501465,0.7870000004768372
1682998610675775700,0.909775634765625,0.02929999865591526,-0.21609999239444733,0.5658999681472778
1682998610695763200,0.92976318359375,0.14259999990463257,0.02889999933540821,0.5072999596595764
1682998610715761700,0.94976171875,0.30159997940063477,0.0973999947309494,0.7290999889373779
1682998610735761700,0.96976171875,0.281499981880188,-0.02759999968111515,0.8608999848365784
1682998610755763200,0.98976318359375,0.11259999871253967,0.2595999836921692,-0.06539999693632126
1682998610775761700,1.00976171875,-0.0044999998062849045,0.11719999462366104,-0.06030000001192093
1682998610795761700,1.02976171875,-0.2669000029563904,0.2635999917984009,-0.2336999922990799
1682998610815763200,1.04976318359375,-0.34219998121261597,0.16830000281333923,-0.5182999968528748
1682998610835763200,1.06976318359375,-0.16189999878406525,0.08569999784231186,-0.528499960899353
1682998610855766300,1.089766357421875,0.375900000333786,0.11889999359846115,-0.3012999892234802
1682998610875763200,1.10976318359375,0.7746999859809875,0.09799999743700027,-0.031700000166893005
1682998610895761700,1.12976171875,0.6377999782562256,0.025100000202655792,-0.20019999146461487
1682998610915761700,1.14976171875,0.6996999979019165,0.7093999981880188,-0.24329999089241028
1682998610935761700,1.16976171875,0.8100000023841858,0.17139999568462372,-0.28700000047683716
1682998610955761700,1.18976171875,0.8894999623298645,0.3588999807834625,-0.22439999878406525
1682998610975761700,1.20976171875,0.8847000002861023,0.5992000102996826,0.20879998803138733
1682998610995761700,1.22976171875,0.6753999590873718,0.6485999822616577,0.14649999141693115
1682998611015761700,1.24976171875,0.5437999963760376,0.6832000017166138,0.17749999463558197
1682998611035761700,1.26976171875,0.6297000050544739,0.6852999925613403,0.3959999978542328
1682998611055761700,1.28976171875,0.6247999668121338,0.8621000051498413,0.3951999843120575
1682998611075761700,1.30976171875,0.15139999985694885,0.962399959564209,0.33980000019073486
1682998611095761700,1.32976171875,0.12950000166893005,0.9377999901771545,0.14749999344348907
1682998611115763200,1.34976318359375,0.3840999901294708,0.7554000020027161,0.08269999921321869
1682998611135764700,1.3697646484375,0.4925999939441681,0.7178999781608582,0.05379999801516533
1682998611155761700,1.38976171875,0.37770000100135803,0.6121999621391296,0.5180999636650085
1682998611175774200,1.409774169921875,0.05480000004172325,0.574400007724762,1.1761999130249023
1682998611195763200,1.42976318359375,-0.40070000290870667,0.5401999950408936,1.049299955368042
1682998611215763200,1.44976318359375,-0.4518999755382538,-0.17149999737739563,1.4400999546051025
1682998611235761700,1.46976171875,0.032999999821186066,-0.38679999113082886,1.4924999475479126
1682998611255761700,1.48976171875,0.4732999801635742,-0.019199999049305916,1.4412000179290771
1682998611275761700,1.50976171875,0.4430999755859375,0.3012999892234802,0.6482999920845032
1682998611295761700,1.52976171875,0.11580000072717667,-0.03199999779462814,0.04319999739527702
1682998611315761700,1.54976171875,0.22419999539852142,-0.9539999961853027,0.44589999318122864
1682998611335761700,1.56976171875,0.11019999533891678,-1.2271000146865845,1.6625999212265015
1682998611355761700,1.58976171875,0.19749999046325684,-1.2752000093460083,1.4951999187469482
1682998611375761700,1.60976171875,0.16859999299049377,-1.17330002784729,0.21449999511241913
1682998611395761700,1.62976171875,0.2782999873161316,-0.9678999781608582,-0.3044999837875366
1682998611415761700,1.64976171875,0.16599999368190765,-1.0157999992370605,-0.08549999445676804
1682998611435761700,1.66976171875,-0.0949999988079071,-0.5108999609947205,-0.07419999688863754
1682998611455761700,1.68976171875,-0.4684999883174896,-0.5932999849319458,-0.19419999420642853
1682998611475761700,1.70976171875,-0.8634999990463257,-0.40959998965263367,-0.8148999810218811
1682998611495761700,1.72976171875,-0.7099999785423279,-0.4576999843120575,-1.1093000173568726
1682998611515761700,1.74976171875,-0.5378999710083008,-0.484499990940094,-0.9815999865531921
1682998611535761700,1.76976171875,-0.5394999980926514,-0.45229998230934143,-1.1960999965667725
1682998611555761700,1.78976171875,-0.9467999935150146,-0.5618000030517578,-1.684499979019165
1682998611575761700,1.80976171875,-0.6524999737739563,-0.9285999536514282,-1.3077999353408813
1682998611595761700,1.82976171875,0.5579999685287476,-0.5701999664306641,-0.8682999610900879
1682998611615761700,1.84976171875,0.5507999658584595,0.17899999022483826,-1.0102999210357666
1682998611635761700,1.86976171875,0.23189999163150787,0.1525000035762787,-0.6627999544143677
1682998611655761700,1.88976171875,-0.09139999747276306,-0.21119999885559082,-0.39069998264312744
1682998611675772700,1.909772705078125,-0.9596999883651733,0.15889999270439148,-0.5511999726295471
1682998611695761700,1.92976171875,-1.2940999269485474,0.382099986076355,-1.1675999164581299
1682998611715761700,1.94976171875,-0.8409000039100647,-0.03929999843239784,-1.0023999214172363
1682998611735761700,1.96976171875,-0.12349999696016312,0.42010000348091125,-0.8021999597549438
1682998611755761700,1.98976171875,0.06909999996423721,0.30719998478889465,-0.32349997758865356
1682998611775761700,2.00976171875,-0.02070000022649765,0.21549999713897705,0.010699999518692493
1682998611795761700,2.02976171875,0.19699999690055847,0.20409999787807465,0.4810999929904938
1682998611815761700,2.04976171875,1.2346999645233154,0.9660999774932861,0.6136999726295471
1682998611835761700,2.06976171875,1.3833999633789062,0.88919997215271,0.8940999507904053
1682998611855761700,2.08976171875,-0.6352999806404114,-0.006099999882280827,1.9066998958587646
1682998611875761700,2.10976171875,-0.8784999847412109,1.2922999858856201,2.086199998855591
1682998611895761700,2.12976171875,0.0674000009894371,1.6089999675750732,1.886099934577942
1682998611915761700,2.14976171875,0.6200000047683716,0.10759999603033066,1.6054999828338623
1682998611935761700,2.16976171875,0.9926999807357788,-0.5704999566078186,1.9907000064849854
1682998611955761700,2.18976171875,1.4926999807357788,-0.3887999951839447,2.349400043487549
1682998611975761700,2.20976171875,1.648800015449524,0.008299999870359898,2.0284998416900635
1682998611995761700,2.22976171875,0.795799970626831,-0.8946999907493591,1.9126999378204346
1682998612015761700,2.24976171875,0.14249999821186066,0.03659999743103981,0.545799970626831
1682998612035761700,2.26976171875,-0.39890000224113464,-0.15629999339580536,-0.5572999715805054
1682998612055761700,2.28976171875,-0.1469999998807907,-0.7795999646186829,-0.41519999504089355
1682998612075761700,2.30976171875,0.24459999799728394,-1.0145000219345093,0.6223999857902527
1682998612095761700,2.32976171875,-0.011899999342858791,-0.9857999682426453,1.1739000082015991
1682998612115761700,2.34976171875,-0.357699990272522,-0.9964999556541443,0.35089999437332153
1682998612135761700,2.36976171875,0.007899999618530273,-1.131500005722046,-0.7013999819755554
1682998612155761700,2.38976171875,0.35259997844696045,-1.0547000169754028,-0.9611999988555908
1682998612175772700,2.409772705078125,-0.09399999678134918,-0.973800003528595,-0.9699999690055847
1682998612195761700,2.42976171875,-0.6254000067710876,-0.7077999711036682,-1.3989999294281006
1682998612215761700,2.44976171875,-0.8256999850273132,-0.5291000008583069,-1.5525000095367432
1682998612235761700,2.46976171875,-0.6969999670982361,-0.47759997844696045,-1.1934000253677368
1682998612255761700,2.48976171875,-0.3977999985218048,-0.24159999191761017,-0.981499969959259
1682998612275761700,2.50976171875,-0.020399998873472214,-0.1613999903202057,-0.8015999794006348
1682998612295761700,2.52976171875,0.07999999821186066,-0.04959999769926071,-0.8614999651908875
1682998612315761700,2.54976171875,-0.15649999678134918,-0.19769999384880066,-0.647599995136261
1682998612335761700,2.56976171875,0.00279999990016222,-0.8851000070571899,-0.09259999543428421
1682998612355761700,2.58976171875,0.298799991607666,0.5157999992370605,-0.6173999905586243
1682998612375761700,2.60976171875,0.2724999785423279,0.21389999985694885,-0.770799994468689
1682998612395761700,2.62976171875,0.5415999889373779,1.021399974822998,-1.7548999786376953
1682998612415761700,2.64976171875,0.9240999817848206,-0.2053999900817871,0.49219998717308044
1682998612435761700,2.66976171875,-0.07569999992847443,1.7188999652862549,0.0139999995008111
1682998612455761700,2.68976171875,-0.5490999817848206,1.5436999797821045,0.2296999990940094
1682998612475761700,2.70976171875,0.29429998993873596,1.1065999269485474,1.2827999591827393
1682998612495761700,2.72976171875,1.3917999267578125,0.4088999927043915,1.8326998949050903
1682998612515761700,2.74976171875,1.6936999559402466,0.3536999821662903,1.4042999744415283
1682998612535761700,2.76976171875,0.9366999864578247,0.05729999765753746,1.2634999752044678
1682998612555761700,2.78976171875,0.6987999677658081,-0.6033999919891357,2.037400007247925
1682998612575761700,2.80976171875,1.1446999311447144,-0.9945999979972839,3.0683000087738037
1682998612595761700,2.82976171875,1.757599949836731,-1.0382000207901,3.350600004196167
1682998612615761700,2.84976171875,2.065999984741211,-0.625,3.115299940109253
1682998612635761700,2.86976171875,1.291700005531311,0.09679999947547913,1.2905999422073364
1682998612655761700,2.88976171875,-0.03929999843239784,0.25439998507499695,-0.09849999845027924
1682998612675772700,2.909772705078125,-1.2466999292373657,-0.49969998002052307,0.5328999757766724
1682998612695761700,2.92976171875,-1.688099980354309,-1.4060999155044556,1.5383999347686768
1682998612715761700,2.94976171875,-1.4488999843597412,-2.010499954223633,1.3745999336242676
1682998612735761700,2.96976171875,-0.5320000052452087,-1.9337999820709229,-0.018699999898672104
1682998612755761700,2.98976171875,0.06269999593496323,-1.7073999643325806,-0.6643999814987183
1682998612775761700,3.00976171875,-0.24939998984336853,-1.4496999979019165,-0.9312999844551086
1682998612795761700,3.02976171875,-1.0954999923706055,-1.3945000171661377,-1.250999927520752
1682998612815761700,3.04976171875,-1.6527999639511108,-1.2943999767303467,-1.4595999717712402
1682998612835761700,3.06976171875,-1.7515000104904175,-1.0882999897003174,-1.640199899673462
1682998612855761700,3.08976171875,-2.11299991607666,-0.7529000043869019,-1.6606999635696411
1682998612875761700,3.10976171875,-2.401399850845337,-0.34619998931884766,-1.6789000034332275
1682998612895761700,3.12976171875,-2.148900032043457,-0.0071000000461936,-1.778499960899353
1682998612915761700,3.14976171875,-1.4534000158309937,0.09380000084638596,-1.628999948501587
1682998612935761700,3.16976171875,-0.9389999508857727,0.1922999918460846,-1.53249990940094
1682998612955761700,3.18976171875,-0.44259998202323914,0.19900000095367432,-1.46589994430542
1682998612975761700,3.20976171875,-0.05639999732375145,0.35269999504089355,-1.1009999513626099
1682998612995761700,3.22976171875,-0.14309999346733093,0.41019999980926514,-0.6266999840736389
1682998613015761700,3.24976171875,-0.45739999413490295,0.44529998302459717,-0.5148999691009521
1682998613035761700,3.26976171875,-0.3780999779701233,0.49449998140335083,-0.1281999945640564
1682998613055761700,3.28976171875,-0.1160999983549118,0.5744999647140503,-0.1915999948978424
1682998613075761700,3.30976171875,0.0608999989926815,0.5044000148773193,-0.7196999788284302
1682998613095761700,3.32976171875,0.20089998841285706,0.6125999689102173,-0.36980000138282776
1682998613115763200,3.34976318359375,-0.10639999806880951,0.788599967956543,0.41259998083114624
1682998613135761700,3.36976171875,-0.7157999873161316,1.0585999488830566,1.152899980545044
1682998613155764700,3.3897646484375,-1.1223000288009644,1.1958999633789062,1.3040999174118042
1682998613175774200,3.409774169921875,-1.0190999507904053,0.5156999826431274,1.369499921798706
1682998613195761700,3.42976171875,-0.12399999797344208,-0.6388999819755554,2.0165998935699463
1682998613215761700,3.44976171875,1.079800009727478,-1.558899998664856,3.401700019836426
1682998613235761700,3.46976171875,1.9702999591827393,-1.430899977684021,5.047999858856201
1682998613255761700,3.48976171875,1.013800024986267,-0.8623999953269958,4.3225998878479
1682998613275761700,3.50976171875,-0.4696999788284302,-0.9736999869346619,1.6456999778747559
1682998613295761700,3.52976171875,-0.7834999561309814,-1.896399974822998,1.1806999444961548
1682998613315761700,3.54976171875,0.3166999816894531,-2.364300012588501,2.124199867248535
1682998613335760100,3.569760009765625,0.60589998960495,-2.322999954223633,2.017199993133545
1682998613355761700,3.58976171875,0.24049998819828033,-2.2223000526428223,0.33739998936653137
1682998613375764700,3.6097646484375,0.26190000772476196,-2.1668999195098877,-1.40749990940094
1682998613395764700,3.6297646484375,0.5271999835968018,-1.9540998935699463,-2.289799928665161
1682998613415761700,3.64976171875,0.5935999751091003,-1.5303999185562134,-2.4500999450683594
1682998613435761700,3.66976171875,0.2604999840259552,-1.1146999597549438,-1.9200999736785889
1682998613455761700,3.68976171875,0.03529999777674675,-0.7645999789237976,-1.5267000198364258
1682998613475761700,3.70976171875,-0.10040000081062317,-0.48510000109672546,-1.486299991607666
1682998613495761700,3.72976171875,0.09200000017881393,-0.2572000026702881,-1.4401999711990356
1682998613515761700,3.74976171875,0.4693000018596649,-0.3084000051021576,-1.6812999248504639
1682998613535761700,3.76976171875,0.5745999813079834,-0.540399968624115,-1.774999976158142
1682998613555761700,3.78976171875,0.6162999868392944,-0.7574999928474426,-1.5687999725341797
1682998613575761700,3.80976171875,0.85589998960495,-0.6360999941825867,-1.1783000230789185
1682998613595761700,3.82976171875,0.9763999581336975,-0.47450000047683716,-0.805899977684021
1682998613615761700,3.84976171875,1.0424000024795532,-0.218299999833107,-1.0568000078201294
1682998613635761700,3.86976171875,1.135200023651123,-0.09669999778270721,-1.1496999263763428
1682998613655761700,3.88976171875,0.9202999472618103,0.36789998412132263,-0.8406999707221985
1682998613675774200,3.909774169921875,-0.48799997568130493,0.7121999859809875,-0.16839998960494995
1682998613695761700,3.92976171875,-1.5092999935150146,1.041700005531311,0.4359999895095825
1682998613715761700,3.94976171875,-1.2689999341964722,1.1705999374389648,1.0642999410629272
1682998613735761700,3.96976171875,0.01889999955892563,1.1173999309539795,1.529599905014038
1682998613755761700,3.98976171875,1.0097999572753906,0.7497999668121338,1.7869999408721924
1682998613775761700,4.00976171875,1.4692999124526978,0.43479999899864197,1.6917999982833862
1682998613795761700,4.02976171875,1.569000005722046,0.15809999406337738,1.1064000129699707
1682998613815761700,4.04976171875,1.6555999517440796,-0.0017999999690800905,0.6884999871253967
1682998613835760000,4.069760009765625,1.559499979019165,-0.17379999160766602,1.6275999546051025
1682998613855761700,4.08976171875,0.8877999782562256,-0.09539999812841415,2.662899971008301
1682998613875761700,4.10976171875,0.14829999208450317,0.1995999962091446,3.136399984359741
1682998613895761700,4.12976171875,-0.15959998965263367,0.45799997448921204,3.0075998306274414
1682998613915761700,4.14976171875,-0.11759999394416809,0.6862999796867371,1.6944999694824219
1682998613935761700,4.16976171875,0.0616999976336956,0.4790000021457672,-0.14409999549388885
1682998613955761700,4.18976171875,0.25689998269081116,-0.15299999713897705,-0.42239999771118164
1682998613975761700,4.20976171875,0.23979999125003815,-0.8328999876976013,0.14970000088214874
1682998613995761700,4.22976171875,-0.14989998936653137,-1.2127000093460083,0.777999997138977
1682998614015761700,4.24976171875,-0.5137999653816223,-1.3265999555587769,0.767300009727478
1682998614035761700,4.26976171875,-0.6717999577522278,-1.3282999992370605,0.0632999986410141
1682998614055761700,4.28976171875,-0.611799955368042,-1.2254999876022339,-0.7928999662399292
1682998614075761700,4.30976171875,-0.5837999582290649,-1.1001999378204346,-1.3041999340057373
1682998614095761700,4.32976171875,-0.7233999967575073,-0.8823999762535095,-1.5414999723434448
1682998614115761700,4.34976171875,-0.9617999792098999,-0.8023999929428101,-1.6917999982833862
1682998614135761700,4.36976171875,-1.0683000087738037,-0.7852999567985535,-1.6561999320983887
1682998614155764700,4.3897646484375,-0.7329999804496765,-0.7021999955177307,-1.5809999704360962
1682998614175775700,4.409775634765625,-0.3260999917984009,-0.5489000082015991,-1.5154999494552612
1682998614195761700,4.42976171875,-0.24390000104904175,-0.17399999499320984,-1.2253999710083008
1682998614215761700,4.44976171875,-0.39399999380111694,0.2727999985218048,-1.1309999227523804
1682998614235761700,4.46976171875,-0.8685999512672424,0.5849999785423279,-0.7734000086784363
1682998614255761700,4.48976171875,-1.2073999643325806,0.770799994468689,-0.9023000001907349
1682998614275761700,4.50976171875,-1.0155999660491943,0.6545999646186829,-0.9779999852180481
1682998614295761700,4.52976171875,-0.7655999660491943,0.43689998984336853,-0.8190000057220459
1682998614315761700,4.54976171875,-0.9646999835968018,-0.11699999868869781,-0.7120999693870544
1682998614335761700,4.56976171875,-0.6581999659538269,-0.1096000000834465,-0.4294999837875366
1682998614355761700,4.58976171875,-0.43639999628067017,-0.5148000121116638,-0.04899999871850014
1682998614375761700,4.60976171875,0.04919999837875366,-0.2856999933719635,0.2953000068664551
1682998614395761700,4.62976171875,0.22909998893737793,-0.22509999573230743,0.6998999714851379
1682998614415763200,4.64976318359375,0.05810000002384186,0.17000000178813934,0.9375
1682998614435764700,4.6697646484375,-0.11019999533891678,0.26319998502731323,1.4983999729156494
1682998614455761700,4.68976171875,-0.27649998664855957,0.2615000009536743,1.8740999698638916
1682998614475761700,4.70976171875,-0.11180000007152557,0.19499999284744263,1.7870999574661255
1682998614495761700,4.72976171875,0.1981000006198883,-0.005399999674409628,2.0497000217437744
1682998614515761700,4.74976171875,0.3109000027179718,-0.25049999356269836,2.2742998600006104
1682998614535761700,4.76976171875,0.4122999906539917,-0.34610000252723694,2.225800037384033
1682998614555761700,4.78976171875,0.31439998745918274,-0.0640999972820282,2.3615000247955322
1682998614575761700,4.80976171875,-0.48489999771118164,0.26089999079704285,1.7615000009536743
1682998614595761700,4.82976171875,-1.1553000211715698,-0.2549000084400177,0.9821999669075012
1682998614615761700,4.84976171875,-0.670699954032898,-1.1244999170303345,1.635599970817566
1682998614635761700,4.86976171875,0.0731000006198883,-1.6154999732971191,2.5530998706817627
1682998614655764700,4.8897646484375,0.21779999136924744,-1.7845999002456665,2.601099967956543
1682998614675775700,4.909775634765625,0.052299998700618744,-1.8249999284744263,0.9731999635696411
1682998614695761700,4.92976171875,0.31450000405311584,-1.7950999736785889,-0.801099956035614
1682998614715761700,4.94976171875,0.5467999577522278,-1.88510000705719,-1.6179999113082886
1682998614735761700,4.96976171875,0.13519999384880066,-1.760599970817566,-2.20169997215271
1682998614755761700,4.98976171875,-0.5292999744415283,-1.5443999767303467,-2.2948999404907227
1682998614775761700,5.00976171875,-0.7608000040054321,-1.312399983406067,-2.0808000564575195
1682998614795761700,5.02976171875,-0.6403999924659729,-0.9795999526977539,-1.698699951171875
1682998614815761700,5.04976171875,-0.6074999570846558,-0.6953999996185303,-1.4383000135421753
1682998614835761700,5.06976171875,-0.4717999994754791,-0.561199963092804,-1.2037999629974365
1682998614855761700,5.08976171875,-0.3522999882698059,-0.5447999835014343,-1.0317000150680542
1682998614875761700,5.10976171875,-0.1818999946117401,-0.42890000343322754,-0.9314000010490417
1682998614895761700,5.12976171875,-0.07069999724626541,-0.27629998326301575,-0.8113999962806702
1682998614915763200,5.14976318359375,0.09699999541044235,-0.1054999977350235,-0.823699951171875
1682998614935764700,5.1697646484375,0.10429999977350235,0.011599999852478504,-0.911799967288971
1682998614955761700,5.18976171875,0.22919999063014984,0.17719998955726624,-0.8452000021934509
1682998614975761700,5.20976171875,0.2727999985218048,0.3052999973297119,-0.7798999547958374
1682998614995761700,5.22976171875,-0.09279999881982803,0.3260999917984009,-0.6657999753952026
1682998615015761700,5.24976171875,-0.09860000014305115,0.3228999972343445,-0.36419999599456787
1682998615035761700,5.26976171875,0.1265999972820282,0.3971000015735626,0.18230000138282776
1682998615055761700,5.28976171875,0.35899999737739563,0.5303999781608582,0.79749995470047
1682998615075761700,5.30976171875,0.5166000127792358,0.6520999670028687,1.0816999673843384
1682998615095761700,5.32976171875,0.5232999920845032,0.7526999711990356,0.9745999574661255
1682998615115761700,5.34976171875,0.36649999022483826,0.7049999833106995,0.955299973487854
1682998615135761700,5.36976171875,0.23909999430179596,0.4203999936580658,1.473699927330017
1682998615155761700,5.38976171875,0.701200008392334,0.38929998874664307,2.3740999698638916
1682998615175772700,5.409772705078125,1.2803000211715698,0.6359999775886536,2.9124999046325684
1682998615195760000,5.429760009765625,1.6523000001907349,0.7924999594688416,3.1689000129699707
1682998615215761700,5.44976171875,1.6626999378204346,0.9330999851226807,2.702699899673462
1682998615235761700,5.46976171875,1.1656999588012695,1.1791999340057373,1.316100001335144
1682998615255761700,5.48976171875,0.33730000257492065,1.1104999780654907,-0.14899998903274536
1682998615275761700,5.50976171875,-0.25380000472068787,0.19139999151229858,-0.1257999986410141
1682998615295761700,5.52976171875,-0.4728999733924866,-0.7428999543190002,0.62909996509552
1682998615315761700,5.54976171875,-0.5583999752998352,-0.9585999846458435,1.1755999326705933
1682998615335761700,5.56976171875,-0.2312999963760376,-0.7141000032424927,1.3351999521255493
1682998615355761700,5.58976171875,0.3893999755382538,-0.6611999869346619,1.4120999574661255
1682998615375761700,5.60976171875,0.9599999785423279,-0.7358999848365784,0.8051999807357788
1682998615395761700,5.62976171875,0.664900004863739,-0.7820000052452087,-0.22689999639987946
1682998615415761700,5.64976171875,-0.014399999752640724,-0.82669997215271,-1.149899959564209
1682998615435761700,5.66976171875,-0.4108999967575073,-0.942799985408783,-1.7508000135421753
1682998615455761700,5.68976171875,-0.20409999787807465,-0.8629999756813049,-1.7448999881744385
1682998615475761700,5.70976171875,0.09200000017881393,-0.6342999935150146,-1.2872999906539917
1682998615495761700,5.72976171875,-0.0714000016450882,-0.4278999865055084,-1.3978999853134155
1682998615515761700,5.74976171875,-0.19329999387264252,-0.36239999532699585,-1.7035999298095703
1682998615535761700,5.76976171875,0.014299999922513962,-0.2514999806880951,-1.9097999334335327
1682998615555761700,5.78976171875,0.07569999992847443,-0.0007999999797903001,-1.8305000066757202
1682998615575761700,5.80976171875,-0.2766000032424927,0.20149999856948853,-1.6043999195098877
1682998615595761700,5.82976171875,-0.6434999704360962,0.3179999887943268,-1.4573999643325806
1682998615615761700,5.84976171875,-0.6656000018119812,0.4845999777317047,-1.2125999927520752
1682998615635761700,5.86976171875,-0.5952999591827393,0.4235999882221222,-0.958899974822998
1682998615655761700,5.88976171875,-0.47049999237060547,0.3012000024318695,-0.9596999883651733
1682998615675772700,5.909772705078125,-0.11319999396800995,0.33229997754096985,-0.741599977016449
1682998615695761700,5.92976171875,0.11599999666213989,0.4616999924182892,-0.18889999389648438
1682998615715761700,5.94976171875,0.04769999906420708,0.49719998240470886,0.5101000070571899
1682998615735761700,5.96976171875,-0.0908999964594841,0.4887000024318695,1.2660999298095703
1682998615755761700,5.98976171875,-0.09219999611377716,0.3587999939918518,1.9627999067306519
1682998615775761700,6.00976171875,0.18310000002384186,0.2615000009536743,2.346400022506714
1682998615795761700,6.02976171875,0.31209999322891235,0.09619999676942825,1.6732999086380005
1682998615815761700,6.04976171875,0.5422999858856201,-0.13779999315738678,1.6216999292373657
1682998615835761700,6.06976171875,0.7978000044822693,-0.3531999886035919,2.309000015258789
1682998615855764700,6.0897646484375,0.7932999730110168,-0.39969998598098755,3.0687999725341797
1682998615875761700,6.10976171875,0.21089999377727509,-0.052799999713897705,3.422299861907959
1682998615895761700,6.12976171875,-0.5306999683380127,0.4390999972820282,2.546299934387207
1682998615915761700,6.14976171875,-0.9268999695777893,0.2768999934196472,1.2860000133514404
1682998615935761700,6.16976171875,-0.38029998540878296,-0.3489999771118164,0.9351999759674072
1682998615955761700,6.18976171875,0.1630999892950058,-0.9346999526023865,1.0917999744415283
1682998615975761700,6.20976171875,0.16429999470710754,-1.2213000059127808,0.708299994468689
1682998615995761700,6.22976171875,-0.3255999982357025,-1.178399920463562,-0.33649998903274536
1682998616015761700,6.24976171875,-0.18979999423027039,-1.3665999174118042,-1.3030999898910522
1682998616035760000,6.269760009765625,0.4975999891757965,-1.4334999322891235,-1.5232999324798584
1682998616055761700,6.28976171875,1.1474000215530396,-1.1634999513626099,-1.0859999656677246
1682998616075761700,6.30976171875,1.0893999338150024,-0.7942999601364136,-0.6410999894142151
1682998616095761700,6.32976171875,0.6333000063896179,-0.5415999889373779,-1.0293999910354614
1682998616115761700,6.34976171875,0.3231000006198883,-0.48979997634887695,-1.646899938583374
1682998616135761700,6.36976171875,-0.04829999804496765,-0.5800999999046326,-1.9270999431610107
1682998616155761700,6.38976171875,-0.4875999987125397,-0.8021000027656555,-1.8567999601364136
1682998616175774200,6.409774169921875,-0.687999963760376,-1.0259000062942505,-1.7619999647140503
1682998616195761700,6.42976171875,-0.34790000319480896,-1.104099988937378,-1.4917999505996704
1682998616215761700,6.44976171875,0.14219999313354492,-0.858199954032898,-1.023800015449524
1682998616235761700,6.46976171875,0.44679999351501465,-0.5015000104904175,-0.7504000067710876
1682998616255761700,6.48976171875,0.3549000024795532,-0.3901999890804291,-0.848800003528595
1682998616275761700,6.50976171875,0.19059999287128448,-0.23819999396800995,-1.1926000118255615
1682998616295761700,6.52976171875,0.20179998874664307,-0.05979999899864197,-0.9174999594688416
1682998616315761700,6.54976171875,0.19909998774528503,0.41819998621940613,-0.3471999764442444
1682998616335761700,6.56976171875,0.22109998762607574,0.8483999967575073,0.43939998745918274
1682998616355761700,6.58976171875,0.31219998002052307,1.12309992313385,1.2638999223709106
1682998616375761700,6.60976171875,0.3116999864578247,1.0061999559402466,1.761199951171875
1682998616395761700,6.62976171875,0.2583000063896179,0.765999972820282,1.7146999835968018
1682998616415763200,6.64976318359375,0.5769000053405762,0.6152999997138977,1.2472999095916748
1682998616435763200,6.66976318359375,0.9784999489784241,0.6298999786376953,0.7543999552726746
1682998616455761700,6.68976171875,1.0894999504089355,0.39969998598098755,1.0259000062942505
1682998616475761700,6.70976171875,1.3971999883651733,0.28519999980926514,2.8446998596191406
1682998616495761700,6.72976171875,1.2333999872207642,0.33059999346733093,3.973099946975708
1682998616515761700,6.74976171875,0.7712000012397766,0.4059000015258789,3.0700998306274414
1682998616535760100,6.769760009765625,0.41909998655319214,0.4616999924182892,0.65829998254776
1682998616555761700,6.78976171875,0.877299964427948,0.21409998834133148,-1.0981999635696411
1682998616575761700,6.80976171875,1.4634000062942505,-0.3246999979019165,-0.438400000333786
1682998616595761700,6.82976171875,1.254599928855896,-0.8887999653816223,0.8944000005722046
1682998616615761700,6.84976171875,0.5220000147819519,-1.0271999835968018,1.2709999084472656
1682998616635761700,6.86976171875,-0.40149998664855957,-1.125599980354309,1.125999927520752
1682998616655761700,6.88976171875,-0.29249998927116394,-1.1700999736785889,0.7448999881744385
1682998616675774200,6.909774169921875,0.19139999151229858,-1.0973999500274658,-0.1809999942779541
1682998616695761700,6.92976171875,0.4136999845504761,-0.9741999506950378,-1.0324000120162964
1682998616715761700,6.94976171875,0.03500000014901161,-0.9538999795913696,-1.5473999977111816
1682998616735761700,6.96976171875,-0.6017999649047852,-0.8984999656677246,-1.8662999868392944
1682998616755761700,6.98976171875,-0.8756999969482422,-0.8122999668121338,-1.6771999597549438
1682998616775761700,7.00976171875,-0.8118000030517578,-0.736299991607666,-1.3539999723434448
1682998616795761700,7.02976171875,-0.8737999796867371,-0.5773000121116638,-1.1694999933242798
1682998616815761700,7.04976171875,-1.05239999294281,-0.5115999579429626,-1.090999960899353
1682998616835760000,7.069760009765625,-0.7669000029563904,-0.31369999051094055,-1.1562999486923218
1682998616855761700,7.08976171875,-0.46399998664855957,-0.2395000010728836,-1.3385000228881836
1682998616875761700,7.10976171875,-0.3537999987602234,-0.17419999837875366,-1.5406999588012695
1682998616895761700,7.12976171875,-0.3783999979496002,0.050999999046325684,-1.5094999074935913
1682998616915761700,7.14976171875,-0.696399986743927,0.29739999771118164,-1.2632999420166016
1682998616935764700,7.1697646484375,-0.8973000049591064,0.5083000063896179,-1.0164999961853027
1682998616955763200,7.18976318359375,-0.9246000051498413,0.6087999939918518,-0.7889999747276306
1682998616975761700,7.20976171875,-0.731499969959259,0.8290999531745911,-0.4034000039100647
1682998616995761700,7.22976171875,-0.49049997329711914,1.086400032043457,0.38349997997283936
1682998617015764700,7.2497646484375,-0.1615999937057495,1.1811000108718872,1.198799967765808
1682998617035763200,7.26976318359375,0.013100000098347664,1.3446999788284302,1.4144999980926514
1682998617055761700,7.28976171875,-0.027499999850988388,1.2353999614715576,1.2882999181747437
1682998617075761700,7.30976171875,-0.20149999856948853,1.1055999994277954,1.3399999141693115
1682998617095761700,7.32976171875,-0.2800000011920929,0.9592999815940857,1.4306999444961548
1682998617115761700,7.34976171875,-0.37299999594688416,0.7578999996185303,1.4510999917984009
1682998617135761700,7.36976171875,-0.08720000088214874,0.31189998984336853,1.9205999374389648
1682998617155761700,7.38976171875,0.4396999776363373,0.06839999556541443,2.742799997329712
1682998617175772700,7.409772705078125,0.9070999622344971,0.013499999418854713,3.5842998027801514
1682998617195760000,7.429760009765625,0.8646000027656555,0.35830000042915344,3.3559999465942383
1682998617215761700,7.44976171875,0.32760000228881836,0.5514000058174133,1.2867000102996826
1682998617235761700,7.46976171875,0.1542000025510788,-0.23099999129772186,0.4714999794960022
1682998617255761700,7.48976171875,0.6337999701499939,-1.1553999185562134,1.631500005722046
1682998617275761700,7.50976171875,0.8424999713897705,-1.5006999969482422,2.4963998794555664
1682998617295761700,7.52976171875,0.4519999921321869,-1.5180999040603638,1.879599928855896
1682998617315761700,7.54976171875,0.0754999965429306,-1.5425000190734863,0.1768999993801117
1682998617335761700,7.56976171875,-0.003700000001117587,-1.740399956703186,-1.3837999105453491
1682998617355761700,7.58976171875,-0.08410000056028366,-1.986899971961975,-2.362799882888794
1682998617375761700,7.60976171875,-0.41349998116493225,-2.009999990463257,-2.5090999603271484
1682998617395761700,7.62976171875,-0.7328000068664551,-1.7049999237060547,-1.8090999126434326
1682998617415761700,7.64976171875,-0.691100001335144,-1.1299999952316284,-1.0844999551773071
1682998617435761700,7.66976171875,-0.559499979019165,-0.6169999837875366,-1.191100001335144
1682998617455761700,7.68976171875,-0.2069000005722046,-0.35679998993873596,-1.615899920463562
1682998617475763200,7.70976318359375,-0.041600000113248825,-0.3865000009536743,-1.9084999561309814
1682998617495761700,7.72976171875,0.04050000011920929,-0.2231999933719635,-1.778899908065796
1682998617515761700,7.74976171875,-0.16099999845027924,-0.17970000207424164,-1.0128999948501587
1682998617535761700,7.76976171875,-0.4311999976634979,-0.15399999916553497,-0.5245000123977661
1682998617555761700,7.78976171875,-0.5878999829292297,-0.1119999960064888,-0.430899977684021
1682998617575761700,7.80976171875,-0.5902000069618225,0.15629999339580536,-0.6293999552726746
1682998617595761700,7.82976171875,-0.24719999730587006,0.2768000066280365,-0.7368999719619751
1682998617615761700,7.84976171875,0.09999999403953552,0.32989999651908875,-0.3642999827861786
1682998617635761700,7.86976171875,0.13099999725818634,0.2540000081062317,0.08399999886751175
1682998617655761700,7.88976171875,0.22199998795986176,0.29170000553131104,0.4717999994754791
1682998617675772700,7.909772705078125,0.7425999641418457,0.46480000019073486,1.1549999713897705
1682998617695763200,7.92976318359375,1.0648000240325928,0.7393999695777893,2.0460000038146973
1682998617715764700,7.9497646484375,0.7301999926567078,0.9381999969482422,1.8969999551773071
1682998617735763200,7.96976318359375,0.14270000159740448,0.8097999691963196,0.7785999774932861
1682998617755761700,7.98976171875,0.07050000131130219,0.4578000009059906,0.7986999750137329
1682998617775761700,8.00976171875,0.5102999806404114,0.2757999897003174,2.5237998962402344
1682998617795761700,8.02976171875,0.59579998254776,0.6718999743461609,3.1870999336242676
1682998617815761700,8.04976171875,0.6292999982833862,0.8894000053405762,2.5565998554229736
1682998617835761700,8.06976171875,0.9456999897956848,0.6126999855041504,1.8477998971939087
1682998617855761700,8.08976171875,1.1680999994277954,0.2654999792575836,0.9140999913215637
1682998617875761700,8.10976171875,0.8575999736785889,-0.13910000026226044,0.15689998865127563
1682998617895761700,8.12976171875,0.36959999799728394,-0.8043999671936035,0.09489999711513519
1682998617915761700,8.14976171875,-0.006599999964237213,-1.3610999584197998,0.5430999994277954
1682998617935761700,8.16976171875,-0.3634999990463257,-1.3430999517440796,0.7170999646186829
1682998617955761700,8.18976171875,-0.48069998621940613,-1.3071999549865723,0.5960999727249146
1682998617975761700,8.20976171875,-0.06309999525547028,-1.2333999872207642,0.3481999933719635
1682998617995761700,8.22976171875,0.24740000069141388,-1.1553999185562134,-0.25949999690055847
1682998618015761700,8.24976171875,-0.07349999994039536,-0.9666000008583069,-0.8748999834060669
1682998618035761700,8.26976171875,-0.5997999906539917,-0.8290999531745911,-1.284999966621399
1682998618055761700,8.28976171875,-0.8529999852180481,-0.6243000030517578,-1.695599913597107
1682998618075761700,8.30976171875,-0.7342999577522278,-0.3814999759197235,-1.6852999925613403
1682998618095761700,8.32976171875,-0.7347999811172485,-0.21059998869895935,-1.705199956893921
1682998618115761700,8.34976171875,-0.84579998254776,-0.14790000021457672,-1.9894999265670776
1682998618135764700,8.3697646484375,-0.6926000118255615,-0.09129999577999115,-2.116499900817871
1682998618155761700,8.38976171875,-0.4560999870300293,-0.014399999752640724,-1.7043999433517456
1682998618175774200,8.409774169921874,-0.3391999900341034,0.121799997985363,-1.1651999950408936
1682998618195761700,8.42976171875,-0.4368000030517578,0.34059998393058777,-0.7827999591827393
1682998618215761700,8.44976171875,-0.41499999165534973,0.5284000039100647,-0.40070000290870667
1682998618235761700,8.46976171875,-0.5051000118255615,0.6144999861717224,-0.4496999979019165
1682998618255761700,8.48976171875,-0.684499979019165,0.6547999978065491,-1.0369999408721924
1682998618275761700,8.50976171875,-0.6922000050544739,0.6880999803543091,-1.1036999225616455
1682998618295761700,8.52976171875,-0.6294999718666077,0.827299952507019,-0.7105000019073486
1682998618315761700,8.54976171875,-0.4998999834060669,0.9208999872207642,-0.0729999989271164
1682998618335760100,8.569760009765625,0.06189999729394913,1.0003999471664429,0.8381999731063843
1682998618355761700,8.58976171875,0.599299967288971,0.9948999881744385,1.9550999402999878
1682998618375764700,8.6097646484375,0.6998999714851379,1.2041000127792358,2.3568999767303467
1682998618395764700,8.6297646484375,0.38509997725486755,1.209999918937683,2.0845999717712402
1682998618415761700,8.64976171875,0.2264999896287918,0.6240000128746033,1.5383999347686768
1682998618435761700,8.66976171875,0.6078000068664551,-0.03199999779462814,1.3762999773025513
1682998618455761700,8.68976171875,1.0410000085830688,-0.1832999885082245,1.921199917793274
1682998618475761700,8.70976171875,1.184399962425232,-0.11429999768733978,2.919800043106079
1682998618495761700,8.72976171875,0.9089999794960022,0.23259998857975006,3.5242998600006104
1682998618515761700,8.74976171875,0.280599981546402,0.3646000027656555,2.255199909210205
1682998618535761700,8.76976171875,-0.09609999507665634,-0.18050000071525574,1.1229000091552734
1682998618555761700,8.78976171875,0.17109999060630798,-1.0936999320983887,1.639299988746643
1682998618575761700,8.80976171875,0.8004999756813049,-1.4359999895095825,2.4179999828338623
1682998618595761700,8.82976171875,0.7030999660491943,-1.2379999160766602,1.8558999300003052
1682998618615761700,8.84976171875,0.20250000059604645,-1.1865999698638916,0.040699999779462814
1682998618635761700,8.86976171875,0.22269999980926514,-1.320099949836731,-1.4395999908447266
1682998618655761700,8.88976171875,0.30069997906684875,-1.4930999279022217,-2.289799928665161
1682998618675772700,8.909772705078124,-0.028199998661875725,-1.5216000080108643,-2.5717999935150146
1682998618695761700,8.92976171875,-0.3790999948978424,-1.282099962234497,-2.131999969482422
1682998618715761700,8.94976171875,-0.6168999671936035,-0.805899977684021,-1.5765999555587769
1682998618735761700,8.96976171875,-0.8240000009536743,-0.47519999742507935,-1.7060999870300293
1682998618755761700,8.98976171875,-0.3902999758720398,-0.35830000042915344,-1.8322999477386475
1682998618775761700,9.00976171875,0.23029999434947968,-0.4226999878883362,-1.6647999286651611
1682998618795761700,9.02976171875,0.4830999970436096,-0.4919999837875366,-1.4213999509811401
1682998618815761700,9.04976171875,0.5108999609947205,-0.3587999939918518,-0.7374999523162842
1682998618835761700,9.06976171875,0.28299999237060547,-0.141199991106987,-0.41579997539520264
1682998618855761700,9.08976171875,0.11999999731779099,0.0052999998442828655,-0.5432999730110168
1682998618875761700,9.10976171875,0.25529998540878296,0.06859999895095825,-0.7489999532699585
1682998618895761700,9.12976171875,0.3474999964237213,0.10249999910593033,-0.6416000127792358
1682998618915761700,9.14976171875,0.3418000042438507,0.2597000002861023,0.004299999680370092
1682998618935761700,9.16976171875,0.3409999907016754,0.34360000491142273,0.972599983215332
1682998618955760000,9.189760009765624,0.47029998898506165,0.23349998891353607,1.889799952507019
1682998618975761700,9.20976171875,0.5977999567985535,0.057099997997283936,2.7172999382019043
1682998618995761700,9.22976171875,0.7232999801635742,0.03019999898970127,2.3187999725341797
1682998619015761700,9.24976171875,0.6953999996185303,0.08829999715089798,0.8922999501228333
1682998619035760000,9.269760009765625,0.9979999661445618,-0.2565999925136566,0.2919999957084656
1682998619055761700,9.28976171875,1.2410999536514282,-0.34109997749328613,1.6525999307632446
1682998619075761700,9.30976171875,1.1239999532699585,0.016699999570846558,3.012399911880493
1682998619095764700,9.3297646484375,0.816100001335144,0.4594999849796295,3.079699993133545
1682998619115763200,9.34976318359375,0.939799964427948,0.6189000010490417,1.4503999948501587
1682998619135761700,9.36976171875,1.0614999532699585,0.41009998321533203,-0.42179998755455017
1682998619155761700,9.38976171875,1.0859999656677246,0.06159999966621399,-0.5267999768257141
1682998619175772700,9.409772705078124,0.38259997963905334,-0.30140000581741333,0.6992999911308289
1682998619195761700,9.42976171875,-0.28529998660087585,-0.4599999785423279,1.323799967765808
1682998619215761700,9.44976171875,-0.5662999749183655,-0.552299976348877,1.3485000133514404
1682998619235761700,9.46976171875,-0.20059999823570251,-0.5119999647140503,0.4235000014305115
1682998619255761700,9.48976171875,0.04879999905824661,-0.5198999643325806,-1.0181000232696533
1682998619275761700,9.50976171875,-0.09809999912977219,-0.42899999022483826,-2.2318999767303467
1682998619295761700,9.52976171875,-0.5119999647140503,-0.29729998111724854,-2.650599956512451
1682998619315761700,9.54976171875,-0.9520999789237976,-0.08709999918937683,-2.2755000591278076
1682998619335763200,9.56976318359375,-1.0199999809265137,0.12269999831914902,-1.5291999578475952
1682998619355763200,9.58976318359375,-1.021799921989441,-0.010300000198185444,-1.303399920463562
1682998619375761700,9.60976171875,-0.7129999995231628,-0.08259999752044678,-1.5374999046325684
1682998619395761700,9.62976171875,-0.4114999771118164,-0.1006999984383583,-1.5152000188827515
1682998619415761700,9.64976171875,-0.3637000024318695,-0.11989999562501907,-1.2862999439239502
1682998619435761700,9.66976171875,-0.6466999650001526,0.04349999874830246,-1.2828999757766724
1682998619455761700,9.68976171875,-1.1058999300003052,0.14159999787807465,-1.3084999322891235
1682998619475761700,9.70976171875,-1.3619999885559082,0.24479998648166656,-1.4804999828338623
1682998619495761700,9.72976171875,-1.3667999505996704,0.49049997329711914,-1.466499924659729
1682998619515761700,9.74976171875,-1.2177000045776367,0.7175999879837036,-0.9524999856948853
1682998619535763200,9.76976318359375,-1.0535999536514282,0.8935999870300293,-0.19339999556541443
1682998619555763200,9.78976318359375,-0.6988999843597412,1.0317000150680542,0.8985999822616577
1682998619575761700,9.80976171875,-0.37529999017715454,1.0418999195098877,1.6168999671936035
1682998619595766300,9.829766357421875,-0.20809999108314514,1.095099925994873,2.0420000553131104
1682998619615777300,9.84977734375,-0.17499999701976776,1.129499912261963,2.300600051879883
1682998619635761700,9.86976171875,-0.01809999905526638,0.7584999799728394,2.109099864959717
1682998619655761700,9.88976171875,0.18619999289512634,0.01679999940097332,2.1531999111175537
1682998619675772700,9.909772705078124,0.46859997510910034,-0.49859997630119324,2.5016000270843506
1682998619695761700,9.92976171875,0.7915999889373779,-0.49889999628067017,2.834199905395508
1682998619715761700,9.94976171875,0.5554999709129333,0.05199999734759331,3.3070998191833496
1682998619735761700,9.96976171875,-0.12239999324083328,0.6132000088691711,2.424799919128418
1682998619755761700,9.98976171875,-0.4453999996185303,0.22939999401569366,1.107699990272522
1682998619775761700,10.00976171875,-0.30719998478889465,-0.8283999562263489,1.3222999572753906
1682998619795764700,10.0297646484375,0.22429999709129333,-1.361799955368042,2.162299871444702
1682998619815761700,10.04976171875,0.18850000202655792,-1.4699000120162964,2.3854000568389893
1682998619835761700,10.06976171875,0.05649999901652336,-1.5295000076293945,1.2941999435424805
1682998619855761700,10.08976171875,0.03319999948143959,-1.4259999990463257,-0.5123999714851379
1682998619875761700,10.10976171875,0.19699999690055847,-1.5403000116348267,-1.7246999740600586
1682998619895761700,10.12976171875,0.2937999963760376,-1.5135999917984009,-2.257699966430664
1682998619915761700,10.14976171875,0.0714000016450882,-1.5019999742507935,-2.3640999794006348
1682998619935761700,10.16976171875,-0.5496000051498413,-1.2649999856948853,-2.4856998920440674
1682998619955761700,10.18976171875,-0.6985999941825867,-0.8959999680519104,-2.1569998264312744
1682998619975761700,10.20976171875,-0.33660000562667847,-0.5925999879837036,-1.9332000017166138
1682998619995761700,10.22976171875,-0.04809999838471413,-0.4626999795436859,-1.6974999904632568
1682998620015761700,10.24976171875,-0.2029999941587448,-0.4892999827861786,-1.2774999141693115
1682998620035761700,10.26976171875,-0.2928999960422516,-0.47669997811317444,-1.045699954032898
1682998620055763200,10.28976318359375,-0.021800000220537186,-0.47540000081062317,-1.1847000122070312
1682998620075764700,10.3097646484375,0.37529999017715454,-0.26319998502731323,-1.0858999490737915
1682998620095761700,10.32976171875,0.46609997749328613,0.05700000002980232,-0.7617999911308289
1682998620115761700,10.34976171875,0.3601999878883362,0.32600000500679016,-0.43939998745918274
1682998620135761700,10.36976171875,0.4926999807357788,0.46549999713897705,0.27469998598098755
1682998620155761700,10.38976171875,0.7936999797821045,0.5907999873161316,1.1450999975204468
1682998620175774200,10.409774169921874,0.8519999980926514,0.5649999976158142,2.1029999256134033
1682998620195761700,10.42976171875,0.9047999978065491,0.726099967956543,2.4038000106811523
1682998620215761700,10.44976171875,0.7382000088691711,0.6283999681472778,2.077699899673462
1682998620235761700,10.46976171875,0.36579999327659607,0.37199997901916504,1.1917999982833862
1682998620255761700,10.48976171875,0.4657999873161316,-0.2474999874830246,0.9745999574661255
1682998620275761700,10.50976171875,0.5525999665260315,-0.23240000009536743,2.0218000411987305
1682998620295761700,10.52976171875,0.28619998693466187,0.17149999737739563,2.546799898147583
1682998620315761700,10.54976171875,-0.18679998815059662,0.4745999872684479,1.9424999952316284
1682998620335761700,10.56976171875,0.2207999974489212,0.3775999844074249,0.778499960899353
1682998620355761700,10.58976171875,1.0236999988555908,-0.06830000132322311,0.1678999960422516
1682998620375761700,10.60976171875,1.625499963760376,-0.4756999909877777,0.786899983882904
1682998620395761700,10.62976171875,1.062399983406067,-0.8247999548912048,1.5816999673843384
1682998620415761700,10.64976171875,-0.14890000224113464,-1.073699951171875,1.6166999340057373
1682998620435761700,10.66976171875,-1.0199999809265137,-1.2585999965667725,0.9535999894142151
1682998620455761700,10.68976171875,-0.949999988079071,-1.1664999723434448,-0.2929999828338623
1682998620475761700,10.70976171875,-0.8246999979019165,-1.003600001335144,-1.376599907875061
1682998620495761700,10.72976171875,-0.8133999705314636,-0.9002999663352966,-2.1361000537872314
1682998620515761700,10.74976171875,-0.9620999693870544,-0.7797999978065491,-2.526599884033203
1682998620535763200,10.76976318359375,-0.8316999673843384,-0.7452999949455261,-2.5082998275756836
1682998620555761700,10.78976171875,-0.6090999841690063,-0.6233999729156494,-2.185499906539917
1682998620575761700,10.80976171875,-0.4342999756336212,-0.4059999883174896,-1.5677999258041382
1682998620595761700,10.82976171875,-0.49289998412132263,-0.2303999960422516,-1.3421000242233276
1682998620615761700,10.84976171875,-0.5867999792098999,-0.09959999471902847,-1.4687999486923218
1682998620635760000,10.869760009765624,-0.6498000025749207,-0.060499999672174454,-1.5748000144958496
1682998620655761700,10.88976171875,-0.7667999863624573,0.017799999564886093,-2.041100025177002
1682998620675772700,10.909772705078124,-0.761900007724762,0.25949999690055847,-1.9372999668121338
1682998620695761700,10.92976171875,-0.7333999872207642,0.576200008392334,-1.344099998474121
1682998620715761700,10.94976171875,-0.8287999629974365,0.7902999520301819,-0.7033999562263489
1682998620735761700,10.96976171875,-0.6162999868392944,0.9157999753952026,-0.0729999989271164
1682998620755761700,10.98976171875,-0.1914999932050705,0.9943999648094177,0.6955999732017517
1682998620775761700,11.00976171875,0.1354999989271164,1.2338999509811401,1.427299976348877
1682998620795761700,11.02976171875,0.18779999017715454,1.3464000225067139,2.198499917984009
1682998620815763200,11.04976318359375,-0.020099999383091927,1.250599980354309,2.7523000240325928
1682998620835761700,11.06976171875,-0.2289000004529953,0.97489994764328,2.638700008392334
1682998620855761700,11.08976171875,0.03280000016093254,0.23639999330043793,3.2812998294830322
1682998620875761700,11.10976171875,0.4870999753475189,-0.050599999725818634,4.168099880218506
1682998620895761700,11.12976171875,0.5282999873161316,-0.04959999769926071,3.96809983253479
1682998620915761700,11.14976171875,0.460099995136261,0.0729999989271164,3.249799966812134
1682998620935761700,11.16976171875,0.2969000041484833,0.09449999779462814,2.2642998695373535
1682998620955761700,11.18976171875,0.07639999687671661,-0.09609999507665634,0.22929999232292175
1682998620975761700,11.20976171875,0.40139999985694885,-0.7015999555587769,-0.41169998049736023
1682998620995761700,11.22976171875,0.5996999740600586,-1.0916999578475952,0.774399995803833
1682998621015761700,11.24976171875,0.1613999903202057,-1.0490000247955322,1.6904000043869019
1682998621035761700,11.26976171875,-0.5544999837875366,-0.9861999750137329,1.2029999494552612
1682998621055763200,11.28976318359375,-0.5101999640464783,-1.2430999279022217,-0.26479998230934143
1682998621075764700,11.3097646484375,0.020800000056624413,-1.5800999402999878,-1.7000999450683594
1682998621095761700,11.32976171875,0.5095999836921692,-1.500999927520752,-2.5023000240325928
1682998621115761700,11.34976171875,0.46449998021125793,-1.1506999731063843,-2.4121999740600586
1682998621135761700,11.36976171875,-0.13179999589920044,-0.7134000062942505,-2.268399953842163
1682998621155761700,11.38976171875,-0.3863999843597412,-0.38609999418258667,-2.255199909210205
1682998621175774200,11.409774169921874,-0.36399999260902405,-0.3154999911785126,-1.9660999774932861
1682998621195763200,11.42976318359375,-0.140299990773201,-0.18699999153614044,-1.605799913406372
1682998621215764700,11.4497646484375,0.12489999830722809,-0.09429999440908432,-1.126099944114685
1682998621235763200,11.46976318359375,0.20759999752044678,0.10700000077486038,-0.6581999659538269
1682998621255761700,11.48976171875,0.22139999270439148,0.31369999051094055,-0.4975999891757965
1682998621275761700,11.50976171875,0.45749998092651367,0.3139999806880951,-0.6022999882698059
1682998621295761700,11.52976171875,0.7379999756813049,0.29760000109672546,-0.8410999774932861
1682998621315763200,11.54976318359375,0.7033999562263489,0.382099986076355,-0.6743999719619751
1682998621335763200,11.56976318359375,0.6132000088691711,0.5396999716758728,-0.3310999870300293
1682998621355761700,11.58976171875,0.7139999866485596,0.5654999613761902,0.41009998321533203
1682998621375761700,11.60976171875,0.9674999713897705,0.5324000120162964,1.472999930381775
1682998621395761700,11.62976171875,1.1065999269485474,0.7055999636650085,2.318699836730957
1682998621415761700,11.64976171875,1.2803999185562134,0.7673999667167664,2.293299913406372
1682998621435761700,11.66976171875,1.270900011062622,0.8888999819755554,1.4773999452590942
1682998621455761700,11.68976171875,1.0628999471664429,0.4860000014305115,1.5242999792099
1682998621475761700,11.70976171875,0.9761999845504761,0.04259999841451645,2.59909987449646
1682998621495761700,11.72976171875,0.733199954032898,0.14339999854564667,3.0638999938964844
1682998621515761700,11.74976171875,0.5321999788284302,0.3814999759197235,2.6066999435424805
1682998621535760100,11.769760009765625,0.4350999891757965,0.5073999762535095,1.3946999311447144
1682998621555761700,11.78976171875,0.8499000072479248,0.017400000244379044,-0.0009999999310821295
1682998621575764700,11.8097646484375,1.1996999979019165,-0.3148999810218811,-0.19779999554157257
1682998621595761700,11.82976171875,1.0544999837875366,-0.8335999846458435,0.8420000076293945
1682998621615761700,11.84976171875,-0.018199998885393143,-1.0113999843597412,1.1346999406814575
1682998621635761700,11.86976171875,-0.823199987411499,-1.2684999704360962,0.8466999530792236
1682998621655761700,11.88976171875,-0.7281000018119812,-1.2798999547958374,0.17819999158382416
1682998621675772700,11.909772705078124,-0.41449999809265137,-1.2383999824523926,-0.7605999708175659
1682998621695761700,11.92976171875,-0.4625999927520752,-1.111299991607666,-1.8722000122070312
1682998621715761700,11.94976171875,-0.6527000069618225,-1.1216999292373657,-2.649899959564209
1682998621735761700,11.96976171875,-0.8794999718666077,-1.0887999534606934,-2.7251999378204346
1682998621755761700,11.98976171875,-1.1062999963760376,-0.8435999751091003,-2.441200017929077
1682998621775761700,12.00976171875,-0.972000002861023,-0.6031000018119812,-1.9809999465942383
1682998621795761700,12.02976171875,-0.7760999798774719,-0.3765999972820282,-1.6483999490737915
1682998621815761700,12.04976171875,-0.6861000061035156,-0.204599991440773,-1.5693999528884888
1682998621835761700,12.06976171875,-0.7075999975204468,-0.0023999998811632395,-1.4406999349594116
1682998621855761700,12.08976171875,-0.851099967956543,0.07159999758005142,-1.4696999788284302
1682998621875761700,12.10976171875,-0.8958999514579773,0.19599999487400055,-1.4594999551773071
1682998621895761700,12.12976171875,-0.9195999503135681,0.43549999594688416,-1.2824000120162964
1682998621915763200,12.14976318359375,-0.8199999928474426,0.663599967956543,-0.7508999705314636
1682998621935761700,12.16976171875,-0.6929999589920044,0.7763999700546265,-0.03399999812245369
1682998621955761700,12.18976171875,-0.4761999845504761,0.9172999858856201,0.5453000068664551
1682998621975761700,12.20976171875,-0.18449999392032623,1.1661999225616455,1.0468999147415161
1682998621995761700,12.22976171875,0.08069999516010284,1.2166999578475952,1.5788999795913696
1682998622015761700,12.24976171875,0.23019999265670776,1.2232999801635742,2.092099905014038
1682998622035760000,12.269760009765625,0.1687999963760376,1.1579999923706055,2.253499984741211
1682998622055761700,12.28976171875,0.23199999332427979,0.7827999591827393,2.5135998725891113
1682998622075761700,12.30976171875,0.6523999571800232,0.41669997572898865,3.224900007247925
1682998622095761700,12.32976171875,0.8682000041007996,0.20009998977184296,3.6347999572753906
1682998622115761700,12.34976171875,0.6559000015258789,0.5458999872207642,3.3802998065948486
1682998622135761700,12.36976171875,-0.10889999568462372,0.8752999901771545,2.134899854660034
1682998622155761700,12.38976171875,-0.6295999884605408,0.4050000011920929,0.8360999822616577
1682998622175774200,12.409774169921874,-0.3301999866962433,-0.6061999797821045,1.0109999179840088
1682998622195761700,12.42976171875,0.3630000054836273,-1.197700023651123,1.9184999465942383
1682998622215761700,12.44976171875,0.16920000314712524,-1.2827999591827393,2.5409998893737793
1682998622235761700,12.46976171875,-0.3246999979019165,-1.2415000200271606,1.816499948501587
1682998622255761700,12.48976171875,-0.33879998326301575,-1.3636999130249023,-0.1605999916791916
1682998622275761700,12.50976171875,0.05909999832510948,-1.5759999752044678,-1.992799997329712
1682998622295761700,12.52976171875,0.5152999758720398,-1.7120000123977661,-2.925999879837036
1682998622315761700,12.54976171875,0.520799994468689,-1.8089998960494995,-3.007499933242798
1682998622335761700,12.56976171875,0.38359999656677246,-1.480199933052063,-2.899099826812744
1682998622355761700,12.58976171875,-0.02279999852180481,-0.911799967288971,-2.3451998233795166
1682998622375761700,12.60976171875,-0.4488999843597412,-0.47209998965263367,-1.9987999200820923
1682998622395761700,12.62976171875,-0.5515999794006348,-0.26819998025894165,-1.7662999629974365
1682998622415763200,12.64976318359375,-0.47269999980926514,-0.19629999995231628,-1.4710999727249146
1682998622435761700,12.66976171875,-0.30640000104904175,-0.17180000245571136,-1.0699999332427979
1682998622455761700,12.68976171875,-0.16679999232292175,-0.13660000264644623,-0.887499988079071
1682998622475761700,12.70976171875,-0.10949999839067459,0.10520000010728836,-0.8511999845504761
1682998622495761700,12.72976171875,0.032499998807907104,0.1826999932527542,-0.6669999957084656
1682998622515761700,12.74976171875,0.27889999747276306,0.2791000008583069,-0.5914999842643738
1682998622535761700,12.76976171875,0.7303999662399292,0.20839999616146088,-0.007400000002235174
1682998622555761700,12.78976171875,0.960599958896637,0.16820000112056732,1.0946999788284302
1682998622575761700,12.80976171875,0.9317999482154846,0.33730000257492065,2.2640998363494873
1682998622595761700,12.82976171875,0.7501999735832214,0.5615000128746033,2.8469998836517334
1682998622615761700,12.84976171875,0.512499988079071,0.8503999710083008,2.560499906539917
1682998622635761700,12.86976171875,0.08980000019073486,0.8816999793052673,1.803299903869629
1682998622655761700,12.88976171875,0.257099986076355,0.4811999797821045,2.027899980545044
1682998622675774200,12.909774169921874,0.2328999936580658,0.39169999957084656,2.4182000160217285
1682998622695761700,12.92976171875,0.15969999134540558,0.4262000024318695,2.5234999656677246
1682998622715761700,12.94976171875,0.006000000052154064,0.44020000100135803,2.1975998878479004
1682998622735761700,12.96976171875,0.1597999930381775,0.23279999196529388,0.9872999787330627
1682998622755761700,12.98976171875,0.8754000067710876,-0.10040000081062317,-0.035499997437000275
1682998622775763200,13.00976318359375,1.739799976348877,-0.4813999831676483,0.09030000120401382
1682998622795761700,13.02976171875,1.9857999086380005,-0.7864999771118164,0.7074999809265137
1682998622815761700,13.04976171875,1.2305999994277954,-0.983299970626831,0.7560999989509583
1682998622835761700,13.06976171875,0.05249999836087227,-0.9655999541282654,0.49969998002052307
1682998622855761700,13.08976171875,-0.8557999730110168,-0.8069999814033508,0.007699999958276749
1682998622875761700,13.10976171875,-0.9923999905586243,-0.6177999973297119,-1.0009000301361084
1682998622895761700,13.12976171875,-0.7030999660491943,-0.583899974822998,-1.9375
1682998622915761700,13.14976171875,-0.5381999611854553,-0.47369998693466187,-2.589200019836426
1682998622935761700,13.16976171875,-0.6473000049591064,-0.3511999845504761,-2.8977999687194824
1682998622955761700,13.18976171875,-0.8395999670028687,-0.1605999916791916,-2.6878998279571533
1682998622975761700,13.20976171875,-0.7155999541282654,0.011500000022351742,-2.009500026702881
1682998622995761700,13.22976171875,-0.6064000129699707,0.09489999711513519,-1.6057000160217285
1682998623015764700,13.2497646484375,-0.6155999898910522,0.4026999771595001,-1.4356999397277832
1682998623035763200,13.26976318359375,-0.8835999965667725,0.5989999771118164,-1.0585999488830566
1682998623055761700,13.28976171875,-0.946899950504303,0.8007000088691711,-0.946399986743927
1682998623075761700,13.30976171875,-1.038699984550476,0.8210999965667725,-1.058899998664856
1682998623095764700,13.3297646484375,-1.0835999250411987,0.976099967956543,-1.0729999542236328
1682998623115761700,13.34976171875,-1.0789999961853027,1.084999918937683,-0.6862999796867371
1682998623135760100,13.369760009765624,-1.0787999629974365,1.1210999488830566,-0.07669999450445175
1682998623155761700,13.38976171875,-0.6626999974250793,1.0634000301361084,0.5611000061035156
1682998623175772700,13.409772705078124,0.020800000056624413,0.9012999534606934,1.2508999109268188
1682998623195761700,13.42976171875,0.32919999957084656,0.8698999881744385,2.1768999099731445
1682998623215761700,13.44976171875,0.22360000014305115,0.8623999953269958,2.768699884414673
1682998623235761700,13.46976171875,0.06700000166893005,0.5180000066757202,2.9574999809265137
1682998623255761700,13.48976171875,0.4617999792098999,-0.34610000252723694,4.057399749755859
1682998623275761700,13.50976171875,1.1725000143051147,-0.7500999569892883,5.697299957275391
1682998623295761700,13.52976171875,1.0045000314712524,-0.2565000057220459,5.240599632263184
1682998623315761700,13.54976171875,0.34849998354911804,0.17880000174045563,2.3553998470306396
1682998623335763200,13.56976318359375,0.22349999845027924,-0.6101999878883362,-0.0421999990940094
1682998623355764700,13.5897646484375,0.79749995470047,-1.7515000104904175,0.46799999475479126
1682998623375761700,13.60976171875,1.1268999576568604,-2.3461999893188477,1.7294999361038208
1682998623395761700,13.62976171875,0.09079999476671219,-1.9311999082565308,1.757699966430664
1682998623415761700,13.64976171875,-0.7071999907493591,-1.7091000080108643,0.08579999953508377
1682998623435761700,13.66976171875,-1.0131999254226685,-1.799899935722351,-2.059499979019165
1682998623455761700,13.68976171875,-0.2613999843597412,-1.5763999223709106,-3.2670998573303223
1682998623475761700,13.70976171875,0.015799999237060547,-1.3286999464035034,-3.1176998615264893
1682998623495761700,13.72976171875,-0.4887999892234802,-1.0471999645233154,-2.638200044631958
1682998623515761700,13.74976171875,-0.9688999652862549,-0.7204999923706055,-2.524899959564209
1682998623535761700,13.76976171875,-0.7835999727249146,-0.4520999789237976,-2.2147998809814453
1682998623555761700,13.78976171875,-0.40129998326301575,-0.219200000166893,-1.5885999202728271
1682998623575761700,13.80976171875,0.011099999770522118,0.010699999518692493,-1.1864999532699585
1682998623595761700,13.82976171875,0.07779999822378159,0.07849999517202377,-0.9339999556541443
1682998623615761700,13.84976171875,0.11459999531507492,0.025699999183416367,-0.7527999877929688
1682998623635760000,13.869760009765624,0.43799999356269836,-0.019999999552965164,-0.6685000061988831
1682998623655761700,13.88976171875,0.8970999717712402,0.11419999599456787,-0.6311999559402466
1682998623675774200,13.909774169921874,1.0839999914169312,0.47049999237060547,-0.4351999759674072
1682998623695761700,13.92976171875,0.9711999893188477,0.6108999848365784,-0.12189999967813492
1682998623715761700,13.94976171875,0.9388999938964844,0.6802999973297119,0.33789998292922974
1682998623735761700,13.96976171875,0.8047999739646912,0.6711999773979187,0.7775999903678894
1682998623755764700,13.9897646484375,0.8176999688148499,0.8560000061988831,1.0699999332427979
1682998623775763200,14.00976318359375,0.8263999819755554,0.9181999564170837,1.1368999481201172
1682998623795764700,14.0297646484375,0.7845999598503113,0.8621000051498413,0.7134999632835388
1682998623815761700,14.04976171875,0.8104999661445618,0.8280999660491943,0.31129997968673706
1682998623835761700,14.06976171875,0.8933999538421631,0.4066999852657318,1.3121999502182007
1682998623855761700,14.08976171875,0.7234999537467957,0.1923999935388565,3.0364999771118164
1682998623875761700,14.10976171875,0.5001999735832214,0.15219999849796295,3.612799882888794
1682998623895761700,14.12976171875,0.4406999945640564,0.03199999779462814,3.3641998767852783
1682998623915761700,14.14976171875,1.1973999738693237,-0.3091000020503998,2.2806999683380127
1682998623935761700,14.16976171875,1.677799940109253,-0.5705999732017517,1.4728999137878418
1682998623955761700,14.18976171875,1.6697999238967896,-0.9274999499320984,1.1789000034332275
1682998623975761700,14.20976171875,0.623699963092804,-1.3549000024795532,0.7493000030517578
1682998623995761700,14.22976171875,-0.710599958896637,-1.7782999277114868,0.3951999843120575
1682998624015761700,14.24976171875,-1.5663999319076538,-1.7631999254226685,0.2840999960899353
1682998624035761700,14.26976171875,-1.5604000091552734,-1.4124000072479248,0.1152999997138977
1682998624055761700,14.28976171875,-1.111299991607666,-1.1309000253677368,-0.4643999934196472
1682998624075761700,14.30976171875,-0.5205000042915344,-1.119499921798706,-1.4752999544143677
1682998624095761700,14.32976171875,-0.11270000040531158,-1.1101000308990479,-2.2891998291015625
1682998624115761700,14.34976171875,-0.10029999911785126,-0.9669999480247498,-2.601099967956543
1682998624135761700,14.36976171875,-0.44110000133514404,-0.7623999714851379,-2.40120005607605
1682998624155761700,14.38976171875,-0.8060999512672424,-0.46289998292922974,-1.9864000082015991
1682998624175774200,14.409774169921874,-1.0246000289916992,-0.28849998116493225,-1.6133999824523926
1682998624195761700,14.42976171875,-1.0548999309539795,-0.0429999977350235,-1.3105000257492065
1682998624215761700,14.44976171875,-1.0145999193191528,0.25450000166893005,-1.104200005531311
1682998624235761700,14.46976171875,-1.0240999460220337,0.535099983215332,-1.0529999732971191
1682998624255761700,14.48976171875,-0.8641999959945679,0.7524999976158142,-1.1089999675750732
1682998624275761700,14.50976171875,-0.7240999937057495,0.8560000061988831,-1.136099934577942
1682998624295761700,14.52976171875,-0.6398000121116638,0.9175999760627747,-0.8695999979972839
1682998624315761700,14.54976171875,-0.7378000020980835,0.9098999500274658,-0.6821999549865723
1682998624335761700,14.56976171875,-0.6341999769210815,0.9109999537467957,-0.5333999991416931
1682998624355761700,14.58976171875,-0.17499999701976776,0.8477999567985535,0.16439999639987946
1682998624375761700,14.60976171875,0.14149999618530273,0.8915999531745911,0.8429999947547913
1682998624395761700,14.62976171875,0.155799999833107,0.8481000065803528,1.3940999507904053
1682998624415761700,14.64976171875,-0.09290000051259995,0.8792999982833862,1.8964999914169312
1682998624435761700,14.66976171875,-0.33660000562667847,0.9381999969482422,2.125
1682998624455763200,14.68976318359375,-0.22949999570846558,0.5837000012397766,2.3148000240325928
1682998624475764700,14.7097646484375,0.35339999198913574,-0.04649999737739563,2.7201998233795166
1682998624495761700,14.72976171875,0.9426999688148499,-0.536300003528595,2.9220998287200928
1682998624515761700,14.74976171875,1.2226999998092651,-0.3977999985218048,3.1092000007629395
1682998624535760100,14.769760009765625,0.6161999702453613,0.13650000095367432,2.5600998401641846
1682998624555761700,14.78976171875,-0.2531000077724457,0.13910000026226044,1.1857999563217163
1682998624575761700,14.80976171875,-0.4310999810695648,-0.6319000124931335,0.8741999864578247
1682998624595761700,14.82976171875,0.01640000008046627,-1.462499976158142,2.1917998790740967
1682998624615761700,14.84976171875,0.03999999910593033,-1.8621999025344849,3.1557998657226562
1682998624635760000,14.869760009765624,-0.3578999936580658,-1.9012999534606934,2.187199831008911
1682998624655761700,14.88976171875,-0.18629999458789825,-1.8449000120162964,0.013299999758601189
1682998624675772700,14.909772705078124,0.30649998784065247,-1.95989990234375,-1.7740999460220337
1682998624695761700,14.92976171875,0.6385999917984009,-2.0318000316619873,-2.7814998626708984
1682998624715761700,14.94976171875,0.2516999840736389,-2.0271999835968018,-3.1229000091552734
1682998624735761700,14.96976171875,-0.4074999988079071,-1.934499979019165,-2.910599946975708
1682998624755761700,14.98976171875,-0.6304000020027161,-1.5927000045776367,-2.2604000568389893
1682998624775761700,15.00976171875,-0.43799999356269836,-1.0109000205993652,-1.6669999361038208
1682998624795761700,15.02976171875,-0.21389999985694885,-0.6175999641418457,-1.3149999380111694
1682998624815761700,15.04976171875,-0.005399999674409628,-0.3942999839782715,-1.374899983406067
1682998624835761700,15.06976171875,0.15699999034404755,-0.43709999322891235,-1.3391000032424927
1682998624855761700,15.08976171875,0.2595999836921692,-0.3788999915122986,-1.1173999309539795
1682998624875761700,15.10976171875,0.24239999055862427,-0.26809999346733093,-1.0616999864578247
1682998624895761700,15.12976171875,0.4526999890804291,0.08370000123977661,-0.8288999795913696
1682998624915761700,15.14976171875,0.6798999905586243,0.349700003862381,-0.42879998683929443
1682998624935761700,15.16976171875,0.830299973487854,0.704800009727478,-0.2443999946117401
1682998624955761700,15.18976171875,0.8330999612808228,0.79749995470047,-0.1388999968767166
1682998624975761700,15.20976171875,1.0018999576568604,0.7757999897003174,0.2798999845981598
1682998624995761700,15.22976171875,1.2157999277114868,0.7901999950408936,1.1108999252319336
1682998625015761700,15.24976171875,1.2405999898910522,0.8555999994277954,1.6094999313354492
1682998625035761700,15.26976171875,1.0068999528884888,0.95169997215271,1.6857999563217163
1682998625055761700,15.28976171875,0.7348999977111816,1.0044000148773193,1.056399941444397
1682998625075761700,15.30976171875,0.5965999960899353,0.6295999884605408,0.839199960231781
1682998625095761700,15.32976171875,0.4528999924659729,0.26429998874664307,2.131899833679199
1682998625115761700,15.34976171875,0.3335999846458435,0.3472999930381775,2.9047000408172607
1682998625135760100,15.369760009765624,0.042799998074769974,0.3483999967575073,2.481299877166748
1682998625155761700,15.38976171875,0.336899995803833,0.3441999852657318,1.5656999349594116
1682998625175772700,15.409772705078124,1.0167999267578125,0.04729999974370003,0.9257999658584595
1682998625195764700,15.4297646484375,1.2250999212265015,-0.4211999773979187,1.1101000308990479
1682998625215764700,15.4497646484375,0.8680999875068665,-0.7598999738693237,1.8250999450683594
1682998625235761700,15.46976171875,-0.14429999887943268,-1.0411999225616455,1.8331999778747559
1682998625255761700,15.48976171875,-0.7396999597549438,-1.3336999416351318,1.3788999319076538
1682998625275761700,15.50976171875,-0.9952999949455261,-1.4428999423980713,0.42499998211860657
1682998625295761700,15.52976171875,-0.9657999873161316,-1.351699948310852,-0.8592000007629395
1682998625315761700,15.54976171875,-0.9494999647140503,-1.2466999292373657,-1.9244999885559082
1682998625335761700,15.56976171875,-1.1787999868392944,-1.1180999279022217,-2.362799882888794
1682998625355761700,15.58976171875,-1.0313999652862549,-0.7926999926567078,-2.107300043106079
1682998625375761700,15.60976171875,-0.7422999739646912,-0.4108999967575073,-1.667099952697754
1682998625395761700,15.62976171875,-0.6448999643325806,-0.14909999072551727,-1.4032999277114868
1682998625415761700,15.64976171875,-0.498199999332428,0.029099998995661736,-1.442699909210205
1682998625435761700,15.66976171875,-0.39169999957084656,0.06430000066757202,-1.549899935722351
1682998625455761700,15.68976171875,-0.37880000472068787,0.03830000013113022,-1.715499997138977
1682998625475761700,15.70976171875,-0.39139997959136963,0.18469999730587006,-1.5966999530792236
1682998625495761700,15.72976171875,-0.4992999732494354,0.4096999764442444,-1.5263999700546265
1682998625515761700,15.74976171875,-0.5370999574661255,0.647599995136261,-1.3284000158309937
1682998625535760100,15.769760009765625,-0.5943999886512756,0.9049999713897705,-0.9354999661445618
1682998625555761700,15.78976171875,-0.7080000042915344,0.8902999758720398,-0.5925999879837036
1682998625575761700,15.80976171875,-0.6139000058174133,0.8639000058174133,-0.02419999986886978
1682998625595761700,15.82976171875,-0.38349997997283936,0.6915000081062317,0.534500002861023
1682998625615761700,15.84976171875,-0.03709999844431877,0.6638999581336975,0.6923999786376953
1682998625635761700,15.86976171875,0.319599986076355,0.644599974155426,0.762999951839447
1682998625655761700,15.88976171875,0.5644999742507935,0.550000011920929,1.0992000102996826
1682998625675774200,15.909774169921874,0.4712999761104584,0.5094999670982361,1.611799955368042
1682998625695761700,15.92976171875,0.12129999697208405,0.4276999831199646,2.086199998855591
1682998625715761700,15.94976171875,-0.14350000023841858,0.16740000247955322,2.0802998542785645
1682998625735761700,15.96976171875,-0.05859999731183052,-0.21159999072551727,2.2026000022888184
1682998625755761700,15.98976171875,0.33570000529289246,-0.4632999897003174,2.0520999431610107
1682998625775761700,16.00976171875,0.6685999631881714,-0.4253999888896942,2.2383999824523926
1682998625795761700,16.02976171875,0.6417999863624573,-0.054999999701976776,2.3552000522613525
1682998625815761700,16.04976171875,0.2449999898672104,0.23549999296665192,1.2555999755859375
1682998625835761700,16.06976171875,-0.16120000183582306,-0.2687000036239624,0.8366999626159668
1682998625855761700,16.08976171875,0.01599999889731407,-0.9072999954223633,2.205699920654297
1682998625875761700,16.10976171875,0.0575999990105629,-1.3072999715805054,3.6038999557495117
1682998625895761700,16.12976171875,-0.4820999801158905,-1.5025999546051025,3.057999849319458
1682998625915761700,16.14976171875,-0.2134999930858612,-1.8953999280929565,0.26659998297691345
1682998625935761700,16.16976171875,0.2442999929189682,-2.207900047302246,-1.8930999040603638
1682998625955761700,16.18976171875,0.8499000072479248,-2.2135000228881836,-3.104599952697754
1682998625975761700,16.20976171875,0.6298999786376953,-1.952799916267395,-3.0590999126434326
1682998625995761700,16.22976171875,-0.24079999327659607,-1.5993999242782593,-2.2161998748779297
1682998626015761700,16.24976171875,-0.7937999963760376,-1.1275999546051025,-1.8966999053955078
1682998626035761700,16.26976171875,-0.8479999899864197,-0.6776999831199646,-1.5753999948501587
1682998626055761700,16.28976171875,-0.5460999608039856,-0.4822999835014343,-1.2304999828338623
1682998626075761700,16.30976171875,0.003499999875202775,-0.36249998211860657,-0.9635999798774719
1682998626095761700,16.32976171875,0.424699991941452,-0.31049999594688416,-0.6315999627113342
1682998626115761700,16.34976171875,0.6829999685287476,-0.17009998857975006,-0.3513000011444092
1682998626135761700,16.36976171875,0.9146999716758728,-0.038100000470876694,-0.42409998178482056
1682998626155761700,16.38976171875,1.1762999296188354,-0.02070000022649765,-0.6814000010490417
1682998626175774200,16.409774169921874,1.2497999668121338,-0.0551999993622303,-0.849299967288971
1682998626195761700,16.42976171875,1.0667999982833862,0.2117999941110611,-0.9376999735832214
1682998626215764700,16.4497646484375,0.6359999775886536,0.4624999761581421,-0.515500009059906
1682998626235761700,16.46976171875,0.3854999840259552,0.6721999645233154,0.15109999477863312
1682998626255761700,16.48976171875,0.2921999990940094,0.7926999926567078,0.7675999999046326
1682998626275761700,16.50976171875,0.3125999867916107,0.8048999905586243,1.0389999151229858
1682998626295761700,16.52976171875,0.6823999881744385,0.7688999772071838,0.9666999578475952
1682998626315761700,16.54976171875,1.2275999784469604,0.7576999664306641,0.7087999582290649
1682998626335763200,16.56976318359375,1.4955999851226807,0.8860999941825867,0.31529998779296875
1682998626355761700,16.58976171875,1.094099998474121,0.9581999778747559,-0.06669999659061432
1682998626375761700,16.60976171875,0.6804999709129333,0.770799994468689,0.6895999908447266
1682998626395761700,16.62976171875,0.35339999198913574,0.6301000118255615,2.0815000534057617
1682998626415761700,16.64976171875,0.2053999900817871,0.5371999740600586,2.7279999256134033
1682998626435764700,16.6697646484375,0.27730000019073486,0.11919999867677689,2.8733999729156494
1682998626455764700,16.6897646484375,0.8357999920845032,-0.054499998688697815,2.5162999629974365
1682998626475761700,16.70976171875,1.0710999965667725,-0.08779999613761902,0.6104999780654907
1682998626495761700,16.72976171875,1.0638999938964844,-0.47200000286102295,-0.24539999663829803
1682998626515761700,16.74976171875,0.8281999826431274,-0.9770999550819397,0.33079999685287476
1682998626535761700,16.76976171875,0.019600000232458115,-1.3478999137878418,0.9557999968528748
1682998626555761700,16.78976171875,-0.7924000024795532,-1.440999984741211,1.5001999139785767
1682998626575761700,16.80976171875,-1.0602999925613403,-1.5202999114990234,1.0827000141143799
1682998626595761700,16.82976171875,-0.5536999702453613,-1.3073999881744385,0.1467999964952469
1682998626615761700,16.84976171875,-0.026799999177455902,-1.237299919128418,-0.7360000014305115
1682998626635761700,16.86976171875,-0.05199999734759331,-1.0902999639511108,-1.4199999570846558
1682998626655761700,16.88976171875,-0.40869998931884766,-0.9891999959945679,-1.7901999950408936
1682998626675775700,16.909775634765627,-0.8369999527931213,-0.7630999684333801,-1.7894999980926514
1682998626695763200,16.92976318359375,-1.032099962234497,-0.4448999762535095,-1.5252000093460083
1682998626715761700,16.94976171875,-0.8648999929428101,-0.1469999998807907,-1.2700999975204468
1682998626735761700,16.96976171875,-0.6739000082015991,-0.10089999437332153,-1.229699969291687
1682998626755761700,16.98976171875,-0.5385000109672546,-0.08899999409914017,-1.4057999849319458
1682998626775761700,17.00976171875,-0.4122999906539917,0.0429999977350235,-1.5131999254226685
1682998626795761700,17.02976171875,-0.36309999227523804,0.21559999883174896,-1.2275999784469604
1682998626815761700,17.04976171875,-0.3662000000476837,0.39809998869895935,-0.8538999557495117
1682998626835761700,17.06976171875,-0.30140000581741333,0.5238999724388123,-0.5288000106811523
1682998626855761700,17.08976171875,-0.42339998483657837,0.4804999828338623,-0.4684999883174896
1682998626875761700,17.10976171875,-0.4357999861240387,0.6175000071525574,-0.5841999650001526
1682998626895761700,17.12976171875,-0.468999981880188,0.7001999616622925,-0.5914999842643738
1682998626915761700,17.14976171875,-0.4818999767303467,0.7730000019073486,-0.5006999969482422
1682998626935761700,17.16976171875,-0.3912999927997589,0.7993999719619751,-0.06709999591112137
1682998626955761700,17.18976171875,-0.10089999437332153,0.9086999893188477,0.4056999981403351
1682998626975761700,17.20976171875,0.09399999678134918,0.9927999973297119,1.094599962234497
1682998626995761700,17.22976171875,0.13599999248981476,1.0239999294281006,1.6649999618530273
1682998627015761700,17.24976171875,0.05460000038146973,0.9921999573707581,1.705199956893921
1682998627035761700,17.26976171875,0.2565000057220459,0.42329999804496765,1.5204999446868896
1682998627055761700,17.28976171875,0.7701999545097351,-0.16019999980926514,1.9156999588012695
1682998627075761700,17.30976171875,0.8952999711036682,-0.47529998421669006,2.175999879837036
1682998627095761700,17.32976171875,0.5807999968528748,-0.5119999647140503,1.9976999759674072
1682998627115764700,17.3497646484375,0.0050999997183680534,-0.1298999935388565,1.8954999446868896
1682998627135763200,17.36976318359375,-0.5246999859809875,-0.04800000041723251,1.2914999723434448
1682998627155761700,17.38976171875,-0.7041999697685242,-0.5245999693870544,1.5069999694824219
1682998627175774200,17.409774169921874,-0.10359999537467957,-1.0849000215530396,2.688199996948242
1682998627195761700,17.42976171875,0.3536999821662903,-1.3319000005722046,2.889699935913086
1682998627215761700,17.44976171875,0.12879998981952667,-1.2903999090194702,1.9747999906539917
1682998627235761700,17.46976171875,0.012600000016391277,-1.3188999891281128,0.42399999499320984
1682998627255761700,17.48976171875,0.22659999132156372,-1.52839994430542,-0.6439999938011169
1682998627275761700,17.50976171875,0.3536999821662903,-1.7084999084472656,-1.073599934577942
1682998627295761700,17.52976171875,0.26319998502731323,-1.6680999994277954,-1.6416000127792358
1682998627315761700,17.54976171875,-0.17159999907016754,-1.3335999250411987,-1.6348999738693237
1682998627335761700,17.56976171875,-0.5060999989509583,-0.960099995136261,-1.3845999240875244
1682998627355761700,17.58976171875,-0.614799976348877,-0.5694000124931335,-1.347999930381775
1682998627375761700,17.60976171875,-0.7680999636650085,-0.4016000032424927,-1.652899980545044
1682998627395761700,17.62976171875,-0.7074999809265137,-0.4163999855518341,-1.546199917793274
1682998627415761700,17.64976171875,-0.47099998593330383,-0.4546999931335449,-1.3051999807357788
1682998627435761700,17.66976171875,-0.16380000114440918,-0.42649999260902405,-0.9872999787330627
1682998627455761700,17.68976171875,0.10369999706745148,-0.3109999895095825,-0.9144999980926514
1682998627475761700,17.70976171875,0.468999981880188,-0.3626999855041504,-0.8402999639511108
1682998627495761700,17.72976171875,0.7563999891281128,-0.29889997839927673,-1.25409996509552
1682998627515761700,17.74976171875,0.9845999479293823,-0.17739999294281006,-1.1756999492645264
1682998627535760100,17.769760009765626,1.039199948310852,0.027300000190734863,-0.8816999793052673
1682998627555761700,17.78976171875,0.7950999736785889,0.3392999768257141,-0.3237999975681305
1682998627575763200,17.80976318359375,0.4124999940395355,0.4787999987602234,0.20409999787807465
1682998627595761700,17.82976171875,0.3610000014305115,0.6169999837875366,0.9188999533653259
1682998627615761700,17.84976171875,0.3804999887943268,0.5996999740600586,1.65339994430542
1682998627635761700,17.86976171875,0.7197999954223633,0.48499998450279236,1.9079999923706055
1682998627655761700,17.88976171875,0.9687999486923218,0.307699978351593,1.4858999252319336
1682998627675774200,17.909774169921874,0.935699999332428,-0.01809999905526638,0.7299000024795532
1682998627695761700,17.92976171875,0.9710999727249146,-0.3449999988079071,0.5044000148773193
1682998627715761700,17.94976171875,0.9057999849319458,-0.2782000005245209,1.2217999696731567
1682998627735761700,17.96976171875,0.3540000021457672,-0.1233999952673912,1.607699990272522
1682998627755761700,17.98976171875,-0.22499999403953552,0.07989999651908875,1.4149999618530273
1682998627775761700,18.00976171875,-0.10049999505281448,0.0013000000035390258,1.6022999286651611
1682998627795761700,18.02976171875,0.6399999856948853,0.05989999696612358,1.3187999725341797
1682998627815761700,18.04976171875,0.9548999667167664,0.14749999344348907,0.4666999876499176
1682998627835761700,18.06976171875,1.0674999952316284,0.038100000470876694,-0.1509999930858612
1682998627855761700,18.08976171875,1.0631999969482422,-0.18279999494552612,0.11289999634027481
1682998627875761700,18.10976171875,0.5518999695777893,-0.5425999760627747,1.1905999183654785
1682998627895761700,18.12976171875,-0.4827999770641327,-0.5210999846458435,1.4645999670028687
1682998627915761700,18.14976171875,-1.216499924659729,-0.5396000146865845,1.177899956703186
1682998627935761700,18.16976171875,-1.6134999990463257,-0.5767999887466431,0.5740000009536743
1682998627955761700,18.18976171875,-1.3039000034332275,-0.7306999564170837,-0.03920000046491623
1682998627975761700,18.20976171875,-0.8376999497413635,-0.8858999609947205,-0.7091999650001526
1682998627995761700,18.22976171875,-0.7067999839782715,-0.8044999837875366,-1.4843999147415161
1682998628015761700,18.24976171875,-0.7513999938964844,-0.670799970626831,-1.7699999809265137
1682998628035761700,18.26976171875,-0.793999969959259,-0.45019999146461487,-1.4395999908447266
1682998628055761700,18.28976171875,-0.8042999505996704,-0.2683999836444855,-1.0490000247955322
1682998628075761700,18.30976171875,-0.7307999730110168,-0.07970000058412552,-0.8621000051498413
1682998628095761700,18.32976171875,-0.6574999690055847,-0.07270000129938126,-0.9296000003814697
1682998628115761700,18.34976171875,-0.6024999618530273,-0.026999998837709427,-1.2041000127792358
1682998628135761700,18.36976171875,-0.6263999938964844,-0.04969999939203262,-1.3116999864578247
1682998628155761700,18.38976171875,-0.5600999593734741,0.051500000059604645,-1.164099931716919
1682998628175774200,18.409774169921874,-0.5404999852180481,0.25220000743865967,-0.8489999771118164
1682998628195761700,18.42976171875,-0.6294999718666077,0.5153999924659729,-0.8571999669075012
1682998628215761700,18.44976171875,-0.6685999631881714,0.7159000039100647,-0.7675999999046326
1682998628235761700,18.46976171875,-0.5841999650001526,0.7732999920845032,-0.62909996509552
1682998628255761700,18.48976171875,-0.30859997868537903,0.8448999524116516,-0.3434999883174896
1682998628275760000,18.509760009765625,-0.19460000097751617,0.8818999528884888,0.42239999771118164
1682998628295761700,18.52976171875,0.03480000048875809,0.9853000044822693,1.1784999370574951
1682998628315764700,18.5497646484375,0.029600000008940697,1.2645000219345093,1.6696999073028564
1682998628335763200,18.56976318359375,-0.13169999420642853,1.3935999870300293,2.0037999153137207
1682998628355761700,18.58976171875,-0.11389999836683273,1.267199993133545,2.54259991645813
1682998628375761700,18.60976171875,-0.00039999998989515007,0.5615999698638916,2.6887998580932617
1682998628395761700,18.62976171875,0.14559999108314514,0.0754999965429306,2.619799852371216
1682998628415761700,18.64976171875,0.1688999980688095,-0.24479998648166656,2.1407999992370605
1682998628435761700,18.66976171875,0.08469999581575394,-0.29999998211860657,1.7132999897003174
1682998628455761700,18.68976171875,0.4900999963283539,-0.05549999698996544,1.5716999769210815
1682998628475761700,18.70976171875,0.15469999611377716,-0.007499999832361937,0.8723999857902527
1682998628495761700,18.72976171875,-0.2953999936580658,0.002699999837204814,-0.28700000047683716
1682998628515761700,18.74976171875,-0.6870999932289124,-0.5755000114440918,-0.49789997935295105
1682998628535761700,18.76976171875,-0.6252999901771545,-1.1485999822616577,1.0206999778747559
1682998628555763200,18.78976318359375,-0.5651999711990356,-1.257099986076355,2.1649999618530273
1682998628575764700,18.8097646484375,-0.6349999904632568,-1.1338000297546387,1.6905999183654785
1682998628595761700,18.82976171875,-0.44509997963905334,-1.34499990940094,0.5178999900817871
1682998628615761700,18.84976171875,0.2886999845504761,-1.653499960899353,-0.5949000120162964
1682998628635761700,18.86976171875,0.8539999723434448,-1.636199951171875,-1.2037999629974365
1682998628655761700,18.88976171875,0.6207000017166138,-1.506500005722046,-1.3411999940872192
1682998628675774200,18.909774169921874,-0.010300000198185444,-1.1418999433517456,-1.6852999925613403
1682998628695761700,18.92976171875,-0.34289997816085815,-0.7856999635696411,-2.1278998851776123
1682998628715761700,18.94976171875,-0.4690999984741211,-0.7436000108718872,-2.0606000423431396
1682998628735761700,18.96976171875,-0.3174999952316284,-0.7073999643325806,-1.7872999906539917
1682998628755761700,18.98976171875,-0.07829999923706055,-0.648099958896637,-1.083299994468689
1682998628775761700,19.00976171875,0.19409999251365662,-0.46619999408721924,-0.44909998774528503
1682998628795761700,19.02976171875,0.3046000003814697,-0.40359997749328613,-0.21729999780654907
1682998628815761700,19.04976171875,0.6419000029563904,-0.3407000005245209,-0.6026999950408936
1682998628835763200,19.06976318359375,0.9738999605178833,-0.1630999892950058,-0.9070000052452087
1682998628855764700,19.0897646484375,0.983199954032898,0.052400000393390656,-0.7681999802589417
1682998628875761700,19.10976171875,0.6644999980926514,0.38119998574256897,-0.5410999655723572
1682998628895761700,19.12976171875,0.5852000117301941,0.659500002861023,-0.21639999747276306
1682998628915763200,19.14976318359375,0.44599997997283936,0.7762999534606934,0.3325999975204468
1682998628935761700,19.16976171875,0.39229997992515564,0.843999981880188,0.7330999970436096
1682998628955761700,19.18976171875,0.41259998083114624,0.7064999938011169,1.0056999921798706
1682998628975761700,19.20976171875,0.8755999803543091,0.5914999842643738,1.1215999126434326
1682998628995761700,19.22976171875,1.114799976348877,0.5200999975204468,0.9229999780654907
1682998629015761700,19.24976171875,1.0943999290466309,0.5338000059127808,0.21549999713897705
1682998629035761700,19.26976171875,0.9200999736785889,0.32170000672340393,0.6372999548912048
1682998629055764700,19.2897646484375,0.79339998960495,0.3414999842643738,2.187000036239624
1682998629075764700,19.3097646484375,0.41130000352859497,0.5309000015258789,3.0607998371124268
1682998629095761700,19.32976171875,0.04019999876618385,0.5115000009536743,3.2273998260498047
1682998629115761700,19.34976171875,0.08209999650716782,0.513700008392334,2.4896998405456543
1682998629135760100,19.369760009765624,0.574400007724762,0.45659998059272766,0.6918999552726746
1682998629155761700,19.38976171875,0.8912999629974365,0.12199999392032623,-0.9491999745368958
1682998629175772700,19.409772705078126,1.1680999994277954,-0.47759997844696045,-0.7551999688148499
1682998629195761700,19.42976171875,0.9169999957084656,-0.857699990272522,-0.0013000000035390258
1682998629215761700,19.44976171875,-0.12219999730587006,-1.0016999244689941,0.9092999696731567
1682998629235761700,19.46976171875,-0.856499969959259,-0.8414999842643738,1.1414999961853027
1682998629255761700,19.48976171875,-1.1014999151229858,-0.7928000092506409,0.44119998812675476
1682998629275761700,19.50976171875,-0.5910999774932861,-0.7985999584197998,-0.3554999828338623
1682998629295761700,19.52976171875,-0.07639999687671661,-0.8324999809265137,-1.1786999702453613
1682998629315761700,19.54976171875,-0.04690000042319298,-0.8330999612808228,-1.727199912071228
1682998629335761700,19.56976171875,-0.2936999797821045,-0.7024999856948853,-1.88510000705719
1682998629355761700,19.58976171875,-0.4293999969959259,-0.5310999751091003,-1.5920000076293945
1682998629375761700,19.60976171875,-0.38019999861717224,-0.2052999883890152,-1.1898000240325928
1682998629395761700,19.62976171875,-0.29580000042915344,-0.05700000002980232,-0.8748999834060669
1682998629415761700,19.64976171875,-0.3215999901294708,0.0017999999690800905,-0.7854999899864197
1682998629435761700,19.66976171875,-0.5113999843597412,-0.013100000098347664,-0.7749999761581421
1682998629455761700,19.68976171875,-0.49879997968673706,0.07019999623298645,-0.7445999979972839
1682998629475761700,19.70976171875,-0.6545000076293945,0.019199999049305916,-0.8216999769210815
1682998629495761700,19.72976171875,-0.7179999947547913,0.21559999883174896,-0.8587999939918518
1682998629515761700,19.74976171875,-0.8003000020980835,0.2793000042438507,-0.7005999684333801
1682998629535761700,19.76976171875,-0.9490000009536743,0.3197999894618988,-0.5633999705314636
1682998629555761700,19.78976171875,-0.8242999911308289,0.35249999165534973,-0.3181999921798706
1682998629575761700,19.80976171875,-0.36389997601509094,0.40609997510910034,-0.17989999055862427
1682998629595761700,19.82976171875,0.12379999458789825,0.6331999897956848,0.01889999955892563
1682998629615761700,19.84976171875,0.30820000171661377,0.7501999735832214,0.512499988079071
1682998629635761700,19.86976171875,0.17000000178813934,0.9067999720573425,1.1424000263214111
1682998629655761700,19.88976171875,0.027499999850988388,0.9630999565124512,1.7323999404907227
1682998629675774200,19.909774169921874,0.04569999873638153,0.8815000057220459,2.037799835205078
1682998629695761700,19.92976171875,0.29179999232292175,0.3626999855041504,2.3536999225616455
1682998629715763200,19.94976318359375,0.5002999901771545,0.01850000023841858,2.2588999271392822
1682998629735761700,19.96976171875,0.45499998331069946,-0.2214999943971634,1.7254999876022339
1682998629755761700,19.98976171875,0.4180999994277954,-0.20960000157356262,1.6933000087738037
1682998629775761700,20.00976171875,0.15209999680519104,-0.045099999755620956,1.5906999111175537
1682998629795761700,20.02976171875,-0.2744999825954437,0.039799999445676804,0.9088000059127808
1682998629815763200,20.04976318359375,-0.47609999775886536,-0.4372999966144562,1.0475000143051147
1682998629835763200,20.06976318359375,-0.23849999904632568,-0.9289000034332275,1.9282000064849854
1682998629855761700,20.08976171875,-0.22379998862743378,-1.1273000240325928,2.5030999183654785
1682998629875761700,20.10976171875,-0.4098999798297882,-1.1705999374389648,2.1554999351501465
1682998629895761700,20.12976171875,-0.3199000060558319,-1.2604999542236328,0.6114999651908875
1682998629915761700,20.14976171875,0.33820000290870667,-1.5281000137329102,-0.6858999729156494
1682998629935761700,20.16976171875,0.5942999720573425,-1.708899974822998,-1.6674998998641968
1682998629955761700,20.18976171875,0.19359999895095825,-1.653899908065796,-2.1768999099731445
1682998629975761700,20.20976171875,-0.06039999797940254,-1.4527000188827515,-2.2458999156951904
1682998629995763200,20.22976318359375,-0.20229999721050262,-0.9953999519348145,-1.9638999700546265
1682998630015764700,20.2497646484375,-0.20019999146461487,-0.6791999936103821,-1.4377999305725098
1682998630035761700,20.26976171875,-0.08370000123977661,-0.38179999589920044,-1.2235000133514404
1682998630055761700,20.28976171875,0.11349999904632568,-0.353300005197525,-0.9691999554634094
1682998630075761700,20.30976171875,0.15320000052452087,-0.4315999746322632,-0.70660001039505
1682998630095761700,20.32976171875,0.16290000081062317,-0.46949997544288635,-0.5615000128746033
1682998630115761700,20.34976171875,0.21490000188350677,-0.37790000438690186,-0.5525999665260315
1682998630135761700,20.36976171875,0.48889997601509094,-0.3628999888896942,-0.5331999659538269
1682998630155761700,20.38976171875,0.592199981212616,-0.3211999833583832,-0.7684999704360962
1682998630175774200,20.409774169921874,0.6177999973297119,-0.12870000302791595,-0.7681999802589417
1682998630195761700,20.42976171875,0.6189000010490417,0.023599999025464058,-0.571399986743927
1682998630215761700,20.44976171875,0.651699960231781,0.2865999937057495,-0.4136999845504761
1682998630235761700,20.46976171875,0.7515000104904175,0.4748999774456024,-0.019899999722838402
1682998630255761700,20.48976171875,0.8068999648094177,0.5468999743461609,0.6394000053405762
1682998630275761700,20.50976171875,0.6559999585151672,0.7080999612808228,1.2796000242233276
1682998630295761700,20.52976171875,0.47450000047683716,0.9351999759674072,1.7138999700546265
1682998630315761700,20.54976171875,0.3236999809741974,1.0044000148773193,1.5291999578475952
1682998630335761700,20.56976171875,0.45170000195503235,0.8459999561309814,0.6671000123023987
1682998630355761700,20.58976171875,0.8563999533653259,0.5719000101089478,0.47259998321533203
1682998630375761700,20.60976171875,0.9566999673843384,0.47919997572898865,1.337999939918518
1682998630395761700,20.62976171875,0.44369998574256897,0.7348999977111816,2.164599895477295
1682998630415761700,20.64976171875,-0.03669999912381172,0.824400007724762,2.373499870300293
1682998630435761700,20.66976171875,0.08489999920129776,0.707099974155426,2.079200029373169
1682998630455761700,20.68976171875,0.5210999846458435,0.5572999715805054,1.0297999382019043
1682998630475761700,20.70976171875,0.7245999574661255,0.3294000029563904,-0.029999999329447746
1682998630495761700,20.72976171875,0.7942999601364136,-0.11739999800920486,0.016699999570846558
1682998630515761700,20.74976171875,0.40219998359680176,-0.5449000000953674,0.41579997539520264
1682998630535761700,20.76976171875,-0.23969998955726624,-0.9767999649047852,0.9230999946594238
1682998630555761700,20.78976171875,-0.47859999537467957,-1.1253999471664429,1.3214999437332153
1682998630575761700,20.80976171875,-0.2759000062942505,-1.2472999095916748,1.1607999801635742
1682998630595761700,20.82976171875,-0.18599998950958252,-1.2203999757766724,0.4900999963283539
1682998630615761700,20.84976171875,-0.2565999925136566,-1.1473000049591064,-0.4438000023365021
1682998630635760000,20.869760009765624,-0.45409998297691345,-1.222599983215332,-1.0822999477386475
1682998630655761700,20.88976171875,-0.557200014591217,-1.2243000268936157,-1.5343999862670898
1682998630675772700,20.909772705078126,-0.7163000106811523,-1.2904999256134033,-1.967099905014038
1682998630695761700,20.92976171875,-0.6075999736785889,-1.0561000108718872,-1.9194999933242798
1682998630715761700,20.94976171875,-0.423799991607666,-0.6811000108718872,-1.69569993019104
1682998630735761700,20.96976171875,-0.14350000023841858,-0.4090999960899353,-1.3040000200271606
1682998630755761700,20.98976171875,0.19200000166893005,-0.21570000052452087,-0.9994999766349792
1682998630775761700,21.00976171875,0.31459999084472656,-0.08779999613761902,-0.6556999683380127
1682998630795761700,21.02976171875,0.08729999512434006,0.015599999576807022,-0.36079999804496765
1682998630815761700,21.04976171875,-0.46559998393058777,0.20489999651908875,-0.3902999758720398
1682998630835761700,21.06976171875,-0.8829999566078186,0.24849998950958252,-0.7633999586105347
1682998630855761700,21.08976171875,-0.729699969291687,0.2847000062465668,-0.9979999661445618
1682998630875761700,21.10976171875,-0.39879998564720154,0.43549999594688416,-0.8976999521255493
1682998630895761700,21.12976171875,-0.15860000252723694,0.7681999802589417,-0.6897000074386597
1682998630915761700,21.14976171875,-0.18140000104904175,0.8568999767303467,-0.1590999960899353
1682998630935761700,21.16976171875,-0.1485999971628189,0.9114999771118164,0.24399998784065247
1682998630955761700,21.18976171875,-0.06419999897480011,1.014699935913086,0.5399999618530273
1682998630975761700,21.20976171875,-0.12289999425411224,1.2329999208450317,0.8657999634742737
1682998630995761700,21.22976171875,-0.2759000062942505,1.2482999563217163,1.0835999250411987
1682998631015761700,21.24976171875,-0.06700000166893005,1.1318999528884888,1.2520999908447266
1682998631035761700,21.26976171875,0.23829999566078186,0.8971999883651733,1.2626999616622925
1682998631055761700,21.28976171875,0.4180999994277954,0.430899977684021,1.5972999334335327
1682998631075761700,21.30976171875,0.3831999897956848,0.26510000228881836,2.09909987449646
1682998631095761700,21.32976171875,0.320499986410141,0.19759999215602875,2.7607998847961426
1682998631115761700,21.34976171875,0.07459999620914459,0.16679999232292175,3.285599946975708
1682998631135760100,21.369760009765624,-0.23759999871253967,0.0778999999165535,2.288300037384033
1682998631155761700,21.38976171875,-0.334199994802475,-0.2076999992132187,0.36730000376701355
1682998631175772700,21.409772705078126,-0.17219999432563782,-0.986799955368042,-0.05460000038146973
1682998631195761700,21.42976171875,0.01640000008046627,-1.5965999364852905,0.621399998664856
1682998631215761700,21.44976171875,0.09559999406337738,-1.746500015258789,1.6608999967575073
1682998631235761700,21.46976171875,-0.08639999479055405,-1.56659996509552,2.1605000495910645
1682998631255761700,21.48976171875,-0.2888000011444092,-1.3722999095916748,1.0972999334335327
1682998631275761700,21.50976171875,-0.11429999768733978,-1.6398999691009521,-0.47749999165534973
1682998631295761700,21.52976171875,0.4283999800682068,-1.7924000024795532,-1.4905999898910522
1682998631315761700,21.54976171875,0.7468999624252319,-1.7488999366760254,-1.9811999797821045
1682998631335761700,21.56976171875,0.35339999198913574,-1.4351999759674072,-2.0202999114990234
1682998631355761700,21.58976171875,-0.24769999086856842,-1.0710999965667725,-1.7177000045776367
1682998631375761700,21.60976171875,-0.5961999893188477,-0.6916999816894531,-1.7487999200820923
1682998631395761700,21.62976171875,-0.6804999709129333,-0.5870000123977661,-1.5235999822616577
1682998631415761700,21.64976171875,-0.33640000224113464,-0.5098000168800354,-1.062399983406067
1682998631435761700,21.66976171875,0.08579999953508377,-0.4535999894142151,-0.4648999869823456
1682998631455761700,21.68976171875,0.3626999855041504,-0.33949998021125793,-0.16279999911785126
1682998631475761700,21.70976171875,0.5259000062942505,-0.19249999523162842,-0.3604999780654907
1682998631495761700,21.72976171875,0.739799976348877,-0.18979999423027039,-0.5669000148773193
1682998631515761700,21.74976171875,0.8331999778747559,-0.0005999999702908099,-0.8210999965667725
1682998631535763200,21.76976318359375,0.8216999769210815,0.27230000495910645,-0.7317999601364136
1682998631555764700,21.7897646484375,0.6354999542236328,0.5228999853134155,-0.48589998483657837
1682998631575761700,21.80976171875,0.519599974155426,0.7723999619483948,-0.23029999434947968
1682998631595761700,21.82976171875,0.4043000042438507,0.9320999979972839,0.31929999589920044
1682998631615761700,21.84976171875,0.33879998326301575,0.9186999797821045,0.9957000017166138
1682998631635761700,21.86976171875,0.5498999953269958,0.8001999855041504,1.690999984741211
1682998631655761700,21.88976171875,0.821899950504303,0.8017999529838562,1.8458999395370483
1682998631675774200,21.909774169921874,0.8435999751091003,0.6446999907493591,1.4703999757766724
1682998631695761700,21.92976171875,0.7963999509811401,0.3488999903202057,1.0062999725341797
1682998631715761700,21.94976171875,0.8327999711036682,-0.17059999704360962,1.5037999153137207
1682998631735761700,21.96976171875,0.65829998254776,-0.24210000038146973,1.8157999515533447
1682998631755761700,21.98976171875,0.44609999656677246,-0.10399999469518661,1.767300009727478
1682998631775761700,22.00976171875,0.218299999833107,0.007699999958276749,1.8849999904632568
1682998631795761700,22.02976171875,0.171999990940094,0.053199999034404755,0.9138999581336975
1682998631815761700,22.04976171875,0.07699999958276749,0.13509999215602875,-0.7443000078201294
1682998631835761700,22.06976171875,0.5516999959945679,-0.21119999885559082,-1.3342000246047974
1682998631855761700,22.08976171875,0.6518999934196472,-0.7235999703407288,-0.6015999913215637
1682998631875761700,22.10976171875,0.37709999084472656,-1.0584999322891235,0.503600001335144
1682998631895761700,22.12976171875,-0.13779999315738678,-1.1698999404907227,1.1576999425888062
1682998631915761700,22.14976171875,-0.13449999690055847,-1.1412999629974365,0.9875999689102173
1682998631935761700,22.16976171875,0.23169998824596405,-1.0825999975204468,0.013199999928474426
1682998631955761700,22.18976171875,0.4794999957084656,-0.9528999924659729,-0.890999972820282
1682998631975761700,22.20976171875,0.1581999957561493,-0.750499963760376,-1.302799940109253
1682998631995761700,22.22976171875,-0.44579997658729553,-0.5347999930381775,-1.4392999410629272
1682998632015761700,22.24976171875,-0.7318999767303467,-0.3147999942302704,-1.301800012588501
1682998632035761700,22.26976171875,-0.8888999819755554,-0.3351999819278717,-1.0174999237060547
1682998632055761700,22.28976171875,-0.7676999568939209,-0.29440000653266907,-0.7333999872207642
1682998632075761700,22.30976171875,-0.43459999561309814,-0.19519999623298645,-0.24219998717308044
1682998632095761700,22.32976171875,-0.23969998955726624,0.013599999248981476,0.004799999762326479
1682998632115761700,22.34976171875,-0.30889999866485596,0.19200000166893005,-0.0030999998562037945
1682998632135760100,22.369760009765624,-0.3807999789714813,0.28049999475479126,-0.12870000302791595
1682998632155761700,22.38976171875,-0.37529999017715454,0.4034999907016754,-0.38199999928474426
1682998632175772700,22.409772705078126,-0.5656999945640564,0.3756999969482422,-0.9298999905586243
1682998632195761700,22.42976171875,-0.7793999910354614,0.49459999799728394,-1.448099970817566
1682998632215761700,22.44976171875,-1.0022000074386597,0.5232999920845032,-1.309399962425232
1682998632235761700,22.46976171875,-0.9591999650001526,0.6676999926567078,-0.9060999751091003
1682998632255761700,22.48976171875,-0.7234999537467957,0.7586999535560608,-0.37539997696876526
1682998632275761700,22.50976171875,-0.296999990940094,0.9212999939918518,0.23359999060630798
1682998632295761700,22.52976171875,0.01269999984651804,1.0533000230789185,0.5485000014305115
1682998632315761700,22.54976171875,0.06659999489784241,1.1469999551773071,0.726099967956543
1682998632335761700,22.56976171875,0.055399999022483826,1.086300015449524,1.0898000001907349
1682998632355761700,22.58976171875,0.09349999576807022,1.1243000030517578,1.4134999513626099
1682998632375761700,22.60976171875,-0.08049999922513962,1.015299916267395,1.3834999799728394
1682998632395761700,22.62976171875,-0.07259999960660934,0.6668999791145325,1.4024999141693115
1682998632415761700,22.64976171875,0.19009999930858612,0.3244999945163727,1.824199914932251
1682998632435761700,22.66976171875,0.2498999983072281,0.03280000016093254,2.5909998416900635
1682998632455761700,22.68976171875,0.11490000039339066,-0.00419999985024333,2.966399908065796
1682998632475761700,22.70976171875,-0.19749999046325684,0.05859999731183052,2.075199842453003
1682998632495761700,22.72976171875,-0.4478999972343445,-0.2449999898672104,0.7305999994277954
1682998632515761700,22.74976171875,0.00039999998989515007,-1.1033999919891357,0.8841999769210815
1682998632535761700,22.76976171875,0.6491999626159668,-1.6971999406814575,2.0271999835968018
1682998632555761700,22.78976171875,0.7329999804496765,-1.729200005531311,2.4558000564575195
1682998632575761700,22.80976171875,0.1477999985218048,-1.5825999975204468,1.4520999193191528
1682998632595761700,22.82976171875,0.10040000081062317,-1.6411999464035034,-0.521399974822998
1682998632615761700,22.84976171875,0.33219999074935913,-1.8696999549865723,-1.5509999990463257
1682998632635760000,22.869760009765624,0.07419999688863754,-1.9975999593734741,-1.9621999263763428
1682998632655761700,22.88976171875,-0.5076000094413757,-1.7137999534606934,-1.9520999193191528
1682998632675772700,22.909772705078126,-0.6428999900817871,-1.3270999193191528,-1.63919997215271
1682998632695761700,22.92976171875,-0.3041999936103821,-0.9246999621391296,-1.2480000257492065
1682998632715761700,22.94976171875,0.06830000132322311,-0.5974999666213989,-1.1883999109268188
1682998632735761700,22.96976171875,0.14169999957084656,-0.4505999982357025,-1.1370999813079834
1682998632755761700,22.98976171875,-0.024399999529123306,-0.46129998564720154,-0.8908999562263489
1682998632775761700,23.00976171875,-0.07939999550580978,-0.4983999729156494,-0.7335999608039856
1682998632795761700,23.02976171875,0.062199998646974564,-0.4388999938964844,-0.4391999840736389
1682998632815761700,23.04976171875,0.274399995803833,-0.2791999876499176,-0.17409999668598175
1682998632835761700,23.06976171875,0.44929999113082886,-0.08419999480247498,-0.3409000039100647
1682998632855761700,23.08976171875,0.4950999915599823,-0.020399998873472214,-0.6638999581336975
1682998632875761700,23.10976171875,0.5049999952316284,0.21199999749660492,-0.6527000069618225
1682998632895761700,23.12976171875,0.3353999853134155,0.4910999834537506,-0.3667999804019928
1682998632915761700,23.14976171875,0.03619999811053276,0.6897000074386597,-0.14059999585151672
1682998632935761700,23.16976171875,-0.17949999868869781,0.8240000009536743,0.2611999809741974
1682998632955761700,23.18976171875,-0.08749999850988388,0.9036999940872192,0.7800999879837036
1682998632975761700,23.20976171875,0.05549999698996544,0.9575999975204468,1.170699954032898
1682998632995761700,23.22976171875,0.47679999470710754,0.9440000057220459,0.9629999995231628
1682998633015761700,23.24976171875,1.0340999364852905,0.8987999558448792,0.4901999831199646
1682998633035761700,23.26976171875,1.2055000066757202,0.7058999538421631,0.2529999911785126
1682998633055761700,23.28976171875,1.1543999910354614,0.444599986076355,0.9284999966621399
1682998633075761700,23.30976171875,0.6959999799728394,0.4827999770641327,2.0464999675750732
1682998633095761700,23.32976171875,0.17719998955726624,0.5187999606132507,2.4895999431610107
1682998633115761700,23.34976171875,0.15379999577999115,0.3791999816894531,2.863799810409546
1682998633135760100,23.369760009765624,0.4186999797821045,0.11449999362230301,2.628700017929077
1682998633155761700,23.38976171875,0.396699994802475,-0.07649999856948853,1.441499948501587
1682998633175772700,23.409772705078126,-0.0608999989926815,-0.29649999737739563,-0.011099999770522118
1682998633195761700,23.42976171875,-0.22589999437332153,-0.9078999757766724,-0.836899995803833
1682998633215761700,23.44976171875,-0.43860000371932983,-1.573199987411499,-0.7816999554634094
1682998633235761700,23.46976171875,-0.47099998593330383,-1.8661999702453613,-0.44110000133514404
1682998633255761700,23.48976171875,-0.5579999685287476,-2.0829999446868896,-0.11899999529123306
1682998633275761700,23.50976171875,-0.17019999027252197,-2.0571000576019287,0.026899999007582664
1682998633295761700,23.52976171875,0.18029999732971191,-1.9544999599456787,0.16359999775886536
1682998633315761700,23.54976171875,0.27869999408721924,-1.7738999128341675,0.09559999406337738
1682998633335761700,23.56976171875,-0.06019999831914902,-1.5058999061584473,-0.17710000276565552
1682998633355761700,23.58976171875,-0.4156000018119812,-1.1563999652862549,-0.8224999904632568
1682998633375761700,23.60976171875,-0.6972999572753906,-0.8604999780654907,-1.1836999654769897
1682998633395761700,23.62976171875,-0.8098999857902527,-0.5690000057220459,-1.4269999265670776
1682998633415761700,23.64976171875,-0.676800012588501,-0.37449997663497925,-1.1302999258041382
1682998633435761700,23.66976171875,-0.6753000020980835,-0.15289999544620514,-0.7267000079154968
1682998633455761700,23.68976171875,-0.8684999942779541,0.1331000030040741,-0.4903999865055084
1682998633475761700,23.70976171875,-0.8604999780654907,0.46949997544288635,-0.4495999813079834
1682998633495761700,23.72976171875,-0.7662000060081482,0.6273999810218811,-0.3586999773979187
1682998633515761700,23.74976171875,-0.5972999930381775,0.7002999782562256,-0.7375999689102173
1682998633535761700,23.76976171875,-0.6608999967575073,0.7046999931335449,-0.9212999939918518
1682998633555761700,23.78976171875,-0.5726999640464783,0.8108999729156494,-0.8610000014305115
1682998633575761700,23.80976171875,-0.6909999847412109,0.9996999502182007,-0.6541000008583069
1682998633595761700,23.82976171875,-0.6394999623298645,1.1395999193191528,-0.3296999931335449
1682998633615761700,23.84976171875,-0.5508999824523926,1.2355999946594238,0.08259999752044678
1682998633635761700,23.86976171875,-0.5138999819755554,1.3076000213623047,0.3772999942302704
1682998633655761700,23.88976171875,-0.536899983882904,1.2238999605178833,0.6419000029563904
1682998633675772700,23.909772705078126,-0.33550000190734863,1.1496999263763428,0.7978000044822693
1682998633695761700,23.92976171875,-0.13369999825954437,1.0993999242782593,0.8746999502182007
1682998633715761700,23.94976171875,-0.11939999461174011,0.9656999707221985,0.6678999662399292
1682998633735761700,23.96976171875,-0.11840000003576279,0.7214999794960022,0.32569998502731323
1682998633755761700,23.98976171875,-0.06239999830722809,0.2775999903678894,0.7877999544143677
1682998633775761700,24.00976171875,0.14710000157356262,-0.1054999977350235,1.515299916267395
1682998633795761700,24.02976171875,0.3991999924182892,-0.18879999220371246,3.018399953842163
1682998633815761700,24.04976171875,0.4262999892234802,-0.0762999951839447,4.57889986038208
1682998633835761700,24.06976171875,-0.1850000023841858,0.3037000000476837,3.9235999584198
1682998633855761700,24.08976171875,-0.8596999645233154,-0.01979999989271164,1.2838000059127808
1682998633875761700,24.10976171875,-0.34549999237060547,-0.8833000063896179,-0.435699999332428
1682998633895761700,24.12976171875,0.4626999795436859,-1.8750998973846436,-0.6624000072479248
1682998633915761700,24.14976171875,0.6462999582290649,-2.14139986038208,-0.39719998836517334
1682998633935761700,24.16976171875,-0.001500000013038516,-1.7947999238967896,0.13079999387264252
1682998633955761700,24.18976171875,-0.6681999564170837,-1.4139000177383423,0.3224000036716461
1682998633975761700,24.20976171875,-0.5906000137329102,-1.2839000225067139,0.044199999421834946
1682998633995761700,24.22976171875,0.12079999595880508,-1.3841999769210815,-0.30889999866485596
1682998634015761700,24.24976171875,0.21789999306201935,-1.37309992313385,-0.4269999861717224
1682998634035761700,24.26976171875,-0.24149999022483826,-1.2453999519348145,-0.5076999664306641
1682998634055761700,24.28976171875,-0.7098999619483948,-1.0916999578475952,-0.8725999593734741
1682998634075761700,24.30976171875,-0.5920999646186829,-0.8363999724388123,-1.3524999618530273
1682998634095761700,24.32976171875,-0.1703999936580658,-0.6200999617576599,-1.3601999282836914
1682998634115761700,24.34976171875,0.07729999721050262,-0.4966000020503998,-1.1236000061035156
1682998634135760100,24.369760009765624,-0.013700000010430813,-0.409199982881546,-0.839199960231781
1682998634155761700,24.38976171875,-0.09119999408721924,-0.3709000051021576,-0.7610999941825867
1682998634175772700,24.409772705078126,-0.07609999924898148,-0.13199999928474426,-0.4465999901294708
1682998634195761700,24.42976171875,0.04089999943971634,0.12409999966621399,-0.14069999754428864
1682998634215761700,24.44976171875,0.06989999860525131,0.3084999918937683,-0.1289999932050705
1682998634235761700,24.46976171875,0.1876000016927719,0.39559999108314514,-0.353300005197525
1682998634255761700,24.48976171875,0.24899999797344208,0.4860000014305115,-0.5292999744415283
1682998634275761700,24.50976171875,0.24859999120235443,0.6169999837875366,-0.4105999767780304
1682998634295761700,24.52976171875,0.22679999470710754,0.8118000030517578,-0.1930999904870987
1682998634315761700,24.54976171875,0.2087000012397766,0.9794999957084656,0.07319999486207962
1682998634335761700,24.56976171875,0.22589999437332153,1.174399971961975,0.5546999573707581
1682998634355761700,24.58976171875,0.2597000002861023,1.261099934577942,1.3298999071121216
1682998634375761700,24.60976171875,0.38019999861717224,1.243299961090088,1.7115999460220337
1682998634395761700,24.62976171875,0.6144999861717224,1.0024999380111694,1.5526999235153198
1682998634415761700,24.64976171875,0.836899995803833,0.7149999737739563,0.8733999729156494
1682998634435761700,24.66976171875,1.0392999649047852,0.04490000009536743,0.6843000054359436
1682998634455761700,24.68976171875,1.1592999696731567,-0.14399999380111694,1.5647000074386597
1682998634475761700,24.70976171875,1.0231999158859253,0.06509999930858612,2.3687000274658203
1682998634495761700,24.72976171875,0.47849997878074646,0.20469999313354492,2.878199815750122
1682998634515761700,24.74976171875,0.3249000012874603,0.2149999886751175,2.1900999546051025
1682998634535761700,24.76976171875,0.5241000056266785,0.10849999636411667,0.030899999663233757
1682998634555761700,24.78976171875,0.7870000004768372,-0.39659997820854187,-1.4615999460220337
1682998634575761700,24.80976171875,0.7912999987602234,-1.2117999792099,-1.4138000011444092
1682998634595761700,24.82976171875,0.3182999789714813,-1.3324999809265137,-0.4423999786376953
1682998634615761700,24.84976171875,-0.649399995803833,-1.1691999435424805,1.2455999851226807
1682998634635761700,24.86976171875,-1.2675999402999878,-0.7039999961853027,1.3127999305725098
1682998634655761700,24.88976171875,-1.330299973487854,-0.7727999687194824,0.4682999849319458
1682998634675772700,24.909772705078126,-0.4838999807834625,-0.7304999828338623,-0.5300999879837036
1682998634695761700,24.92976171875,-0.2540000081062317,-0.8907999992370605,-1.0749999284744263
1682998634715761700,24.94976171875,-0.8730999827384949,-0.9244999885559082,-1.3565999269485474
1682998634735761700,24.96976171875,-1.4656000137329102,-0.7285000085830688,-1.1998000144958496
1682998634755761700,24.98976171875,-1.4594999551773071,-0.37950000166893005,-0.7687000036239624
1682998634775761700,25.00976171875,-1.2418999671936035,-0.21930000185966492,-0.5031999945640564
1682998634795761700,25.02976171875,-0.8892999887466431,-0.11580000072717667,-0.48319998383522034
1682998634815761700,25.04976171875,-0.6096999645233154,-0.0044999998062849045,-0.6110999584197998
1682998634835761700,25.06976171875,-0.49559998512268066,0.07449999451637268,-0.7685999870300293
1682998634855761700,25.08976171875,-0.4887999892234802,0.0876999944448471,-0.8464999794960022
1682998634875761700,25.10976171875,-0.5196999907493591,0.08549999445676804,-0.8154000043869019
1682998634895761700,25.12976171875,-0.5552999973297119,0.19589999318122864,-0.725600004196167
1682998634915761700,25.14976171875,-0.6909999847412109,0.461899995803833,-0.5674999952316284
1682998634935761700,25.16976171875,-0.8147000074386597,0.7938999533653259,-0.3991999924182892
1682998634955761700,25.18976171875,-0.8155999779701233,1.0077999830245972,-0.41669997572898865
1682998634975763200,25.20976318359375,-0.6385999917984009,1.02839994430542,-0.5612999796867371
1682998634995761700,25.22976171875,-0.19359999895095825,1.0449999570846558,-0.49939998984336853
1682998635015761700,25.24976171875,0.15850000083446503,1.1058999300003052,0.0722000002861023
1682998635035761700,25.26976171875,0.1152999997138977,1.1730999946594238,0.8104000091552734
1682998635055761700,25.28976171875,-0.33139997720718384,1.1995999813079834,1.6359999179840088
1682998635075761700,25.30976171875,-0.6669999957084656,1.0899999141693115,2.2936999797821045
1682998635095761700,25.32976171875,-0.6834999918937683,0.8607999682426453,2.224400043487549
1682998635115761700,25.34976171875,-0.27629998326301575,0.15060000121593475,1.5367000102996826
1682998635135761700,25.36976171875,0.17549999058246613,-0.39089998602867126,1.1924999952316284
1682998635155761700,25.38976171875,0.5561000108718872,-0.6930999755859375,1.3704999685287476
1682998635175772700,25.409772705078126,0.7634999752044678,-0.5619999766349792,2.119499921798706
1682998635195761700,25.42976171875,0.3536999821662903,-0.218299999833107,2.4059998989105225
1682998635215761700,25.44976171875,-0.3037000000476837,0.02499999850988388,0.9569000005722046
1682998635235761700,25.46976171875,-0.429099977016449,-0.3330000042915344,0.4081999957561493
1682998635255761700,25.48976171875,-0.016599999740719795,-0.8109999895095825,1.4462999105453491
1682998635275761700,25.50976171875,0.056699998676776886,-0.8452000021934509,2.3671000003814697
1682998635295761700,25.52976171875,-0.2683999836444855,-0.8499000072479248,2.1095998287200928
