time,seconds_elapsed,z,y,x
1682998609815763200,0.04976318359375,9.359299659729004,-0.10729999840259552,2.926100015640259
1682998609835761700,0.06976171875,9.359299659729004,-0.10729999840259552,2.926100015640259
1682998609855761700,0.08976171875,2.6108999252319336,-1.3309999704360962,9.358399391174316
1682998609875761700,0.10976171875,2.604099988937378,-1.3349000215530396,9.3597993850708
1682998609895763200,0.12976318359375,2.5886998176574707,-1.3351999521255493,9.363999366760254
1682998609915761700,0.14976171875,2.5767998695373535,-1.3310999870300293,9.367899894714355
1682998609935761700,0.16976171875,2.561800003051758,-1.3113999366760254,9.374799728393555
1682998609955760000,0.189760009765625,2.5072999000549316,-1.2803999185562134,9.393799781799316
1682998609975761700,0.20976171875,2.4064998626708984,-1.1845999956130981,9.432600021362305
1682998609995761700,0.22976171875,2.3789000511169434,-1.065999984741211,9.453800201416016
1682998610015761700,0.24976171875,2.398599863052368,-1.045199990272522,9.451099395751953
1682998610035761700,0.26976171875,2.451900005340576,-0.988599956035614,9.443499565124512
1682998610055763200,0.28976318359375,2.4639999866485596,-0.9281999468803406,9.446499824523926
1682998610075763200,0.30976318359375,2.475600004196167,-0.8833000063896179,9.447799682617188
1682998610095761700,0.32976171875,2.4651999473571777,-0.8095999956130981,9.457099914550781
1682998610115763200,0.34976318359375,2.430799961090088,-0.7173999547958374,9.473400115966797
1682998610135763200,0.36976318359375,2.4173998832702637,-0.6969000101089478,9.478400230407715
1682998610155761700,0.38976171875,2.3770999908447266,-0.7031999826431274,9.488100051879883
1682998610175772700,0.409772705078125,2.3320000171661377,-0.739799976348877,9.496500015258789
1682998610195763200,0.42976318359375,2.240499973297119,-0.7960000038146973,9.513999938964844
1682998610215763200,0.44976318359375,2.1816999912261963,-0.8755999803543091,9.520599365234375
1682998610235760000,0.469760009765625,2.171599864959717,-0.9418999552726746,9.516599655151367
1682998610255763200,0.48976318359375,2.1529998779296875,-1.0047999620437622,9.514399528503418
1682998610275761700,0.50976171875,2.1310999393463135,-1.0512999296188354,9.514299392700195
1682998610295761700,0.52976171875,2.0780999660491943,-1.0827000141143799,9.522500038146973
1682998610315760000,0.549760009765625,2.0518999099731445,-1.142199993133545,9.521299362182617
1682998610335760100,0.569760009765625,2.072000026702881,-1.1578999757766724,9.514999389648438
1682998610355761700,0.58976171875,2.0971999168395996,-1.2064999341964722,9.503399848937988
1682998610375761700,0.60976171875,2.1011998653411865,-1.3220999240875244,9.487099647521973
1682998610395760000,0.629760009765625,2.051300048828125,-1.448599934577942,9.479599952697754
1682998610415763200,0.64976318359375,1.9438999891281128,-1.5789999961853027,9.481399536132812
1682998610435763200,0.66976318359375,1.9054999351501465,-1.6694999933242798,9.473699569702148
1682998610455761700,0.68976171875,1.9696999788284302,-1.7096999883651733,9.453399658203125
1682998610475761700,0.70976171875,2.063999891281128,-1.7569999694824219,9.42449951171875
1682998610495761700,0.72976171875,2.085700035095215,-1.8418999910354614,9.403499603271484
1682998610515761700,0.74976171875,2.0364999771118164,-1.9440999031066895,9.393699645996094
1682998610535761700,0.76976171875,2.009000062942505,-1.969599962234497,9.394399642944336
1682998610555761700,0.78976171875,2.0439000129699707,-1.918299913406372,9.39739990234375
1682998610575763200,0.80976318359375,2.07069993019104,-1.8959999084472656,9.396100044250488
1682998610595761700,0.82976171875,2.0824999809265137,-1.881500005722046,9.39639949798584
1682998610615761700,0.84976171875,2.1046998500823975,-1.8284999132156372,9.401899337768555
1682998610635761700,0.86976171875,2.1094000339508057,-1.7584999799728394,9.414199829101562
1682998610655761700,0.88976171875,2.086699962615967,-1.692099928855896,9.43139934539795
1682998610675775700,0.909775634765625,2.069200038909912,-1.6274999380111694,9.446599960327148
1682998610695763200,0.92976318359375,2.0637998580932617,-1.5784000158309937,9.456099510192871
1682998610715761700,0.94976171875,2.061699867248535,-1.5585999488830566,9.45989990234375
1682998610735761700,0.96976171875,2.072000026702881,-1.5707999467849731,9.455599784851074
1682998610755763200,0.98976318359375,2.0937998294830322,-1.573699951171875,9.450300216674805
1682998610775761700,1.00976171875,2.1129000186920166,-1.5784000158309937,9.445300102233887
1682998610795761700,1.02976171875,2.120300054550171,-1.587499976158142,9.442099571228027
1682998610815763200,1.04976318359375,2.1171998977661133,-1.5902999639511108,9.442299842834473
1682998610835763200,1.06976318359375,2.103600025177002,-1.6057000160217285,9.44279956817627
1682998610855766300,1.089766357421875,2.085399866104126,-1.6388999223709106,9.441100120544434
1682998610875763200,1.10976318359375,2.0690999031066895,-1.6866999864578247,9.436299324035645
1682998610895761700,1.12976171875,2.068699836730957,-1.7314999103546143,9.428199768066406
1682998610915761700,1.14976171875,2.055799961090088,-1.7782999277114868,9.4222993850708
1682998610935761700,1.16976171875,2.0534000396728516,-1.8090999126434326,9.416999816894531
1682998610955761700,1.18976171875,2.0523998737335205,-1.8298999071121216,9.413199424743652
1682998610975761700,1.20976171875,2.0473999977111816,-1.8446999788284302,9.411399841308594
1682998610995761700,1.22976171875,2.031100034713745,-1.84499990940094,9.414799690246582
1682998611015761700,1.24976171875,2.0058000087738037,-1.8305000066757202,9.423099517822266
1682998611035761700,1.26976171875,1.9885998964309692,-1.813099980354309,9.430099487304688
1682998611055761700,1.28976171875,1.9641000032424927,-1.7839999198913574,9.440799713134766
1682998611075761700,1.30976171875,1.8882999420166016,-1.7273999452590942,9.46679973602295
1682998611095761700,1.32976171875,1.7728999853134155,-1.6536999940872192,9.50220012664795
1682998611115763200,1.34976318359375,1.6555999517440796,-1.5693999528884888,9.537599563598633
1682998611135764700,1.3697646484375,1.5568000078201294,-1.4926999807357788,9.566499710083008
1682998611155761700,1.38976171875,1.4559999704360962,-1.4261000156402588,9.592499732971191
1682998611175774200,1.409774169921875,1.3278999328613281,-1.3588999509811401,9.620800018310547
1682998611195763200,1.42976318359375,1.2145999670028687,-1.2560999393463135,9.649700164794922
1682998611215763200,1.44976318359375,1.1481999158859253,-1.1523000001907349,9.670700073242188
1682998611235761700,1.46976171875,1.094599962234497,-1.0643999576568604,9.686999320983887
1682998611255761700,1.48976171875,1.0465999841690063,-1.000599980354309,9.69909954071045
1682998611275761700,1.50976171875,1.0180000066757202,-0.9484999775886536,9.707399368286133
1682998611295761700,1.52976171875,1.0216000080108643,-0.8700999617576599,9.714300155639648
1682998611315761700,1.54976171875,1.0210999250411987,-0.7619999647140503,9.723499298095703
1682998611335761700,1.56976171875,1.007699966430664,-0.6556999683380127,9.732600212097168
1682998611355761700,1.58976171875,0.9693999886512756,-0.548799991607666,9.7431001663208
1682998611375761700,1.60976171875,0.9688999652862549,-0.4348999857902527,9.748899459838867
1682998611395761700,1.62976171875,1.0061999559402466,-0.35589998960494995,9.748299598693848
1682998611415761700,1.64976171875,1.049899935722351,-0.31779998540878296,9.744999885559082
1682998611435761700,1.66976171875,1.075600028038025,-0.273499995470047,9.743599891662598
1682998611455761700,1.68976171875,1.0666999816894531,-0.22059999406337738,9.74590015411377
1682998611475761700,1.70976171875,1.049799919128418,-0.1688999980688095,9.748799324035645
1682998611495761700,1.72976171875,1.0533000230789185,-0.1305999904870987,9.74899959564209
1682998611515761700,1.74976171875,1.0576999187469482,-0.1136000007390976,9.748700141906738
1682998611535761700,1.76976171875,1.069000005722046,-0.11639999598264694,9.747499465942383
1682998611555761700,1.78976171875,1.0839999914169312,-0.13429999351501465,9.745599746704102
1682998611575761700,1.80976171875,1.1133999824523926,-0.17949999868869781,9.741499900817871
1682998611595761700,1.82976171875,1.1678999662399292,-0.2533999979496002,9.733499526977539
1682998611615761700,1.84976171875,1.2044999599456787,-0.27709999680519104,9.728400230407715
1682998611635761700,1.86976171875,1.160499930381775,-0.2701999843120575,9.73390007019043
1682998611655761700,1.88976171875,1.05239999294281,-0.26919999718666077,9.746199607849121
1682998611675772700,1.909772705078125,0.9204999804496765,-0.2667999863624573,9.759699821472168
1682998611695761700,1.92976171875,0.8331999778747559,-0.24479998648166656,9.768099784851074
1682998611715761700,1.94976171875,0.8211999535560608,-0.22529999911785126,9.769499778747559
1682998611735761700,1.96976171875,0.8687999844551086,-0.2239999920129776,9.76550006866455
1682998611755761700,1.98976171875,0.9506999850273132,-0.23849999904632568,9.757499694824219
1682998611775761700,2.00976171875,1.0504000186920166,-0.2547999918460846,9.746899604797363
1682998611795761700,2.02976171875,1.2150999307632446,-0.2629999816417694,9.727499961853027
1682998611815761700,2.04976171875,1.4620000123977661,-0.27959999442100525,9.692999839782715
1682998611835761700,2.06976171875,1.7251999378204346,-0.3301999866962433,9.64799976348877
1682998611855761700,2.08976171875,1.8316999673843384,-0.3958999812602997,9.625899314880371
1682998611875761700,2.10976171875,1.8885999917984009,-0.4390999972820282,9.61299991607666
1682998611895761700,2.12976171875,2.001699924468994,-0.4910999834537506,9.587499618530273
1682998611915761700,2.14976171875,2.106099843978882,-0.5095999836921692,9.564199447631836
1682998611935761700,2.16976171875,2.164900064468384,-0.4982999861240387,9.551599502563477
1682998611955761700,2.18976171875,2.2239999771118164,-0.5328999757766724,9.536199569702148
1682998611975761700,2.20976171875,2.342399835586548,-0.5967000126838684,9.503999710083008
1682998611995761700,2.22976171875,2.4402999877929688,-0.6937999725341797,9.472700119018555
1682998612015761700,2.24976171875,2.5149998664855957,-0.7720999717712402,9.447099685668945
1682998612035761700,2.26976171875,2.595599889755249,-0.8046999573707581,9.422599792480469
1682998612055761700,2.28976171875,2.7064998149871826,-0.8384000062942505,9.388299942016602
1682998612075761700,2.30976171875,2.785599946975708,-0.8878999948501587,9.360599517822266
1682998612095761700,2.32976171875,2.80679988861084,-0.9459999799728394,9.348599433898926
1682998612115761700,2.34976171875,2.8289999961853027,-0.9842999577522278,9.337900161743164
1682998612135761700,2.36976171875,2.875200033187866,-1.0061999559402466,9.321499824523926
1682998612155761700,2.38976171875,2.912899971008301,-1.0339999198913574,9.306699752807617
1682998612175772700,2.409772705078125,2.9084999561309814,-1.055999994277954,9.3056001663208
1682998612195761700,2.42976171875,2.88100004196167,-1.067099928855896,9.312899589538574
1682998612215761700,2.44976171875,2.8557000160217285,-1.0791000127792358,9.319299697875977
1682998612235761700,2.46976171875,2.8348000049591064,-1.101199984550476,9.323100090026855
1682998612255761700,2.48976171875,2.8101999759674072,-1.1311999559402466,9.32699966430664
1682998612275761700,2.50976171875,2.7760000228881836,-1.1624000072479248,9.333399772644043
1682998612295761700,2.52976171875,2.724599838256836,-1.19569993019104,9.34429931640625
1682998612315761700,2.54976171875,2.6669998168945312,-1.2339999675750732,9.355899810791016
1682998612335761700,2.56976171875,2.6350998878479004,-1.2723000049591064,9.3597993850708
1682998612355761700,2.58976171875,2.6332998275756836,-1.3100999593734741,9.35509967803955
1682998612375761700,2.60976171875,2.639899969100952,-1.3219999074935913,9.35159969329834
1682998612395761700,2.62976171875,2.6257998943328857,-1.3253999948501587,9.35509967803955
1682998612415761700,2.64976171875,2.5864999294281006,-1.343999981880188,9.363399505615234
1682998612435761700,2.66976171875,2.5371999740600586,-1.3167999982833862,9.38070011138916
1682998612455761700,2.68976171875,2.530099868774414,-1.2592999935150146,9.39050006866455
1682998612475761700,2.70976171875,2.5200998783111572,-1.2340999841690063,9.396599769592285
1682998612495761700,2.72976171875,2.491499900817871,-1.2228999137878418,9.405599594116211
1682998612515761700,2.74976171875,2.4739999771118164,-1.2067999839782715,9.412300109863281
1682998612535761700,2.76976171875,2.4758999347686768,-1.1753000020980835,9.415800094604492
1682998612555761700,2.78976171875,2.48829984664917,-1.1420999765396118,9.416600227355957
1682998612575761700,2.80976171875,2.4639999866485596,-1.1234999895095825,9.425299644470215
1682998612595761700,2.82976171875,2.419999837875366,-1.1191999912261963,9.437199592590332
1682998612615761700,2.84976171875,2.3762998580932617,-1.1302999258041382,9.4468994140625
1682998612635761700,2.86976171875,2.3660998344421387,-1.1460999250411987,9.447599411010742
1682998612655761700,2.88976171875,2.4223999977111816,-1.1369999647140503,9.434399604797363
1682998612675772700,2.909772705078125,2.4921000003814697,-1.098699927330017,9.42080020904541
1682998612695761700,2.92976171875,2.5020999908447266,-1.035599946975708,9.425299644470215
1682998612715761700,2.94976171875,2.4686999320983887,-0.9607999920845032,9.441999435424805
1682998612735761700,2.96976171875,2.4540998935699463,-0.8903999924659729,9.452699661254883
1682998612755761700,2.98976171875,2.477099895477295,-0.842199981212616,9.451099395751953
1682998612775761700,3.00976171875,2.5147998332977295,-0.8154999613761902,9.443499565124512
1682998612795761700,3.02976171875,2.5369999408721924,-0.7922999858856201,9.439499855041504
1682998612815761700,3.04976171875,2.535399913787842,-0.7648999691009521,9.44219970703125
1682998612835761700,3.06976171875,2.5261998176574707,-0.7453999519348145,9.44629955291748
1682998612855761700,3.08976171875,2.524899959564209,-0.7375999689102173,9.447199821472168
1682998612875761700,3.10976171875,2.528899908065796,-0.7422999739646912,9.445799827575684
1682998612895761700,3.12976171875,2.5216000080108643,-0.7479000091552734,9.44729995727539
1682998612915761700,3.14976171875,2.4928998947143555,-0.7507999539375305,9.454699516296387
1682998612935761700,3.16976171875,2.4493000507354736,-0.7511999607086182,9.465999603271484
1682998612955761700,3.18976171875,2.4040000438690186,-0.7480999827384949,9.477899551391602
1682998612975761700,3.20976171875,2.370699882507324,-0.7547999620437622,9.485699653625488
1682998612995761700,3.22976171875,2.3397998809814453,-0.7730000019073486,9.491899490356445
1682998613015761700,3.24976171875,2.3108999729156494,-0.7884999513626099,9.497699737548828
1682998613035761700,3.26976171875,2.28059983253479,-0.8082999587059021,9.503399848937988
1682998613055761700,3.28976171875,2.253999948501587,-0.8294999599456787,9.507899284362793
1682998613075761700,3.30976171875,2.2532999515533447,-0.8476999998092651,9.506499290466309
1682998613095761700,3.32976171875,2.27020001411438,-0.8773999810218811,9.499799728393555
1682998613115763200,3.34976318359375,2.2834999561309814,-0.9258999824523926,9.491999626159668
1682998613135761700,3.36976171875,2.2848000526428223,-0.9702999591827393,9.487199783325195
1682998613155764700,3.3897646484375,2.289299964904785,-0.9997999668121338,9.483099937438965
1682998613175774200,3.409774169921875,2.3135998249053955,-1.0059999227523804,9.476499557495117
1682998613195761700,3.42976171875,2.3598999977111816,-0.9888999462127686,9.466899871826172
1682998613215761700,3.44976171875,2.41129994392395,-0.9809999465942383,9.45479965209961
1682998613235761700,3.46976171875,2.432800054550171,-1.0109000205993652,9.446100234985352
1682998613255761700,3.48976171875,2.408599853515625,-1.0693999528884888,9.445899963378906
1682998613275761700,3.50976171875,2.4113998413085938,-1.065999984741211,9.445499420166016
1682998613295761700,3.52976171875,2.4212000370025635,-1.0061999559402466,9.449600219726562
1682998613315761700,3.54976171875,2.40939998626709,-0.960099995136261,9.457399368286133
1682998613335760100,3.569760009765625,2.384999990463257,-0.932699978351593,9.466300010681152
1682998613355761700,3.58976171875,2.348299980163574,-0.8960999846458435,9.479000091552734
1682998613375764700,3.6097646484375,2.3269999027252197,-0.8533999919891357,9.488200187683105
1682998613395764700,3.6297646484375,2.336199998855591,-0.8308999538421631,9.487899780273438
1682998613415761700,3.64976171875,2.358099937438965,-0.842799961566925,9.481499671936035
1682998613435761700,3.66976171875,2.347899913787842,-0.8759999871253967,9.480999946594238
1682998613455761700,3.68976171875,2.2985999584198,-0.9121999740600586,9.489699363708496
1682998613475761700,3.70976171875,2.2481000423431396,-0.9465000033378601,9.49839973449707
1682998613495761700,3.72976171875,2.2223000526428223,-0.9782999753952026,9.501199722290039
1682998613515761700,3.74976171875,2.2273998260498047,-1.0055999755859375,9.497200012207031
1682998613535761700,3.76976171875,2.239799976348877,-1.0188000202178955,9.492899894714355
1682998613555761700,3.78976171875,2.2374000549316406,-1.0271999835968018,9.492499351501465
1682998613575761700,3.80976171875,2.2231998443603516,-1.0407999753952026,9.494400024414062
1682998613595761700,3.82976171875,2.210700035095215,-1.0650999546051025,9.494599342346191
1682998613615761700,3.84976171875,2.2132999897003174,-1.0957000255584717,9.490499496459961
1682998613635761700,3.86976171875,2.218600034713745,-1.12909996509552,9.485400199890137
1682998613655761700,3.88976171875,2.2177000045776367,-1.1719999313354492,9.480400085449219
1682998613675774200,3.909774169921875,2.2139999866485596,-1.2221999168395996,9.474899291992188
1682998613695761700,3.92976171875,2.215399980545044,-1.267300009727478,9.468599319458008
1682998613715761700,3.94976171875,2.2005999088287354,-1.2980999946594238,9.467899322509766
1682998613735761700,3.96976171875,2.1678998470306396,-1.313599944114685,9.473299980163574
1682998613755761700,3.98976171875,2.1380999088287354,-1.3087999820709229,9.480799674987793
1682998613775761700,4.00976171875,2.119799852371216,-1.2878999710083008,9.487699508666992
1682998613795761700,4.02976171875,2.1083998680114746,-1.2563999891281128,9.494500160217285
1682998613815761700,4.04976171875,2.100299835205078,-1.2239999771118164,9.500499725341797
1682998613835760000,4.069760009765625,2.098299980163574,-1.208899974822998,9.502900123596191
1682998613855761700,4.08976171875,2.073699951171875,-1.2185999155044556,9.506999969482422
1682998613875761700,4.10976171875,2.0286998748779297,-1.2390999794006348,9.514100074768066
1682998613895761700,4.12976171875,1.9737999439239502,-1.2424999475479126,9.525199890136719
1682998613915761700,4.14976171875,1.94159996509552,-1.2257000207901,9.5339994430542
1682998613935761700,4.16976171875,1.948599934577942,-1.1753000020980835,9.538899421691895
1682998613955761700,4.18976171875,1.9788999557495117,-1.0922999382019043,9.542499542236328
1682998613975761700,4.20976171875,1.9959999322891235,-1.0008000135421753,9.548999786376953
1682998613995761700,4.22976171875,1.9935998916625977,-0.9152999520301819,9.558099746704102
1682998614015761700,4.24976171875,1.9749999046325684,-0.8405999541282654,9.56879997253418
1682998614035761700,4.26976171875,1.9662998914718628,-0.7701999545097351,9.576499938964844
1682998614055761700,4.28976171875,1.9749000072479248,-0.7062999606132507,9.579699516296387
1682998614075761700,4.30976171875,1.9860999584197998,-0.6550999879837036,9.580999374389648
1682998614095761700,4.32976171875,1.9883999824523926,-0.617900013923645,9.583000183105469
1682998614115761700,4.34976171875,1.9815999269485474,-0.5900999903678894,9.586099624633789
1682998614135761700,4.36976171875,1.9704999923706055,-0.5679999589920044,9.589799880981445
1682998614155764700,4.3897646484375,1.958799958229065,-0.552899956703186,9.592999458312988
1682998614175775700,4.409775634765625,1.9441999197006226,-0.5493999719619751,9.596199989318848
1682998614195761700,4.42976171875,1.920799970626831,-0.5613999962806702,9.600199699401855
1682998614215761700,4.44976171875,1.8944000005722046,-0.5866999626159668,9.604000091552734
1682998614235761700,4.46976171875,1.8590999841690063,-0.6143999695777893,9.609099388122559
1682998614255761700,4.48976171875,1.8447999954223633,-0.6334999799728394,9.610599517822266
1682998614275761700,4.50976171875,1.8589999675750732,-0.6349999904632568,9.607799530029297
1682998614295761700,4.52976171875,1.8737999200820923,-0.623199999332428,9.60569953918457
1682998614315761700,4.54976171875,1.8766999244689941,-0.598800003528595,9.60669994354248
1682998614335761700,4.56976171875,1.8741999864578247,-0.5767999887466431,9.608499526977539
1682998614355761700,4.58976171875,1.8681999444961548,-0.5637999773025513,9.610499382019043
1682998614375761700,4.60976171875,1.8727999925613403,-0.5673999786376953,9.609399795532227
1682998614395761700,4.62976171875,1.8791999816894531,-0.5888000130653381,9.606800079345703
1682998614415763200,4.64976318359375,1.8835999965667725,-0.611299991607666,9.604599952697754
1682998614435764700,4.6697646484375,1.8851999044418335,-0.6358999609947205,9.602700233459473
1682998614455761700,4.68976171875,1.8945999145507812,-0.6538000106811523,9.599599838256836
1682998614475761700,4.70976171875,1.945599913597107,-0.6657999753952026,9.588600158691406
1682998614495761700,4.72976171875,2.027899980545044,-0.6711999773979187,9.571100234985352
1682998614515761700,4.74976171875,2.111299991607666,-0.6811000108718872,9.552399635314941
1682998614535761700,4.76976171875,2.196199893951416,-0.6933000087738037,9.532299995422363
1682998614555761700,4.78976171875,2.264699935913086,-0.7202999591827393,9.514299392700195
1682998614575761700,4.80976171875,2.3285999298095703,-0.7511999607086182,9.496399879455566
1682998614595761700,4.82976171875,2.3910000324249268,-0.7452999949455261,9.481399536132812
1682998614615761700,4.84976171875,2.426100015640259,-0.7091999650001526,9.475199699401855
1682998614635761700,4.86976171875,2.4177000522613525,-0.6791999936103821,9.479599952697754
1682998614655764700,4.8897646484375,2.3808999061584473,-0.6571999788284302,9.490399360656738
1682998614675775700,4.909775634765625,2.3501999378204346,-0.6265999674797058,9.500199317932129
1682998614695761700,4.92976171875,2.3625998497009277,-0.5877999663352966,9.49959945678711
1682998614715761700,4.94976171875,2.3950998783111572,-0.5665000081062317,9.49269962310791
1682998614735761700,4.96976171875,2.4143998622894287,-0.5634999871253967,9.48799991607666
1682998614755761700,4.98976171875,2.3924999237060547,-0.5737000107765198,9.492899894714355
1682998614775761700,5.00976171875,2.3396999835968018,-0.5997999906539917,9.504499435424805
1682998614795761700,5.02976171875,2.287899971008301,-0.6383999586105347,9.514599800109863
1682998614815761700,5.04976171875,2.254999876022339,-0.6872999668121338,9.519000053405762
1682998614835761700,5.06976171875,2.236999988555908,-0.733199954032898,9.519800186157227
1682998614855761700,5.08976171875,2.2058000564575195,-0.7691999673843384,9.524299621582031
1682998614875761700,5.10976171875,2.162799835205078,-0.7967999577522278,9.531899452209473
1682998614895761700,5.12976171875,2.120300054550171,-0.821899950504303,9.539299964904785
1682998614915763200,5.14976318359375,2.099599838256836,-0.8455999493598938,9.541799545288086
1682998614935764700,5.1697646484375,2.0922999382019043,-0.864799976348877,9.541699409484863
1682998614955761700,5.18976171875,2.0752999782562256,-0.8833000063896179,9.543700218200684
1682998614975761700,5.20976171875,2.051300048828125,-0.903499960899353,9.54699993133545
1682998614995761700,5.22976171875,2.0248000621795654,-0.924299955368042,9.550700187683105
1682998615015761700,5.24976171875,2.0011000633239746,-0.950499951839447,9.553099632263184
1682998615035761700,5.26976171875,1.972000002861023,-0.9854999780654907,9.5556001663208
1682998615055761700,5.28976171875,1.9356999397277832,-1.0304999351501465,9.558300018310547
1682998615075761700,5.30976171875,1.9054999351501465,-1.0835999250411987,9.55840015411377
1682998615095761700,5.32976171875,1.8791999816894531,-1.135200023651123,9.557700157165527
1682998615115761700,5.34976171875,1.8496999740600586,-1.1855000257492065,9.557299613952637
1682998615135761700,5.36976171875,1.8104000091552734,-1.2343000173568726,9.558699607849121
1682998615155761700,5.38976171875,1.7601999044418335,-1.2914999723434448,9.560500144958496
1682998615175772700,5.409772705078125,1.7007999420166016,-1.3616999387741089,9.56149959564209
1682998615195760000,5.429760009765625,1.652400016784668,-1.4298999309539795,9.559999465942383
1682998615215761700,5.44976171875,1.632200002670288,-1.4822999238967896,9.555500030517578
1682998615235761700,5.46976171875,1.6388999223709106,-1.5125999450683594,9.549599647521973
1682998615255761700,5.48976171875,1.6728999614715576,-1.5124999284744263,9.543700218200684
1682998615275761700,5.50976171875,1.7247999906539917,-1.476099967956543,9.540200233459473
1682998615295761700,5.52976171875,1.7673999071121216,-1.424299955368042,9.540299415588379
1682998615315761700,5.54976171875,1.7841999530792236,-1.38510000705719,9.542900085449219
1682998615335761700,5.56976171875,1.761099934577942,-1.364799976348877,9.55009937286377
1682998615355761700,5.58976171875,1.7188999652862549,-1.3392999172210693,9.561399459838867
1682998615375761700,5.60976171875,1.6974999904632568,-1.3037999868392944,9.570099830627441
1682998615395761700,5.62976171875,1.7180999517440796,-1.257699966430664,9.572699546813965
1682998615415761700,5.64976171875,1.7501999139785767,-1.2030999660491943,9.573800086975098
1682998615435761700,5.66976171875,1.7739999294281006,-1.1460000276565552,9.576499938964844
1682998615455761700,5.68976171875,1.7829999923706055,-1.0981999635696411,9.580399513244629
1682998615475761700,5.70976171875,1.780900001525879,-1.0720000267028809,9.583700180053711
1682998615495761700,5.72976171875,1.7776999473571777,-1.052799940109253,9.58650016784668
1682998615515761700,5.74976171875,1.781999945640564,-1.0299999713897705,9.588199615478516
1682998615535761700,5.76976171875,1.7899999618530273,-1.0133999586105347,9.588399887084961
1682998615555761700,5.78976171875,1.7971999645233154,-1.0091999769210815,9.587499618530273
1682998615575761700,5.80976171875,1.7965999841690063,-1.0153999328613281,9.586999893188477
1682998615595761700,5.82976171875,1.7908999919891357,-1.0240999460220337,9.5871000289917
1682998615615761700,5.84976171875,1.7835999727249146,-1.0338000059127808,9.587499618530273
1682998615635761700,5.86976171875,1.7720999717712402,-1.0413999557495117,9.588799476623535
1682998615655761700,5.88976171875,1.7649999856948853,-1.0464999675750732,9.589499473571777
1682998615675772700,5.909772705078125,1.7705999612808228,-1.0579999685287476,9.587200164794922
1682998615695761700,5.92976171875,1.7766000032424927,-1.0795999765396118,9.583700180053711
1682998615715761700,5.94976171875,1.7762999534606934,-1.105199933052063,9.58080005645752
1682998615735761700,5.96976171875,1.767799973487854,-1.126099944114685,9.579999923706055
1682998615755761700,5.98976171875,1.7594000101089478,-1.14329993724823,9.579500198364258
1682998615775761700,6.00976171875,1.7584999799728394,-1.1539000272750854,9.578399658203125
1682998615795761700,6.02976171875,1.7766000032424927,-1.1553000211715698,9.574899673461914
1682998615815761700,6.04976171875,1.8209999799728394,-1.146799921989441,9.567599296569824
1682998615835761700,6.06976171875,1.8695999383926392,-1.1568999290466309,9.557000160217285
1682998615855764700,6.0897646484375,1.9229999780654907,-1.1888999938964844,9.542399406433105
1682998615875761700,6.10976171875,1.9463999271392822,-1.2317999601364136,9.53219985961914
1682998615895761700,6.12976171875,1.952699899673462,-1.2726999521255493,9.525599479675293
1682998615915761700,6.14976171875,1.966399908065796,-1.2869999408721924,9.52079963684082
1682998615935761700,6.16976171875,1.9884999990463257,-1.2689999341964722,9.518599510192871
1682998615955761700,6.18976171875,2.003999948501587,-1.2422000169754028,9.518899917602539
1682998615975761700,6.20976171875,2.012699842453003,-1.2204999923706055,9.519899368286133
1682998615995761700,6.22976171875,2.0025999546051025,-1.1948000192642212,9.525300025939941
1682998616015761700,6.24976171875,1.9943000078201294,-1.1634999513626099,9.530900001525879
1682998616035760000,6.269760009765625,1.9833999872207642,-1.1454999446868896,9.535399436950684
1682998616055761700,6.28976171875,1.9611999988555908,-1.1507999897003174,9.539299964904785
1682998616075761700,6.30976171875,1.9210999011993408,-1.1669999361038208,9.545499801635742
1682998616095761700,6.32976171875,1.8868999481201172,-1.1744999885559082,9.551400184631348
1682998616115761700,6.34976171875,1.8930999040603638,-1.1674000024795532,9.550999641418457
1682998616135761700,6.36976171875,1.921299934387207,-1.1555999517440796,9.546799659729004
1682998616155761700,6.38976171875,1.9390000104904175,-1.1395000219345093,9.545199394226074
1682998616175774200,6.409774169921875,1.9333999156951904,-1.1215999126434326,9.548500061035156
1682998616195761700,6.42976171875,1.9169999361038208,-1.1121000051498413,9.552899360656738
1682998616215761700,6.44976171875,1.897499918937683,-1.1225999593734741,9.555500030517578
1682998616235761700,6.46976171875,1.8772999048233032,-1.145900011062622,9.55679988861084
1682998616255761700,6.48976171875,1.861299991607666,-1.1690000295639038,9.557099342346191
1682998616275761700,6.50976171875,1.8490999937057495,-1.1835999488830566,9.557700157165527
1682998616295761700,6.52976171875,1.837899923324585,-1.205199956893921,9.557099342346191
1682998616315761700,6.54976171875,1.8209999799728394,-1.2419999837875366,9.555699348449707
1682998616335761700,6.56976171875,1.7989999055862427,-1.289699912071228,9.553500175476074
1682998616355761700,6.58976171875,1.7667999267578125,-1.3388999700546265,9.552800178527832
1682998616375761700,6.60976171875,1.7278999090194702,-1.3690999746322632,9.5556001663208
1682998616395761700,6.62976171875,1.6833999156951904,-1.3739999532699585,9.562799453735352
1682998616415763200,6.64976318359375,1.6490999460220337,-1.3703999519348145,9.569299697875977
1682998616435763200,6.66976318359375,1.6299999952316284,-1.3751999139785767,9.5718994140625
1682998616455761700,6.68976171875,1.6071999073028564,-1.3803999423980713,9.574999809265137
1682998616475761700,6.70976171875,1.5643999576568604,-1.39329993724823,9.5802001953125
1682998616495761700,6.72976171875,1.4828999042510986,-1.4190999269485474,9.589399337768555
1682998616515761700,6.74976171875,1.4056999683380127,-1.4257999658584595,9.59999942779541
1682998616535760100,6.769760009765625,1.3753999471664429,-1.39329993724823,9.609199523925781
1682998616555761700,6.78976171875,1.4174000024795532,-1.3418999910354614,9.610400199890137
1682998616575761700,6.80976171875,1.4882999658584595,-1.2833999395370483,9.607600212097168
1682998616595761700,6.82976171875,1.5205999612808228,-1.2390999794006348,9.608399391174316
1682998616615761700,6.84976171875,1.5078999996185303,-1.2085999250411987,9.614299774169922
1682998616635761700,6.86976171875,1.4900999069213867,-1.1690000295639038,9.621999740600586
1682998616655761700,6.88976171875,1.4692999124526978,-1.1244999170303345,9.630499839782715
1682998616675774200,6.909774169921875,1.475600004196167,-1.0795999765396118,9.634599685668945
1682998616695761700,6.92976171875,1.5180999040603638,-1.0361000299453735,9.632800102233887
1682998616715761700,6.94976171875,1.573199987411499,-0.9975000023841858,9.627999305725098
1682998616735761700,6.96976171875,1.6216999292373657,-0.9645999670028687,9.623299598693848
1682998616755761700,6.98976171875,1.650499939918518,-0.9429999589920044,9.620599746704102
1682998616775761700,7.00976171875,1.6550999879837036,-0.9307000041007996,9.620999336242676
1682998616795761700,7.02976171875,1.6484999656677246,-0.9229999780654907,9.622900009155273
1682998616815761700,7.04976171875,1.6505999565124512,-0.9200999736785889,9.62279987335205
1682998616835760000,7.069760009765625,1.6691999435424805,-0.9217999577522278,9.619400024414062
1682998616855761700,7.08976171875,1.6897999048233032,-0.9273999929428101,9.615300178527832
1682998616875761700,7.10976171875,1.7070999145507812,-0.933899998664856,9.611599922180176
1682998616895761700,7.12976171875,1.7120999097824097,-0.943399965763092,9.6097993850708
1682998616915761700,7.14976171875,1.7064999341964722,-0.9642999768257141,9.608699798583984
1682998616935764700,7.1697646484375,1.7014999389648438,-0.9887999892234802,9.607099533081055
1682998616955763200,7.18976318359375,1.6993999481201172,-1.0109000205993652,9.605199813842773
1682998616975761700,7.20976171875,1.7023999691009521,-1.035099983215332,9.602099418640137
1682998616995761700,7.22976171875,1.6966999769210815,-1.0667999982833862,9.599599838256836
1682998617015764700,7.2497646484375,1.6815999746322632,-1.1026999950408936,9.598199844360352
1682998617035763200,7.26976318359375,1.663699984550476,-1.128999948501587,9.598299980163574
1682998617055761700,7.28976171875,1.6653000116348267,-1.1373000144958496,9.597000122070312
1682998617075761700,7.30976171875,1.6822999715805054,-1.1349999904632568,9.59429931640625
1682998617095761700,7.32976171875,1.7019000053405762,-1.125999927520752,9.591899871826172
1682998617115761700,7.34976171875,1.716599941253662,-1.1109999418258667,9.591099739074707
1682998617135761700,7.36976171875,1.7249999046325684,-1.0865999460220337,9.592299461364746
1682998617155761700,7.38976171875,1.7274999618530273,-1.0686999559402466,9.593899726867676
1682998617175772700,7.409772705078125,1.7208999395370483,-1.0627999305725098,9.595699310302734
1682998617195760000,7.429760009765625,1.7045999765396118,-1.0643999576568604,9.598499298095703
1682998617215761700,7.44976171875,1.7120999097824097,-1.0514999628067017,9.598499298095703
1682998617235761700,7.46976171875,1.7383999824523926,-0.9946999549865723,9.599899291992188
1682998617255761700,7.48976171875,1.739300012588501,-0.9235000014305115,9.606800079345703
1682998617275761700,7.50976171875,1.726699948310852,-0.8625999689102173,9.614699363708496
1682998617295761700,7.52976171875,1.705299973487854,-0.8059999942779541,9.623499870300293
1682998617315761700,7.54976171875,1.6993999481201172,-0.7423999905586243,9.629599571228027
1682998617335761700,7.56976171875,1.7199000120162964,-0.671999990940094,9.631199836730957
1682998617355761700,7.58976171875,1.7512999773025513,-0.611799955368042,9.629499435424805
1682998617375761700,7.60976171875,1.7667999267578125,-0.5788999795913696,9.62869930267334
1682998617395761700,7.62976171875,1.7330999374389648,-0.5798999667167664,9.63479995727539
1682998617415761700,7.64976171875,1.6619999408721924,-0.6055999994277954,9.645699501037598
1682998617435761700,7.66976171875,1.5989999771118164,-0.6380999684333801,9.65429973602295
1682998617455761700,7.68976171875,1.5699999332427979,-0.6629999876022339,9.657400131225586
1682998617475763200,7.70976318359375,1.5713999271392822,-0.6822999715805054,9.655799865722656
1682998617495761700,7.72976171875,1.5774999856948853,-0.6984999775886536,9.653599739074707
1682998617515761700,7.74976171875,1.573099970817566,-0.7224000096321106,9.652599334716797
1682998617535761700,7.76976171875,1.5491999387741089,-0.7480999827384949,9.654500007629395
1682998617555761700,7.78976171875,1.5096999406814575,-0.7705000042915344,9.6589994430542
1682998617575761700,7.80976171875,1.4825999736785889,-0.7937999963760376,9.661299705505371
1682998617595761700,7.82976171875,1.473099946975708,-0.8161999583244324,9.660900115966797
1682998617615761700,7.84976171875,1.4591000080108643,-0.8398999571800232,9.660999298095703
1682998617635761700,7.86976171875,1.4282000064849854,-0.8619999885559082,9.663700103759766
1682998617655761700,7.88976171875,1.386199951171875,-0.8800999522209167,9.66819953918457
1682998617675772700,7.909772705078125,1.3460999727249146,-0.9060999751091003,9.67140007019043
1682998617695763200,7.92976318359375,1.3083000183105469,-0.9453999996185303,9.672800064086914
1682998617715764700,7.9497646484375,1.2702000141143799,-0.977400004863739,9.674699783325195
1682998617735763200,7.96976318359375,1.2595000267028809,-0.986299991607666,9.675199508666992
1682998617755761700,7.98976171875,1.2630999088287354,-0.9872999787330627,9.674699783325195
1682998617775761700,8.00976171875,1.2450000047683716,-1.0015000104904175,9.67549991607666
1682998617795761700,8.02976171875,1.1888999938964844,-1.0346999168395996,9.679100036621094
1682998617815761700,8.04976171875,1.1455999612808228,-1.0561000108718872,9.682000160217285
1682998617835761700,8.06976171875,1.1332999467849731,-1.0441999435424805,9.684800148010254
1682998617855761700,8.08976171875,1.1460999250411987,-1.0108000040054321,9.686800003051758
1682998617875761700,8.10976171875,1.1722999811172485,-0.9590999484062195,9.688899993896484
1682998617895761700,8.12976171875,1.199299931526184,-0.8920999765396118,9.691999435424805
1682998617915761700,8.14976171875,1.222599983215332,-0.8256999850273132,9.694999694824219
1682998617935761700,8.16976171875,1.236299991607666,-0.7749999761581421,9.697400093078613
1682998617955761700,8.18976171875,1.23580002784729,-0.7324999570846558,9.700799942016602
1682998617975761700,8.20976171875,1.23989999294281,-0.6886000037193298,9.703499794006348
1682998617995761700,8.22976171875,1.2626999616622925,-0.6488999724388123,9.703299522399902
1682998618015761700,8.24976171875,1.299299955368042,-0.6121000051498413,9.700799942016602
1682998618035761700,8.26976171875,1.3255000114440918,-0.5828999876976013,9.69909954071045
1682998618055761700,8.28976171875,1.3432999849319458,-0.5622000098228455,9.69789981842041
1682998618075761700,8.30976171875,1.3521000146865845,-0.5500999689102173,9.69729995727539
1682998618095761700,8.32976171875,1.3525999784469604,-0.5444999933242798,9.697599411010742
1682998618115761700,8.34976171875,1.3557000160217285,-0.5385000109672546,9.697500228881836
1682998618135764700,8.3697646484375,1.3593999147415161,-0.536300003528595,9.697099685668945
1682998618155761700,8.38976171875,1.358299970626831,-0.5444999933242798,9.696799278259277
1682998618175774200,8.409774169921874,1.3492999076843262,-0.5630999803543091,9.696999549865723
1682998618195761700,8.42976171875,1.3389999866485596,-0.5856999754905701,9.697099685668945
1682998618215761700,8.44976171875,1.3270999193191528,-0.6068999767303467,9.697400093078613
1682998618235761700,8.46976171875,1.319100022315979,-0.6243000030517578,9.697400093078613
1682998618255761700,8.48976171875,1.3219000101089478,-0.6351999640464783,9.69629955291748
1682998618275761700,8.50976171875,1.3295999765396118,-0.6488999724388123,9.694299697875977
1682998618295761700,8.52976171875,1.3257999420166016,-0.6703999638557434,9.693399429321289
1682998618315761700,8.54976171875,1.3137999773025513,-0.6952999830245972,9.693299293518066
1682998618335760100,8.569760009765625,1.2912999391555786,-0.7257999777793884,9.694099426269531
1682998618355761700,8.58976171875,1.2638999223709106,-0.7594999670982361,9.695099830627441
1682998618375764700,8.6097646484375,1.2416999340057373,-0.792199969291687,9.695399284362793
1682998618395764700,8.6297646484375,1.2426999807357788,-0.8176999688148499,9.693099975585938
1682998618415761700,8.64976171875,1.2639999389648438,-0.8201999664306641,9.690099716186523
1682998618435761700,8.66976171875,1.3042999505996704,-0.811199963092804,9.685500144958496
1682998618455761700,8.68976171875,1.3418999910354614,-0.8168999552726746,9.679900169372559
1682998618475761700,8.70976171875,1.375,-0.856499969959259,9.671899795532227
1682998618495761700,8.72976171875,1.385699987411499,-0.9091999530792236,9.665499687194824
1682998618515761700,8.74976171875,1.396299958229065,-0.9529999494552612,9.659799575805664
1682998618535761700,8.76976171875,1.4297999143600464,-0.9569999575614929,9.654500007629395
1682998618555761700,8.78976171875,1.427299976348877,-0.9264000058174133,9.65779972076416
1682998618575761700,8.80976171875,1.405900001525879,-0.8978999853134155,9.663700103759766
1682998618595761700,8.82976171875,1.3953999280929565,-0.8801999688148499,9.666799545288086
1682998618615761700,8.84976171875,1.4056999683380127,-0.8531000018119812,9.667799949645996
1682998618635761700,8.86976171875,1.434499979019165,-0.8078999519348145,9.667399406433105
1682998618655761700,8.88976171875,1.4742000102996826,-0.7720999717712402,9.664400100708008
1682998618675772700,8.909772705078124,1.4991999864578247,-0.7533999681472778,9.661999702453613
1682998618695761700,8.92976171875,1.487299919128418,-0.7576000094413757,9.66349983215332
1682998618715761700,8.94976171875,1.4503999948501587,-0.7827000021934509,9.667099952697754
1682998618735761700,8.96976171875,1.4221999645233154,-0.8093999624252319,9.669099807739258
1682998618755761700,8.98976171875,1.4199999570846558,-0.8281999826431274,9.667799949645996
1682998618775761700,9.00976171875,1.417099952697754,-0.842199981212616,9.666999816894531
1682998618795761700,9.02976171875,1.3996999263763428,-0.8513999581336975,9.66879940032959
1682998618815761700,9.04976171875,1.371899962425232,-0.8668999671936035,9.67140007019043
1682998618835761700,9.06976171875,1.3447999954223633,-0.8883999586105347,9.673199653625488
1682998618855761700,9.08976171875,1.3313000202178955,-0.9074999690055847,9.673299789428711
1682998618875761700,9.10976171875,1.3234000205993652,-0.9217999577522278,9.673099517822266
1682998618895761700,9.12976171875,1.3097000122070312,-0.9361000061035156,9.673600196838379
1682998618915761700,9.14976171875,1.2860000133514404,-0.9559999704360962,9.674799919128418
1682998618935761700,9.16976171875,1.247499942779541,-0.9810999631881714,9.677299499511719
1682998618955760000,9.189760009765624,1.1966999769210815,-0.9983999729156494,9.682000160217285
1682998618975761700,9.20976171875,1.1378999948501587,-1.0082999467849731,9.687999725341797
1682998618995761700,9.22976171875,1.0809999704360962,-1.0109000205993652,9.694299697875977
1682998619015761700,9.24976171875,1.0500999689102173,-1.0002999305725098,9.698800086975098
1682998619035760000,9.269760009765625,1.041700005531311,-0.9887999892234802,9.700799942016602
1682998619055761700,9.28976171875,1.0144000053405762,-0.9924999475479126,9.703399658203125
1682998619075761700,9.30976171875,0.9352999925613403,-1.0365999937057495,9.70669937133789
1682998619095764700,9.3297646484375,0.8607999682426453,-1.0871000289916992,9.708099365234375
1682998619115763200,9.34976318359375,0.8154999613761902,-1.1093000173568726,9.70949935913086
1682998619135761700,9.36976171875,0.8409000039100647,-1.0965999364852905,9.708700180053711
1682998619155761700,9.38976171875,0.9045999646186829,-1.0716999769210815,9.70580005645752
1682998619175772700,9.409772705078124,0.9314000010490417,-1.051800012588501,9.705399513244629
1682998619195761700,9.42976171875,0.9226999878883362,-1.0304999351501465,9.708499908447266
1682998619215761700,9.44976171875,0.9095999598503113,-0.9970999956130981,9.713299751281738
1682998619235761700,9.46976171875,0.9262999892234802,-0.9490999579429626,9.716499328613281
1682998619255761700,9.48976171875,0.9807999730110168,-0.8921999931335449,9.716599464416504
1682998619275761700,9.50976171875,1.049399971961975,-0.8359999656677246,9.714399337768555
1682998619295761700,9.52976171875,1.1101999282836914,-0.7910999655723572,9.711400032043457
1682998619315761700,9.54976171875,1.1481999158859253,-0.7658999562263489,9.708999633789062
1682998619335763200,9.56976318359375,1.167099952697754,-0.7502999901771545,9.707900047302246
1682998619355763200,9.58976318359375,1.1786999702453613,-0.7348999977111816,9.7076997756958
1682998619375761700,9.60976171875,1.2032999992370605,-0.7116000056266785,9.706399917602539
1682998619395761700,9.62976171875,1.2352999448776245,-0.6934999823570251,9.703700065612793
1682998619415761700,9.64976171875,1.2659000158309937,-0.6841999888420105,9.700399398803711
1682998619435761700,9.66976171875,1.2939999103546143,-0.680899977684021,9.696999549865723
1682998619455761700,9.68976171875,1.3216999769210815,-0.6809999942779541,9.69320011138916
1682998619475761700,9.70976171875,1.352199912071228,-0.6861000061035156,9.688599586486816
1682998619495761700,9.72976171875,1.376599907875061,-0.696399986743927,9.684499740600586
1682998619515761700,9.74976171875,1.3942999839782715,-0.7175999879837036,9.680399894714355
1682998619535763200,9.76976318359375,1.406599998474121,-0.7464999556541443,9.676400184631348
1682998619555763200,9.78976318359375,1.414699912071228,-0.7767999768257141,9.672900199890137
1682998619575761700,9.80976171875,1.4147999286651611,-0.8064999580383301,9.67039966583252
1682998619595766300,9.829766357421875,1.4240999221801758,-0.830299973487854,9.666999816894531
1682998619615777300,9.84977734375,1.4399999380111694,-0.8450999855995178,9.663399696350098
1682998619635761700,9.86976171875,1.469499945640564,-0.8467999696731567,9.65880012512207
1682998619655761700,9.88976171875,1.5102999210357666,-0.8307999968528748,9.653900146484375
1682998619675772700,9.909772705078124,1.5513999462127686,-0.8154000043869019,9.648699760437012
1682998619695761700,9.92976171875,1.601099967956543,-0.8248999714851379,9.639800071716309
1682998619715761700,9.94976171875,1.6509000062942505,-0.8658999800682068,9.627799987792969
1682998619735761700,9.96976171875,1.6815999746322632,-0.917199969291687,9.61769962310791
1682998619755761700,9.98976171875,1.7105000019073486,-0.9354999661445618,9.610799789428711
1682998619775761700,10.00976171875,1.7193999290466309,-0.9071999788284302,9.61199951171875
1682998619795764700,10.0297646484375,1.7172999382019043,-0.8739999532699585,9.615399360656738
1682998619815761700,10.04976171875,1.7138999700546265,-0.854200005531311,9.617799758911133
1682998619835761700,10.06976171875,1.7085999250411987,-0.8337999582290649,9.620499610900879
1682998619855761700,10.08976171875,1.7121999263763428,-0.7999999523162842,9.62279987335205
1682998619875761700,10.10976171875,1.7446999549865723,-0.7739999890327454,9.619099617004395
1682998619895761700,10.12976171875,1.785099983215332,-0.7615000009536743,9.61259937286377
1682998619915761700,10.14976171875,1.791700005531311,-0.7631999850273132,9.611299514770508
1682998619935761700,10.16976171875,1.7656999826431274,-0.7746999859809875,9.61520004272461
1682998619955761700,10.18976171875,1.7282999753952026,-0.8003999590873718,9.619799613952637
1682998619975761700,10.20976171875,1.6996999979019165,-0.8389999866485596,9.621600151062012
1682998619995761700,10.22976171875,1.6858999729156494,-0.8708999752998352,9.621299743652344
1682998620015761700,10.24976171875,1.664099931716919,-0.8932999968528748,9.623000144958496
1682998620035761700,10.26976171875,1.6363999843597412,-0.9059000015258789,9.626599311828613
1682998620055763200,10.28976318359375,1.6202999353408813,-0.9169999957084656,9.628199577331543
1682998620075764700,10.3097646484375,1.615299940109253,-0.9330999851226807,9.6274995803833
1682998620095761700,10.32976171875,1.6029999256134033,-0.9591999650001526,9.626999855041504
1682998620115761700,10.34976171875,1.581399917602539,-0.9829999804496765,9.628199577331543
1682998620135761700,10.36976171875,1.5568000078201294,-1.0048999786376953,9.629899978637695
1682998620155761700,10.38976171875,1.5303999185562134,-1.0223000049591064,9.632299423217773
1682998620175774200,10.409774169921874,1.5015000104904175,-1.0357999801635742,9.63539981842041
1682998620195761700,10.42976171875,1.4780999422073364,-1.0398999452590942,9.638599395751953
1682998620215761700,10.44976171875,1.4681999683380127,-1.0304999351501465,9.64109992980957
1682998620235761700,10.46976171875,1.4678999185562134,-0.9995999932289124,9.644399642944336
1682998620255761700,10.48976171875,1.4855999946594238,-0.9585999846458435,9.645899772644043
1682998620275761700,10.50976171875,1.4871000051498413,-0.934499979019165,9.64799976348877
1682998620295761700,10.52976171875,1.4494999647140503,-0.9461999535560608,9.652599334716797
1682998620315761700,10.54976171875,1.4027999639511108,-0.9550999999046326,9.658599853515625
1682998620335761700,10.56976171875,1.367799997329712,-0.9365999698638916,9.665499687194824
1682998620355761700,10.58976171875,1.3787999153137207,-0.8926999568939209,9.668000221252441
1682998620375761700,10.60976171875,1.4144999980926514,-0.8481000065803528,9.666899681091309
1682998620395761700,10.62976171875,1.4381999969482422,-0.8127999901771545,9.666500091552734
1682998620415761700,10.64976171875,1.4334999322891235,-0.7698000073432922,9.670700073242188
1682998620435761700,10.66976171875,1.4219999313354492,-0.712399959564209,9.6766996383667
1682998620455761700,10.68976171875,1.4402999877929688,-0.6574000120162964,9.677899360656738
1682998620475761700,10.70976171875,1.4915999174118042,-0.6143999695777893,9.672999382019043
1682998620495761700,10.72976171875,1.539099931716919,-0.5803999900817871,9.667699813842773
1682998620515761700,10.74976171875,1.5602999925613403,-0.5537999868392944,9.665800094604492
1682998620535763200,10.76976318359375,1.5573999881744385,-0.5392999649047852,9.667099952697754
1682998620555761700,10.78976171875,1.5505999326705933,-0.5435000061988831,9.668000221252441
1682998620575761700,10.80976171875,1.5424000024795532,-0.564799964427948,9.668099403381348
1682998620595761700,10.82976171875,1.5324000120162964,-0.5931999683380127,9.667900085449219
1682998620615761700,10.84976171875,1.5281999111175537,-0.6161999702453613,9.667200088500977
1682998620635760000,10.869760009765624,1.5324000120162964,-0.6355999708175659,9.665299415588379
1682998620655761700,10.88976171875,1.5512999296188354,-0.6552000045776367,9.660900115966797
1682998620675772700,10.909772705078124,1.5758999586105347,-0.6811999678611755,9.655099868774414
1682998620695761700,10.92976171875,1.5864999294281006,-0.7232999801635742,9.650300025939941
1682998620715761700,10.94976171875,1.583899974822998,-0.7706999778747559,9.647099494934082
1682998620735761700,10.96976171875,1.577299952507019,-0.8176999688148499,9.644299507141113
1682998620755761700,10.98976171875,1.574199914932251,-0.8668999671936035,9.64050006866455
1682998620775761700,11.00976171875,1.5805000066757202,-0.9200999736785889,9.634499549865723
1682998620795761700,11.02976171875,1.5870999097824097,-0.973800003528595,9.628199577331543
1682998620815763200,11.04976318359375,1.5891999006271362,-1.0152000188827515,9.623600006103516
1682998620835761700,11.06976171875,1.6018999814987183,-1.0336999893188477,9.619500160217285
1682998620855761700,11.08976171875,1.6342999935150146,-1.0306999683380127,9.614399909973145
1682998620875761700,11.10976171875,1.6603999137878418,-1.0281000137329102,9.610199928283691
1682998620895761700,11.12976171875,1.6878999471664429,-1.0388000011444092,9.604199409484863
1682998620915761700,11.14976171875,1.726599931716919,-1.0437999963760376,9.596799850463867
1682998620935761700,11.16976171875,1.7525999546051025,-1.045699954032898,9.591899871826172
1682998620955761700,11.18976171875,1.7867999076843262,-1.031599998474121,9.5871000289917
1682998620975761700,11.20976171875,1.834399938583374,-1.004699945449829,9.580999374389648
1682998620995761700,11.22976171875,1.842099905014038,-0.9871999621391296,9.581299781799316
1682998621015761700,11.24976171875,1.8095999956130981,-0.9906999468803406,9.5871000289917
1682998621035761700,11.26976171875,1.7704999446868896,-0.9946999549865723,9.593999862670898
1682998621055763200,11.28976318359375,1.7457998991012573,-0.973099946975708,9.600699424743652
1682998621075764700,11.3097646484375,1.7443000078201294,-0.9401999711990356,9.604299545288086
1682998621095761700,11.32976171875,1.7653999328613281,-0.9210999608039856,9.602299690246582
1682998621115761700,11.34976171875,1.771299958229065,-0.9281999468803406,9.600500106811523
1682998621135761700,11.36976171875,1.7400999069213867,-0.9535999894142151,9.603699684143066
1682998621155761700,11.38976171875,1.6906999349594116,-0.9769999980926514,9.610199928283691
1682998621175774200,11.409774169921874,1.6486999988555908,-0.9984999895095825,9.615300178527832
1682998621195763200,11.42976318359375,1.6210999488830566,-1.0191999673843384,9.617799758911133
1682998621215764700,11.4497646484375,1.6008999347686768,-1.0432000160217285,9.618599891662598
1682998621235763200,11.46976318359375,1.5672999620437622,-1.0680999755859375,9.621399879455566
1682998621255761700,11.48976171875,1.514299988746643,-1.0884000062942505,9.627599716186523
1682998621275761700,11.50976171875,1.4644999504089355,-1.0986000299453735,9.634200096130371
1682998621295761700,11.52976171875,1.4390000104904175,-1.1017999649047852,9.637700080871582
1682998621315763200,11.54976318359375,1.434399962425232,-1.107699990272522,9.637700080871582
1682998621335763200,11.56976318359375,1.4264999628067017,-1.118299961090088,9.63759994506836
1682998621355761700,11.58976171875,1.3942999839782715,-1.1244999170303345,9.641599655151367
1682998621375761700,11.60976171875,1.3467999696731567,-1.1305999755859375,9.647600173950195
1682998621395761700,11.62976171875,1.286099910736084,-1.1370999813079834,9.655200004577637
1682998621415761700,11.64976171875,1.239799976348877,-1.1401000022888184,9.660900115966797
1682998621435761700,11.66976171875,1.229699969291687,-1.1340999603271484,9.6628999710083
1682998621455761700,11.68976171875,1.2316999435424805,-1.1136999130249023,9.664999961853027
1682998621475761700,11.70976171875,1.2203999757766724,-1.0918999910354614,9.668899536132812
1682998621495761700,11.72976171875,1.1790000200271606,-1.0849000215530396,9.674799919128418
1682998621515761700,11.74976171875,1.1347999572753906,-1.077799916267395,9.680899620056152
1682998621535760100,11.769760009765625,1.1044999361038208,-1.0565999746322632,9.686699867248535
1682998621555761700,11.78976171875,1.1210999488830566,-1.0078999996185303,9.6899995803833
1682998621575764700,11.8097646484375,1.1733999252319336,-0.9402999877929688,9.69059944152832
1682998621595761700,11.82976171875,1.2206000089645386,-0.8824999928474426,9.690199851989746
1682998621615761700,11.84976171875,1.2440999746322632,-0.8321999907493591,9.691699981689453
1682998621635761700,11.86976171875,1.254699945449829,-0.7712000012397766,9.695399284362793
1682998621655761700,11.88976171875,1.2773000001907349,-0.7107999920845032,9.696999549865723
1682998621675772700,11.909772705078124,1.3264999389648438,-0.6541000008583069,9.6943998336792
1682998621695761700,11.92976171875,1.3941999673843384,-0.604699969291687,9.68809986114502
1682998621715761700,11.94976171875,1.4567999839782715,-0.5648999810218811,9.681300163269043
1682998621735761700,11.96976171875,1.4874999523162842,-0.5389999747276306,9.678099632263184
1682998621755761700,11.98976171875,1.4887999296188354,-0.5292999744415283,9.678500175476074
1682998621775761700,12.00976171875,1.4818999767303467,-0.5343999862670898,9.679200172424316
1682998621795761700,12.02976171875,1.4723999500274658,-0.545199990272522,9.680099487304688
1682998621815761700,12.04976171875,1.4706999063491821,-0.5601999759674072,9.679499626159668
1682998621835761700,12.06976171875,1.472499966621399,-0.5760999917984009,9.678299903869629
1682998621855761700,12.08976171875,1.4688999652862549,-0.5913000106811523,9.677899360656738
1682998621875761700,12.10976171875,1.4646999835968018,-0.6078999638557434,9.677499771118164
1682998621895761700,12.12976171875,1.4589999914169312,-0.6315999627113342,9.676899909973145
1682998621915763200,12.14976318359375,1.4573999643325806,-0.663599967956543,9.675000190734863
1682998621935761700,12.16976171875,1.448099970817566,-0.6978999972343445,9.67389965057373
1682998621955761700,12.18976171875,1.4371999502182007,-0.7310000061988831,9.673099517822266
1682998621975761700,12.20976171875,1.4298999309539795,-0.7640999555587769,9.671599388122559
1682998621995761700,12.22976171875,1.4293999671936035,-0.7949999570846558,9.66919994354248
1682998622015761700,12.24976171875,1.436900019645691,-0.8212999701499939,9.665900230407715
1682998622035760000,12.269760009765625,1.4589999914169312,-0.8343999981880188,9.661499977111816
1682998622055761700,12.28976171875,1.493899941444397,-0.8317999839782715,9.656399726867676
1682998622075761700,12.30976171875,1.5343999862670898,-0.8187999725341797,9.651100158691406
1682998622095761700,12.32976171875,1.583299994468689,-0.8179000020027161,9.64330005645752
1682998622115761700,12.34976171875,1.638700008392334,-0.830299973487854,9.632999420166016
1682998622135761700,12.36976171875,1.6876999139785767,-0.8458999991416931,9.623199462890625
1682998622155761700,12.38976171875,1.7278999090194702,-0.82669997215271,9.61769962310791
1682998622175774200,12.409774169921874,1.7423999309539795,-0.7763999700546265,9.61929988861084
1682998622195761700,12.42976171875,1.7355999946594238,-0.7340999841690063,9.623799324035645
1682998622215761700,12.44976171875,1.7135999202728271,-0.7175999879837036,9.628999710083008
1682998622235761700,12.46976171875,1.6682000160217285,-0.7098999619483948,9.63759994506836
1682998622255761700,12.48976171875,1.6430999040603638,-0.685699999332428,9.643599510192871
1682998622275761700,12.50976171875,1.6667999029159546,-0.6500999927520752,9.642000198364258
1682998622295761700,12.52976171875,1.7204999923706055,-0.6316999793052673,9.63379955291748
1682998622315761700,12.54976171875,1.7541999816894531,-0.6425999999046326,9.626999855041504
1682998622335761700,12.56976171875,1.7443000078201294,-0.6771999597549438,9.626399993896484
1682998622355761700,12.58976171875,1.6998000144958496,-0.715999960899353,9.631599426269531
1682998622375761700,12.60976171875,1.6452999114990234,-0.753600001335144,9.638199806213379
1682998622395761700,12.62976171875,1.610700011253357,-0.7907999753952026,9.640999794006348
1682998622415763200,12.64976318359375,1.6004999876022339,-0.8233999609947205,9.639999389648438
1682998622435761700,12.66976171875,1.581299901008606,-0.8479999899864197,9.640999794006348
1682998622455761700,12.68976171875,1.5496000051498413,-0.863599956035614,9.644800186157227
1682998622475761700,12.70976171875,1.5216999053955078,-0.8798999786376953,9.647799491882324
1682998622495761700,12.72976171875,1.4972999095916748,-0.8985999822616577,9.64989948272705
1682998622515761700,12.74976171875,1.466599941253662,-0.9164999723434448,9.652899742126465
1682998622535761700,12.76976171875,1.4269999265670776,-0.9340999722480774,9.657099723815918
1682998622555761700,12.78976171875,1.3732999563217163,-0.9526999592781067,9.66309928894043
1682998622575761700,12.80976171875,1.3040000200271606,-0.9746999740600586,9.670499801635742
1682998622595761700,12.82976171875,1.240399956703186,-1.0027999877929688,9.675999641418457
1682998622615761700,12.84976171875,1.2035999298095703,-1.0268999338150024,9.678099632263184
1682998622635761700,12.86976171875,1.184999942779541,-1.0288000106811523,9.68019962310791
1682998622655761700,12.88976171875,1.184399962425232,-1.0205999612808228,9.68120002746582
1682998622675774200,12.909774169921874,1.1692999601364136,-1.0194000005722046,9.683099746704102
1682998622695761700,12.92976171875,1.1346999406814575,-1.0341999530792236,9.685699462890625
1682998622715761700,12.94976171875,1.1019999980926514,-1.04830002784729,9.687899589538574
1682998622735761700,12.96976171875,1.0757999420166016,-1.0369999408721924,9.692099571228027
1682998622755761700,12.98976171875,1.0858999490737915,-0.9978999495506287,9.695099830627441
1682998622775763200,13.00976318359375,1.1137999296188354,-0.9502999782562256,9.696700096130371
1682998622795761700,13.02976171875,1.1424000263214111,-0.9098999500274658,9.697199821472168
1682998622815761700,13.04976171875,1.1620999574661255,-0.8797999620437622,9.697699546813965
1682998622835761700,13.06976171875,1.17330002784729,-0.8484999537467957,9.69909954071045
1682998622855761700,13.08976171875,1.1793999671936035,-0.8208000063896179,9.700799942016602
1682998622875761700,13.10976171875,1.2081999778747559,-0.7942000031471252,9.699399948120117
1682998622895761700,13.12976171875,1.2620999813079834,-0.7692999839782715,9.694600105285645
1682998622915761700,13.14976171875,1.3128999471664429,-0.7519999742507935,9.689199447631836
1682998622935761700,13.16976171875,1.3533999919891357,-0.7470999956130981,9.684000015258789
1682998622955761700,13.18976171875,1.378999948501587,-0.7512999773025513,9.679999351501465
1682998622975761700,13.20976171875,1.3824999332427979,-0.7665999531745911,9.678299903869629
1682998622995761700,13.22976171875,1.3810999393463135,-0.7911999821662903,9.676599502563477
1682998623015764700,13.2497646484375,1.390299916267395,-0.8145999908447266,9.673299789428711
1682998623035763200,13.26976318359375,1.4032999277114868,-0.8441999554634094,9.668899536132812
1682998623055761700,13.28976171875,1.4175999164581299,-0.8693999648094177,9.664599418640137
1682998623075761700,13.30976171875,1.4407999515533447,-0.8896999955177307,9.659299850463867
1682998623095764700,13.3297646484375,1.4660999774932861,-0.9074999690055847,9.653800010681152
1682998623115761700,13.34976171875,1.4810999631881714,-0.9279999732971191,9.6496000289917
1682998623135760100,13.369760009765624,1.4808999300003052,-0.944599986076355,9.64799976348877
1682998623155761700,13.38976171875,1.476699948310852,-0.9554999470710754,9.647600173950195
1682998623175772700,13.409772705078124,1.489300012588501,-0.9698999524116516,9.64419937133789
1682998623195761700,13.42976171875,1.504599928855896,-0.9875999689102173,9.639999389648438
1682998623215761700,13.44976171875,1.5120999813079834,-1.0095000267028809,9.63659954071045
1682998623235761700,13.46976171875,1.5214999914169312,-1.0181999206542969,9.634200096130371
1682998623255761700,13.48976171875,1.538699984550476,-1.007099986076355,9.632599830627441
1682998623275761700,13.50976171875,1.5536999702453613,-1.0052000284194946,9.630399703979492
1682998623295761700,13.52976171875,1.5647000074386597,-1.027999997138977,9.626199722290039
1682998623315761700,13.54976171875,1.6029999256134033,-1.0418000221252441,9.618399620056152
1682998623335763200,13.56976318359375,1.6592999696731567,-0.9979999661445618,9.613499641418457
1682998623355764700,13.5897646484375,1.7030999660491943,-0.925599992275238,9.613100051879883
1682998623375761700,13.60976171875,1.7070999145507812,-0.8800999522209167,9.616700172424316
1682998623395761700,13.62976171875,1.7036999464035034,-0.8733999729156494,9.617899894714355
1682998623415761700,13.64976171875,1.6780999898910522,-0.8700000047683716,9.622699737548828
1682998623435761700,13.66976171875,1.6506999731063843,-0.8379999995231628,9.63029956817627
1682998623455761700,13.68976171875,1.653899908065796,-0.8162999749183655,9.631599426269531
1682998623475761700,13.70976171875,1.6610000133514404,-0.8287000060081482,9.629300117492676
1682998623495761700,13.72976171875,1.636199951171875,-0.8649999499320984,9.630399703979492
1682998623515761700,13.74976171875,1.5867999792099,-0.9072999954223633,9.634699821472168
1682998623535761700,13.76976171875,1.538699984550476,-0.9501000046730042,9.638400077819824
1682998623555761700,13.78976171875,1.4996999502182007,-0.9966999888420105,9.639800071716309
1682998623575761700,13.80976171875,1.469599962234497,-1.0404000282287598,9.639900207519531
1682998623595761700,13.82976171875,1.4322999715805054,-1.069000005722046,9.642399787902832
1682998623615761700,13.84976171875,1.385699987411499,-1.0848000049591064,9.64739990234375
1682998623635760000,13.869760009765624,1.3466999530792236,-1.0978999137878418,9.651399612426758
1682998623655761700,13.88976171875,1.319100022315979,-1.1144999265670776,9.653299331665039
1682998623675774200,13.909774169921874,1.2989000082015991,-1.1373999118804932,9.653399467468262
1682998623695761700,13.92976171875,1.274399995803833,-1.160099983215332,9.653999328613281
1682998623715761700,13.94976171875,1.2479000091552734,-1.180400013923645,9.654999732971191
1682998623735761700,13.96976171875,1.2152999639511108,-1.2007999420166016,9.656599998474121
1682998623755764700,13.9897646484375,1.1826999187469482,-1.2187999486923218,9.65839958190918
1682998623775763200,14.00976318359375,1.1543999910354614,-1.232100009918213,9.660200119018555
1682998623795764700,14.0297646484375,1.1374999284744263,-1.2347999811172485,9.661799430847168
1682998623815761700,14.04976171875,1.1409000158309937,-1.230199933052063,9.661999702453613
1682998623835761700,14.06976171875,1.1461999416351318,-1.2303999662399292,9.661299705505371
1682998623855761700,14.08976171875,1.1201000213623047,-1.2416999340057373,9.663000106811523
1682998623875761700,14.10976171875,1.0785999298095703,-1.2603999376296997,9.665299415588379
1682998623895761700,14.12976171875,1.049899935722351,-1.2577999830245972,9.66879940032959
1682998623915761700,14.14976171875,1.0384999513626099,-1.2304999828338623,9.673500061035156
1682998623935761700,14.16976171875,1.0679999589920044,-1.174899935722351,9.677199363708496
1682998623955761700,14.18976171875,1.1347999572753906,-1.1121000051498413,9.677000045776367
1682998623975761700,14.20976171875,1.209999918937683,-1.0476999282836914,9.67509937286377
1682998623995761700,14.22976171875,1.2597999572753906,-0.9771999716758728,9.67609977722168
1682998624015761700,14.24976171875,1.281999945640564,-0.9138999581336975,9.679399490356445
1682998624035761700,14.26976171875,1.2955999374389648,-0.8723999857902527,9.68139934539795
1682998624055761700,14.28976171875,1.3075000047683716,-0.8400999903678894,9.682700157165527
1682998624075761700,14.30976171875,1.3246999979019165,-0.8024999499320984,9.683499336242676
1682998624095761700,14.32976171875,1.3482999801635742,-0.7628999948501587,9.68340015411377
1682998624115761700,14.34976171875,1.3751999139785767,-0.7392999529838562,9.681499481201172
1682998624135761700,14.36976171875,1.4021999835968018,-0.7378999590873718,9.67770004272461
1682998624155761700,14.38976171875,1.414199948310852,-0.7529999613761902,9.674799919128418
1682998624175774200,14.409774169921874,1.406999945640564,-0.7705999612808228,9.67449951171875
1682998624195761700,14.42976171875,1.3882999420166016,-0.7904999852180481,9.675600051879883
1682998624215761700,14.44976171875,1.3774999380111694,-0.8134999871253967,9.675199508666992
1682998624235761700,14.46976171875,1.3770999908447266,-0.8391000032424927,9.673099517822266
1682998624255761700,14.48976171875,1.3838999271392822,-0.8603999614715576,9.670199394226074
1682998624275761700,14.50976171875,1.3909000158309937,-0.8755999803543091,9.667900085449219
1682998624295761700,14.52976171875,1.3948999643325806,-0.8880999684333801,9.666199684143066
1682998624315761700,14.54976171875,1.3947999477386475,-0.9000999927520752,9.66510009765625
1682998624335761700,14.56976171875,1.3990999460220337,-0.9109999537467957,9.663399696350098
1682998624355761700,14.58976171875,1.4007999897003174,-0.9262999892234802,9.661699295043945
1682998624375761700,14.60976171875,1.3980000019073486,-0.950499951839447,9.659799575805664
1682998624395761700,14.62976171875,1.3934999704360962,-0.975600004196167,9.657899856567383
1682998624415761700,14.64976171875,1.3873999118804932,-1.0067999362945557,9.655599594116211
1682998624435761700,14.66976171875,1.3859000205993652,-1.0362999439239502,9.65269947052002
1682998624455763200,14.68976318359375,1.3964999914169312,-1.0544999837875366,9.649199485778809
1682998624475764700,14.7097646484375,1.4214999675750732,-1.0516999959945679,9.64579963684082
1682998624495761700,14.72976171875,1.4598000049591064,-1.0521999597549438,9.64009952545166
1682998624515761700,14.74976171875,1.5132999420166016,-1.073099970817566,9.629499435424805
1682998624535760100,14.769760009765625,1.5508999824523926,-1.1073999404907227,9.619599342346191
1682998624555761700,14.78976171875,1.5867999792099,-1.129599928855896,9.611199378967285
1682998624575761700,14.80976171875,1.6176999807357788,-1.1037999391555786,9.609000205993652
1682998624595761700,14.82976171875,1.6114000082015991,-1.0576999187469482,9.615300178527832
1682998624615761700,14.84976171875,1.5877999067306519,-1.0305999517440796,9.622200012207031
1682998624635760000,14.869760009765624,1.5542999505996704,-1.011099934577942,9.62969970703125
1682998624655761700,14.88976171875,1.5396000146865845,-0.9695000052452087,9.636300086975098
1682998624675772700,14.909772705078124,1.5566999912261963,-0.9133999943733215,9.639100074768066
1682998624695761700,14.92976171875,1.5971999168395996,-0.8708999752998352,9.63640022277832
1682998624715761700,14.94976171875,1.6212999820709229,-0.8460999727249146,9.634599685668945
1682998624735761700,14.96976171875,1.6038999557495117,-0.8405999541282654,9.637899398803711
1682998624755761700,14.98976171875,1.5521999597549438,-0.8587999939918518,9.644800186157227
1682998624775761700,15.00976171875,1.4970999956130981,-0.9012999534606934,9.6496000289917
1682998624795761700,15.02976171875,1.459399938583374,-0.9512999653816223,9.650599479675293
1682998624815761700,15.04976171875,1.42739999294281,-0.9882999658584595,9.651700019836426
1682998624835761700,15.06976171875,1.392300009727478,-1.0042999982833862,9.655200004577637
1682998624855761700,15.08976171875,1.3583999872207642,-1.0134999752044678,9.6589994430542
1682998624875761700,15.10976171875,1.3265999555587769,-1.0261999368667603,9.662099838256836
1682998624895761700,15.12976171875,1.292799949645996,-1.044700026512146,9.66469955444336
1682998624915761700,15.14976171875,1.2519999742507935,-1.0753999948501587,9.666699409484863
1682998624935761700,15.16976171875,1.209399938583374,-1.1068999767303467,9.668600082397461
1682998624955761700,15.18976171875,1.1672999858856201,-1.1309000253677368,9.670999526977539
1682998624975761700,15.20976171875,1.126099944114685,-1.1483999490737915,9.673799514770508
1682998624995761700,15.22976171875,1.0787999629974365,-1.1726999282836914,9.676300048828125
1682998625015761700,15.24976171875,1.034500002861023,-1.1988999843597412,9.677899360656738
1682998625035761700,15.26976171875,0.9935999512672424,-1.216499924659729,9.679999351501465
1682998625055761700,15.28976171875,0.971299946308136,-1.2201999425888062,9.68179988861084
1682998625075761700,15.30976171875,0.9722999930381775,-1.2081999778747559,9.683199882507324
1682998625095761700,15.32976171875,0.9688999652862549,-1.1959999799728394,9.684999465942383
1682998625115761700,15.34976171875,0.9314000010490417,-1.2102999687194824,9.68690013885498
1682998625135760100,15.369760009765624,0.8984999656677246,-1.2211999893188477,9.688699722290039
1682998625155761700,15.38976171875,0.8789999485015869,-1.2071999311447144,9.69219970703125
1682998625175772700,15.409772705078124,0.8953999876976013,-1.1749999523162842,9.69469928741455
1682998625195764700,15.4297646484375,0.9322999715805054,-1.1280999183654785,9.696799278259277
1682998625215764700,15.4497646484375,0.9754999876022339,-1.0835999250411987,9.697599411010742
1682998625235761700,15.46976171875,1.0073000192642212,-1.0376999378204346,9.699399948120117
1682998625255761700,15.48976171875,1.0339000225067139,-0.9805999994277954,9.702499389648438
1682998625275761700,15.50976171875,1.0638999938964844,-0.9203999638557434,9.7052001953125
1682998625295761700,15.52976171875,1.1129000186920166,-0.8644999861717224,9.70479965209961
1682998625315761700,15.54976171875,1.1749999523162842,-0.8223999738693237,9.701099395751953
1682998625335761700,15.56976171875,1.2179999351501465,-0.7940999865531921,9.698200225830078
1682998625355761700,15.58976171875,1.2274999618530273,-0.7859999537467957,9.697699546813965
1682998625375761700,15.60976171875,1.212999939918518,-0.795199990272522,9.698699951171875
1682998625395761700,15.62976171875,1.194100022315979,-0.8118000030517578,9.699699401855469
1682998625415761700,15.64976171875,1.1847000122070312,-0.8233999609947205,9.699899673461914
1682998625435761700,15.66976171875,1.1861000061035156,-0.8291999697685242,9.699199676513672
1682998625455761700,15.68976171875,1.1927999258041382,-0.8325999975204468,9.698100090026855
1682998625475761700,15.70976171875,1.1955000162124634,-0.8416999578475952,9.696999549865723
1682998625495761700,15.72976171875,1.195599913597107,-0.8607999682426453,9.695300102233887
1682998625515761700,15.74976171875,1.194100022315979,-0.8829999566078186,9.693499565124512
1682998625535760100,15.769760009765625,1.1827999353408813,-0.9049999713897705,9.69279956817627
1682998625555761700,15.78976171875,1.1689000129699707,-0.9196999669075012,9.693099975585938
1682998625575761700,15.80976171875,1.163100004196167,-0.9226999878883362,9.693599700927734
1682998625595761700,15.82976171875,1.1582000255584717,-0.9267999529838562,9.693699836730957
1682998625615761700,15.84976171875,1.1648999452590942,-0.9285999536514282,9.69279956817627
1682998625635761700,15.86976171875,1.1806999444961548,-0.9289999604225159,9.690799713134766
1682998625655761700,15.88976171875,1.200600028038025,-0.9325000047683716,9.687999725341797
1682998625675774200,15.909774169921874,1.215399980545044,-0.9409999847412109,9.685400009155273
1682998625695761700,15.92976171875,1.2319999933242798,-0.9572999477386475,9.681699752807617
1682998625715761700,15.94976171875,1.2516999244689941,-0.9715999960899353,9.67770004272461
1682998625735761700,15.96976171875,1.2843999862670898,-0.97489994764328,9.673099517822266
1682998625755761700,15.98976171875,1.3215999603271484,-0.9879999756813049,9.666799545288086
1682998625775761700,16.00976171875,1.3710999488830566,-1.0160999298095703,9.656999588012695
1682998625795761700,16.02976171875,1.3977999687194824,-1.0628999471664429,9.648099899291992
1682998625815761700,16.04976171875,1.4219999313354492,-1.108299970626831,9.639399528503418
1682998625835761700,16.06976171875,1.4361000061035156,-1.1139999628067017,9.636699676513672
1682998625855761700,16.08976171875,1.4254999160766602,-1.0930999517440796,9.64069938659668
1682998625875761700,16.10976171875,1.403499960899353,-1.0853999853134155,9.644800186157227
1682998625895761700,16.12976171875,1.3646999597549438,-1.0763999223709106,9.651299476623535
1682998625915761700,16.14976171875,1.3509999513626099,-1.0367000102996826,9.657599449157715
1682998625935761700,16.16976171875,1.3835999965667725,-0.9693999886512756,9.65999984741211
1682998625955761700,16.18976171875,1.444700002670288,-0.9244999885559082,9.655399322509766
1682998625975761700,16.20976171875,1.4881999492645264,-0.9203999638557434,9.649199485778809
1682998625995761700,16.22976171875,1.466599941253662,-0.9502999782562256,9.6496000289917
1682998626015761700,16.24976171875,1.4115999937057495,-0.9904999732971191,9.653800010681152
1682998626035761700,16.26976171875,1.367799997329712,-1.0285999774932861,9.656099319458008
1682998626055761700,16.28976171875,1.3501999378204346,-1.0670000314712524,9.654399871826172
1682998626075761700,16.30976171875,1.339900016784668,-1.0986000299453735,9.652299880981445
1682998626095761700,16.32976171875,1.3109999895095825,-1.1211999654769897,9.65369987487793
1682998626115761700,16.34976171875,1.268399953842163,-1.1340999603271484,9.657899856567383
1682998626135761700,16.36976171875,1.232800006866455,-1.1385999917984009,9.66189956665039
1682998626155761700,16.38976171875,1.216499924659729,-1.1363999843597412,9.664299964904785
1682998626175774200,16.409774169921874,1.2114999294281006,-1.1312999725341797,9.665499687194824
1682998626195761700,16.42976171875,1.208299994468689,-1.1335999965667725,9.665599822998047
1682998626215764700,16.4497646484375,1.197700023651123,-1.1489999294281006,9.66510009765625
1682998626235761700,16.46976171875,1.1735999584197998,-1.1722999811172485,9.665299415588379
1682998626255761700,16.48976171875,1.1395000219345093,-1.1948000192642212,9.666600227355957
1682998626275761700,16.50976171875,1.0994999408721924,-1.2069000005722046,9.669699668884277
1682998626295761700,16.52976171875,1.063099980354309,-1.2101999521255493,9.673399925231934
1682998626315761700,16.54976171875,1.0375999212265015,-1.208799958229065,9.676300048828125
1682998626335763200,16.56976318359375,1.0246000289916992,-1.2096999883651733,9.677599906921387
1682998626355761700,16.58976171875,1.0239999294281006,-1.2131999731063843,9.677199363708496
1682998626375761700,16.60976171875,1.0256999731063843,-1.2218999862670898,9.675899505615234
1682998626395761700,16.62976171875,0.9997999668121338,-1.2380999326705933,9.676599502563477
1682998626415761700,16.64976171875,0.9613999724388123,-1.2628999948501587,9.677299499511719
1682998626435764700,16.6697646484375,0.9386000037193298,-1.2666000127792358,9.678999900817871
1682998626455764700,16.6897646484375,0.9194999933242798,-1.2495999336242676,9.683099746704102
1682998626475761700,16.70976171875,0.9292999505996704,-1.2164000272750854,9.686399459838867
1682998626495761700,16.72976171875,0.9757999777793884,-1.1557999849319458,9.689199447631836
1682998626515761700,16.74976171875,1.0250999927520752,-1.0920000076293945,9.691499710083008
1682998626535761700,16.76976171875,1.0591000318527222,-1.034999966621399,9.694099426269531
1682998626555761700,16.78976171875,1.0669000148773193,-0.9810999631881714,9.69890022277832
1682998626575761700,16.80976171875,1.0602999925613403,-0.9312999844551086,9.704500198364258
1682998626595761700,16.82976171875,1.0734000205993652,-0.8695999979972839,9.708799362182617
1682998626615761700,16.84976171875,1.115299940109253,-0.8121999502182007,9.709099769592285
1682998626635761700,16.86976171875,1.1699999570846558,-0.7630999684333801,9.706600189208984
1682998626655761700,16.88976171875,1.2128000259399414,-0.7268999814987183,9.704099655151367
1682998626675775700,16.909775634765627,1.2293000221252441,-0.7077999711036682,9.703499794006348
1682998626695763200,16.92976318359375,1.2281999588012695,-0.7023999691009521,9.703999519348145
1682998626715761700,16.94976171875,1.2276999950408936,-0.7059999704360962,9.703800201416016
1682998626735761700,16.96976171875,1.2329000234603882,-0.7128999829292297,9.70259952545166
1682998626755761700,16.98976171875,1.2347999811172485,-0.7150999903678894,9.702199935913086
1682998626775761700,17.00976171875,1.2360999584197998,-0.7196999788284302,9.701700210571289
1682998626795761700,17.02976171875,1.2358999252319336,-0.7353999614715576,9.700599670410156
1682998626815761700,17.04976171875,1.229099988937378,-0.7608999609947205,9.69950008392334
1682998626835761700,17.06976171875,1.2231999635696411,-0.7886999845504761,9.697999954223633
1682998626855761700,17.08976171875,1.2177000045776367,-0.8138999938964844,9.696599960327148
1682998626875761700,17.10976171875,1.2202999591827393,-0.8331999778747559,9.694600105285645
1682998626895761700,17.12976171875,1.2242000102996826,-0.8570999503135681,9.692099571228027
1682998626915761700,17.14976171875,1.227199912071228,-0.880899965763092,9.689499855041504
1682998626935761700,17.16976171875,1.2249000072479248,-0.9072999954223633,9.687399864196777
1682998626955761700,17.18976171875,1.2188999652862549,-0.9381999969482422,9.685199737548828
1682998626975761700,17.20976171875,1.2101999521255493,-0.9731999635696411,9.682799339294434
1682998626995761700,17.22976171875,1.197700023651123,-1.0044000148773193,9.68120002746582
1682998627015761700,17.24976171875,1.1907999515533447,-1.0216000080108643,9.680299758911133
1682998627035761700,17.26976171875,1.2044999599456787,-1.0214999914169312,9.67859935760498
1682998627055761700,17.28976171875,1.2401000261306763,-1.0066999197006226,9.675600051879883
1682998627075761700,17.30976171875,1.2817000150680542,-1.0053999423980713,9.670299530029297
1682998627095761700,17.32976171875,1.331399917602539,-1.017699956893921,9.662300109863281
1682998627115764700,17.3497646484375,1.3579000234603882,-1.0369999408721924,9.656599998474121
1682998627135763200,17.36976318359375,1.3680999279022217,-1.059999942779541,9.65269947052002
1682998627155761700,17.38976171875,1.3709999322891235,-1.0541999340057373,9.652899742126465
1682998627175774200,17.409774169921874,1.3489999771118164,-1.0332999229431152,9.658199310302734
1682998627195761700,17.42976171875,1.3329999446868896,-1.011799931526184,9.662699699401855
1682998627215761700,17.44976171875,1.3322999477386475,-0.9845999479293823,9.665599822998047
1682998627235761700,17.46976171875,1.3503999710083008,-0.9462999701499939,9.666999816894531
1682998627255761700,17.48976171875,1.3913999795913696,-0.8937999606132507,9.666099548339844
1682998627275761700,17.50976171875,1.430999994277954,-0.8508999943733215,9.664199829101562
1682998627295761700,17.52976171875,1.4528999328613281,-0.8226999640464783,9.663399696350098
1682998627315761700,17.54976171875,1.4365999698638916,-0.8139999508857727,9.666600227355957
1682998627335761700,17.56976171875,1.3985999822616577,-0.8245999813079834,9.671299934387207
1682998627355761700,17.58976171875,1.3698999881744385,-0.8427000045776367,9.673799514770508
1682998627375761700,17.60976171875,1.3564999103546143,-0.8534999489784241,9.674699783325195
1682998627395761700,17.62976171875,1.34499990940094,-0.858299970626831,9.675899505615234
1682998627415761700,17.64976171875,1.3143999576568604,-0.8592999577522278,9.679999351501465
1682998627435761700,17.66976171875,1.2719999551773071,-0.8580999970436096,9.685799598693848
1682998627455761700,17.68976171875,1.2299000024795532,-0.8557999730110168,9.691399574279785
1682998627475761700,17.70976171875,1.1979999542236328,-0.8532999753952026,9.695699691772461
1682998627495761700,17.72976171875,1.1852999925613403,-0.8483999967575073,9.697699546813965
1682998627515761700,17.74976171875,1.1826000213623047,-0.8521999716758728,9.697699546813965
1682998627535760100,17.769760009765626,1.167199969291687,-0.8707000017166138,9.69789981842041
1682998627555761700,17.78976171875,1.136699914932251,-0.8982999920845032,9.698999404907227
1682998627575763200,17.80976318359375,1.097599983215332,-0.9298999905586243,9.700499534606934
1682998627595761700,17.82976171875,1.0607999563217163,-0.9602999687194824,9.701600074768066
1682998627615761700,17.84976171875,1.021799921989441,-0.9918999671936035,9.70259952545166
1682998627635761700,17.86976171875,0.9961999654769897,-1.0145000219345093,9.70300006866455
1682998627655761700,17.88976171875,0.9825999736785889,-1.0235999822616577,9.703399658203125
1682998627675774200,17.909774169921874,0.9764999747276306,-1.021299958229065,9.704299926757812
1682998627695761700,17.92976171875,0.9802999496459961,-1.0180000066757202,9.70419979095459
1682998627715761700,17.94976171875,0.9768999814987183,-1.0357999801635742,9.702699661254883
1682998627735761700,17.96976171875,0.9599999785423279,-1.082800030708313,9.699199676513672
1682998627755761700,17.98976171875,0.9408999681472778,-1.1291999816894531,9.695799827575684
1682998627775761700,18.00976171875,0.9143999814987183,-1.1584999561309814,9.694899559020996
1682998627795761700,18.02976171875,0.8994999527931213,-1.177899956703186,9.693900108337402
1682998627815761700,18.04976171875,0.8984999656677246,-1.1869999170303345,9.692899703979492
1682998627835761700,18.06976171875,0.9132999777793884,-1.1756999492645264,9.692899703979492
1682998627855761700,18.08976171875,0.9371999502182007,-1.1507999897003174,9.693599700927734
1682998627875761700,18.10976171875,0.9581999778747559,-1.1244999170303345,9.69469928741455
1682998627895761700,18.12976171875,0.973099946975708,-1.1066999435424805,9.695199966430664
1682998627915761700,18.14976171875,0.9811999797821045,-1.0784000158309937,9.697599411010742
1682998627935761700,18.16976171875,0.976099967956543,-1.0313999652862549,9.70319938659668
1682998627955761700,18.18976171875,0.9802999496459961,-0.975600004196167,9.708600044250488
1682998627975761700,18.20976171875,1.0044000148773193,-0.91839998960495,9.711699485778809
1682998627995761700,18.22976171875,1.0403000116348267,-0.8722999691963196,9.712200164794922
1682998628015761700,18.24976171875,1.055400013923645,-0.8392999768257141,9.713399887084961
1682998628035761700,18.26976171875,1.039199948310852,-0.8244999647140503,9.716499328613281
1682998628055761700,18.28976171875,1.0199999809265137,-0.8297999501228333,9.717999458312988
1682998628075761700,18.30976171875,1.0152000188827515,-0.8420000076293945,9.717499732971191
1682998628095761700,18.32976171875,1.0203999280929565,-0.8489999771118164,9.716300010681152
1682998628115761700,18.34976171875,1.0241999626159668,-0.8456999659538269,9.71619987487793
1682998628135761700,18.36976171875,1.028499960899353,-0.8425999879837036,9.715999603271484
1682998628155761700,18.38976171875,1.0307999849319458,-0.84579998254776,9.715499877929688
1682998628175774200,18.409774169921874,1.0307999849319458,-0.8601999878883362,9.714300155639648
1682998628195761700,18.42976171875,1.031599998474121,-0.8781999945640564,9.712599754333496
1682998628215761700,18.44976171875,1.0313999652862549,-0.8924999833106995,9.711299896240234
1682998628235761700,18.46976171875,1.0353000164031982,-0.9007999897003174,9.710100173950195
1682998628255761700,18.48976171875,1.0440999269485474,-0.9037999510765076,9.70889949798584
1682998628275760000,18.509760009765625,1.0477999448776245,-0.911300003528595,9.707799911499023
1682998628295761700,18.52976171875,1.0437999963760376,-0.9264999628067017,9.706799507141113
1682998628315764700,18.5497646484375,1.039199948310852,-0.9407999515533447,9.705900192260742
1682998628335763200,18.56976318359375,1.0437999963760376,-0.9424999952316284,9.7052001953125
1682998628355761700,18.58976171875,1.055299997329712,-0.9239999651908875,9.70580005645752
1682998628375761700,18.60976171875,1.079200029373169,-0.8851999640464783,9.706799507141113
1682998628395761700,18.62976171875,1.1194000244140625,-0.8305999636650085,9.706999778747559
1682998628415761700,18.64976171875,1.164699912071228,-0.7847999930381775,9.705499649047852
1682998628435761700,18.66976171875,1.219499945640564,-0.7491999864578247,9.701600074768066
1682998628455761700,18.68976171875,1.274999976158142,-0.7289999723434448,9.696000099182129
1682998628475761700,18.70976171875,1.3259999752044678,-0.727899968624115,9.689199447631836
1682998628495761700,18.72976171875,1.3838999271392822,-0.7185999751091003,9.68179988861084
1682998628515761700,18.74976171875,1.4323999881744385,-0.6894999742507935,9.676899909973145
1682998628535761700,18.76976171875,1.4391999244689941,-0.6556999683380127,9.678199768066406
1682998628555763200,18.78976318359375,1.4183999300003052,-0.6550999879837036,9.681300163269043
1682998628575764700,18.8097646484375,1.3901000022888184,-0.6606999635696411,9.685099601745605
1682998628595761700,18.82976171875,1.3571999073028564,-0.6455999612808228,9.690699577331543
1682998628615761700,18.84976171875,1.3391000032424927,-0.6116999983787537,9.695499420166016
1682998628635761700,18.86976171875,1.3425999879837036,-0.5898000001907349,9.69629955291748
1682998628655761700,18.88976171875,1.340499997138977,-0.5920000076293945,9.696499824523926
1682998628675774200,18.909774169921874,1.3243999481201172,-0.6133999824523926,9.697400093078613
1682998628695761700,18.92976171875,1.3040000200271606,-0.6362000107765198,9.698699951171875
1682998628715761700,18.94976171875,1.2831000089645386,-0.6585999727249146,9.699999809265137
1682998628735761700,18.96976171875,1.2589999437332153,-0.6850000023841858,9.701299667358398
1682998628755761700,18.98976171875,1.2257000207901,-0.7148999571800232,9.703399658203125
1682998628775761700,19.00976171875,1.1787999868392944,-0.7497000098228455,9.706600189208984
1682998628795761700,19.02976171875,1.1269999742507935,-0.7828999757766724,9.710100173950195
1682998628815761700,19.04976171875,1.0839999914169312,-0.8065999746322632,9.713099479675293
1682998628835763200,19.06976318359375,1.0657999515533447,-0.827299952507019,9.713299751281738
1682998628855764700,19.0897646484375,1.05649995803833,-0.856499969959259,9.711799621582031
1682998628875761700,19.10976171875,1.041700005531311,-0.8910999894142151,9.710299491882324
1682998628895761700,19.12976171875,1.0228999853134155,-0.924299955368042,9.709199905395508
1682998628915763200,19.14976318359375,0.9954999685287476,-0.9528999924659729,9.70930004119873
1682998628935761700,19.16976171875,0.9608999490737915,-0.9714999794960022,9.710899353027344
1682998628955761700,19.18976171875,0.9307999610900879,-0.9810999631881714,9.712900161743164
1682998628975761700,19.20976171875,0.9090999960899353,-0.9837999939918518,9.714699745178223
1682998628995761700,19.22976171875,0.885699987411499,-0.9809999465942383,9.717100143432617
1682998629015761700,19.24976171875,0.8766999840736389,-0.9750999808311462,9.718500137329102
1682998629035761700,19.26976171875,0.8743999600410461,-0.9786999821662903,9.718400001525879
1682998629055764700,19.2897646484375,0.8539999723434448,-0.9984999895095825,9.718199729919434
1682998629075764700,19.3097646484375,0.8143999576568604,-1.0407999753952026,9.717100143432617
1682998629095761700,19.32976171875,0.7736999988555908,-1.0703999996185303,9.717199325561523
1682998629115761700,19.34976171875,0.7414999604225159,-1.072700023651123,9.719499588012695
1682998629135760100,19.369760009765624,0.7396000027656555,-1.0449999570846558,9.722700119018555
1682998629155761700,19.38976171875,0.7756999731063843,-0.98499995470047,9.726099967956543
1682998629175772700,19.409772705078126,0.8323000073432922,-0.9147999882698059,9.728300094604492
1682998629195761700,19.42976171875,0.8774999976158142,-0.858299970626831,9.729499816894531
1682998629215761700,19.44976171875,0.8968999981880188,-0.8222000002861023,9.730799674987793
1682998629235761700,19.46976171875,0.8858999609947205,-0.7960999608039856,9.734000205993652
1682998629255761700,19.48976171875,0.8758999705314636,-0.7565000057220459,9.738100051879883
1682998629275761700,19.50976171875,0.8950999975204468,-0.70169997215271,9.740399360656738
1682998629295761700,19.52976171875,0.9393999576568604,-0.6481999754905701,9.739999771118164
1682998629315761700,19.54976171875,0.9784999489784241,-0.5985000133514404,9.739299774169922
1682998629335761700,19.56976171875,0.9899999499320984,-0.5625,9.740300178527832
1682998629355761700,19.58976171875,0.9882999658584595,-0.5475000143051147,9.741299629211426
1682998629375761700,19.60976171875,0.9881999492645264,-0.5496999621391296,9.741199493408203
1682998629395761700,19.62976171875,0.9921000003814697,-0.560699999332428,9.74020004272461
1682998629415761700,19.64976171875,0.9982999563217163,-0.5705999732017517,9.738900184631348
1682998629435761700,19.66976171875,1.0016999244689941,-0.5751999616622925,9.738299369812012
1682998629455761700,19.68976171875,1.0087000131607056,-0.5800999999046326,9.737299919128418
1682998629475761700,19.70976171875,1.017300009727478,-0.5879999995231628,9.735899925231934
1682998629495761700,19.72976171875,1.0318000316619873,-0.5979999899864197,9.733799934387207
1682998629515761700,19.74976171875,1.035599946975708,-0.6126999855041504,9.732500076293945
1682998629535761700,19.76976171875,1.027400016784668,-0.6237999796867371,9.732699394226074
1682998629555761700,19.78976171875,1.0204999446868896,-0.636900007724762,9.732500076293945
1682998629575761700,19.80976171875,1.020900011062622,-0.6513000130653381,9.731499671936035
1682998629595761700,19.82976171875,1.0332999229431152,-0.6723999977111816,9.728799819946289
1682998629615761700,19.84976171875,1.0449999570846558,-0.701200008392334,9.725500106811523
1682998629635761700,19.86976171875,1.0460000038146973,-0.7303000092506409,9.723299980163574
1682998629655761700,19.88976171875,1.0412999391555786,-0.757099986076355,9.721699714660645
1682998629675774200,19.909774169921874,1.042699933052063,-0.7735999822616577,9.72029972076416
1682998629695761700,19.92976171875,1.0613999366760254,-0.7744999527931213,9.718199729919434
1682998629715763200,19.94976318359375,1.098099946975708,-0.7637999653816223,9.714900016784668
1682998629735761700,19.96976171875,1.1532000303268433,-0.7590999603271484,9.70889949798584
1682998629755761700,19.98976171875,1.2096999883651733,-0.7610999941825867,9.701899528503418
1682998629775761700,20.00976171875,1.240399956703186,-0.7785999774932861,9.696599960327148
1682998629795761700,20.02976171875,1.2648999691009521,-0.7949000000953674,9.692099571228027
1682998629815763200,20.04976318359375,1.2803000211715698,-0.7883999943733215,9.69059944152832
1682998629835763200,20.06976318359375,1.277999997138977,-0.7675999999046326,9.692599296569824
1682998629855761700,20.08976171875,1.2632999420166016,-0.7455999851226807,9.69629955291748
1682998629875761700,20.10976171875,1.243499994277954,-0.722000002861023,9.700599670410156
1682998629895761700,20.12976171875,1.2318999767303467,-0.6811000108718872,9.704999923706055
1682998629915761700,20.14976171875,1.2404999732971191,-0.6194999814033508,9.708099365234375
1682998629935761700,20.16976171875,1.2590999603271484,-0.566100001335144,9.70889949798584
1682998629955761700,20.18976171875,1.2773000001907349,-0.5327999591827393,9.708399772644043
1682998629975761700,20.20976171875,1.2763999700546265,-0.5281999707221985,9.708799362182617
1682998629995763200,20.22976318359375,1.2516000270843506,-0.5440999865531921,9.711199760437012
1682998630015764700,20.2497646484375,1.2102999687194824,-0.5758999586105347,9.714599609375
1682998630035761700,20.26976171875,1.1820999383926392,-0.6085000038146973,9.716099739074707
1682998630055761700,20.28976171875,1.161199927330017,-0.6370999813079834,9.716699600219727
1682998630075761700,20.30976171875,1.1312999725341797,-0.6568999886512756,9.718899726867676
1682998630095761700,20.32976171875,1.1021000146865845,-0.6777999997138977,9.72089958190918
1682998630115761700,20.34976171875,1.0794999599456787,-0.7008000016212463,9.721799850463867
1682998630135761700,20.36976171875,1.0604000091552734,-0.725600004196167,9.722099304199219
1682998630155761700,20.38976171875,1.0454000234603882,-0.7475999593734741,9.722000122070312
1682998630175774200,20.409774169921874,1.0296000242233276,-0.7734999656677246,9.721699714660645
1682998630195761700,20.42976171875,1.0088999271392822,-0.8082000017166138,9.720999717712402
1682998630215761700,20.44976171875,0.9858999848365784,-0.8455999493598938,9.720199584960938
1682998630235761700,20.46976171875,0.9644999504089355,-0.8867999911308289,9.71869945526123
1682998630255761700,20.48976171875,0.9483999609947205,-0.9293999671936035,9.716300010681152
1682998630275761700,20.50976171875,0.9325999617576599,-0.9728999733924866,9.713500022888184
1682998630295761700,20.52976171875,0.9179999828338623,-1.0135999917984009,9.710800170898438
1682998630315761700,20.54976171875,0.9020999670028687,-1.0435999631881714,9.709099769592285
1682998630335761700,20.56976171875,0.9014999866485596,-1.051900029182434,9.708199501037598
1682998630355761700,20.58976171875,0.9185000061988831,-1.0525000095367432,9.706600189208984
1682998630375761700,20.60976171875,0.9259999990463257,-1.0676000118255615,9.70419979095459
1682998630395761700,20.62976171875,0.9095999598503113,-1.1075999736785889,9.701299667358398
1682998630415761700,20.64976171875,0.8898999691009521,-1.1480000019073486,9.698399543762207
1682998630435761700,20.66976171875,0.8761000037193298,-1.1582000255584717,9.69849967956543
1682998630455761700,20.68976171875,0.8908999562263489,-1.1456999778747559,9.698599815368652
1682998630475761700,20.70976171875,0.9228000044822693,-1.1139999628067017,9.699299812316895
1682998630495761700,20.72976171875,0.9511999487876892,-1.069100022315979,9.701600074768066
1682998630515761700,20.74976171875,0.9705999493598938,-1.0240999460220337,9.704599380493164
1682998630535761700,20.76976171875,0.9850999712944031,-0.9843999743461609,9.707200050354004
1682998630555761700,20.78976171875,0.988599956035614,-0.9436999559402466,9.710899353027344
1682998630575761700,20.80976171875,0.9917999505996704,-0.9002999663352966,9.714699745178223
1682998630595761700,20.82976171875,0.9998999834060669,-0.8486999869346619,9.718500137329102
1682998630615761700,20.84976171875,1.0214999914169312,-0.7942999601364136,9.720799446105957
1682998630635760000,20.869760009765624,1.05239999294281,-0.738599956035614,9.72189998626709
1682998630655761700,20.88976171875,1.0769000053405762,-0.6879000067710876,9.722999572753906
1682998630675772700,20.909772705078126,1.0889999866485596,-0.651199996471405,9.724199295043945
1682998630695761700,20.92976171875,1.0880999565124512,-0.6304999589920044,9.72559928894043
1682998630715761700,20.94976171875,1.0709999799728394,-0.6328999996185303,9.727399826049805
1682998630735761700,20.96976171875,1.0555000305175781,-0.649899959564209,9.727899551391602
1682998630755761700,20.98976171875,1.0434999465942383,-0.6765999794006348,9.727399826049805
1682998630775761700,21.00976171875,1.0288000106811523,-0.7064999938011169,9.726900100708008
1682998630795761700,21.02976171875,1.0109999179840088,-0.7412999868392944,9.726099967956543
1682998630815761700,21.04976171875,0.9853999614715576,-0.7736999988555908,9.726200103759766
1682998630835761700,21.06976171875,0.9614999890327454,-0.7976999878883362,9.726699829101562
1682998630855761700,21.08976171875,0.9551999568939209,-0.8141999840736389,9.725899696350098
1682998630875761700,21.10976171875,0.9577999711036682,-0.8375999927520752,9.723699569702148
1682998630895761700,21.12976171875,0.9528999924659729,-0.8662999868392944,9.721699714660645
1682998630915761700,21.14976171875,0.9364999532699585,-0.8960999846458435,9.720499992370605
1682998630935761700,21.16976171875,0.9232999682426453,-0.9212999939918518,9.719499588012695
1682998630955761700,21.18976171875,0.9174000024795532,-0.9459999799728394,9.717599868774414
1682998630975761700,21.20976171875,0.917199969291687,-0.9681999683380127,9.715499877929688
1682998630995761700,21.22976171875,0.9231999516487122,-0.9835000038146973,9.713399887084961
1682998631015761700,21.24976171875,0.9396999478340149,-0.9847999811172485,9.711699485778809
1682998631035761700,21.26976171875,0.9580000042915344,-0.975600004196167,9.710800170898438
1682998631055761700,21.28976171875,0.9842000007629395,-0.9603999853134155,9.709699630737305
1682998631075761700,21.30976171875,1.0092999935150146,-0.9515999555587769,9.708000183105469
1682998631095761700,21.32976171875,1.0425000190734863,-0.9625999927520752,9.703399658203125
1682998631115761700,21.34976171875,1.07260000705719,-0.9807999730110168,9.698299407958984
1682998631135760100,21.369760009765624,1.0907999277114868,-0.9898999929428101,9.695300102233887
1682998631155761700,21.38976171875,1.1187000274658203,-0.968999981880188,9.694299697875977
1682998631175772700,21.409772705078126,1.152899980545044,-0.9253999590873718,9.694499969482422
1682998631195761700,21.42976171875,1.1798999309539795,-0.884399950504303,9.695099830627441
1682998631215761700,21.44976171875,1.1890000104904175,-0.8718000054359436,9.695099830627441
1682998631235761700,21.46976171875,1.174899935722351,-0.8849999904632568,9.695699691772461
1682998631255761700,21.48976171875,1.1419999599456787,-0.8830999732017517,9.699699401855469
1682998631275761700,21.50976171875,1.124400019645691,-0.8410999774932861,9.705499649047852
1682998631295761700,21.52976171875,1.1308000087738037,-0.7964999675750732,9.708600044250488
1682998631315761700,21.54976171875,1.1456999778747559,-0.7712999582290649,9.708799362182617
1682998631335761700,21.56976171875,1.146899938583374,-0.7712000012397766,9.708700180053711
1682998631355761700,21.58976171875,1.1204999685287476,-0.7920999526977539,9.710100173950195
1682998631375761700,21.60976171875,1.0864999294281006,-0.8184999823570251,9.711799621582031
1682998631395761700,21.62976171875,1.062999963760376,-0.8446999788284302,9.712200164794922
1682998631415761700,21.64976171875,1.0425000190734863,-0.8727999925613403,9.711899757385254
1682998631435761700,21.66976171875,1.0124000310897827,-0.8995999693870544,9.712599754333496
1682998631455761700,21.68976171875,0.9708999991416931,-0.9253999590873718,9.714399337768555
1682998631475761700,21.70976171875,0.9351999759674072,-0.9449999928474426,9.716099739074707
1682998631495761700,21.72976171875,0.9174999594688416,-0.9574999809265137,9.716499328613281
1682998631515761700,21.74976171875,0.9122999906539917,-0.9702000021934509,9.715700149536133
1682998631535763200,21.76976318359375,0.9041000008583069,-0.9881999492645264,9.714699745178223
1682998631555764700,21.7897646484375,0.884399950504303,-1.0132999420166016,9.713899612426758
1682998631575761700,21.80976171875,0.863099992275238,-1.0370999574661255,9.713299751281738
1682998631595761700,21.82976171875,0.8410999774932861,-1.0595999956130981,9.712800025939941
1682998631615761700,21.84976171875,0.8183000087738037,-1.075600028038025,9.71299934387207
1682998631635761700,21.86976171875,0.7935000061988831,-1.0845999717712402,9.714099884033203
1682998631655761700,21.88976171875,0.7666999697685242,-1.0861999988555908,9.715999603271484
1682998631675774200,21.909774169921874,0.7450000047683716,-1.076200008392334,9.718899726867676
1682998631695761700,21.92976171875,0.733299970626831,-1.0548999309539795,9.722099304199219
1682998631715761700,21.94976171875,0.7263999581336975,-1.035499930381775,9.724699974060059
1682998631735761700,21.96976171875,0.704800009727478,-1.0326999425888062,9.72659969329834
1682998631755761700,21.98976171875,0.6815999746322632,-1.0530999898910522,9.72599983215332
1682998631775761700,22.00976171875,0.644599974155426,-1.0765999555587769,9.72599983215332
1682998631795761700,22.02976171875,0.6123999953269958,-1.0927000045776367,9.726299285888672
1682998631815761700,22.04976171875,0.6093999743461609,-1.086400032043457,9.72719955444336
1682998631835761700,22.06976171875,0.625,-1.063499927520752,9.728699684143066
1682998631855761700,22.08976171875,0.6326999664306641,-1.0317000150680542,9.731599807739258
1682998631875761700,22.10976171875,0.6230999827384949,-1.010599970817566,9.73449993133545
1682998631895761700,22.12976171875,0.5986999869346619,-0.9972999691963196,9.73740005493164
1682998631915761700,22.14976171875,0.5758000016212463,-0.9767999649047852,9.740799903869629
1682998631935761700,22.16976171875,0.5821999907493591,-0.9375,9.74429988861084
1682998631955761700,22.18976171875,0.6187999844551086,-0.8906999826431274,9.746399879455566
1682998631975761700,22.20976171875,0.6654999852180481,-0.857699990272522,9.746299743652344
1682998631995761700,22.22976171875,0.7008000016212463,-0.8379999995231628,9.745599746704102
1682998632015761700,22.24976171875,0.7220999598503113,-0.8226999640464783,9.745299339294434
1682998632035761700,22.26976171875,0.7319999933242798,-0.8120999932289124,9.745499610900879
1682998632055761700,22.28976171875,0.7382999658584595,-0.8037999868392944,9.745699882507324
1682998632075761700,22.30976171875,0.7483999729156494,-0.8050000071525574,9.744799613952637
1682998632095761700,22.32976171875,0.7594000101089478,-0.817799985408783,9.742899894714355
1682998632115761700,22.34976171875,0.7698000073432922,-0.8294000029563904,9.74109935760498
1682998632135760100,22.369760009765624,0.7828999757766724,-0.8394999504089355,9.7391996383667
1682998632155761700,22.38976171875,0.796999990940094,-0.8447999954223633,9.73759937286377
1682998632175772700,22.409772705078126,0.8108999729156494,-0.8463999629020691,9.736299514770508
1682998632195761700,22.42976171875,0.8283999562263489,-0.8476999998092651,9.734700202941895
1682998632215761700,22.44976171875,0.8355000019073486,-0.8567000031471252,9.73330020904541
1682998632235761700,22.46976171875,0.8316999673843384,-0.873699963092804,9.732099533081055
1682998632255761700,22.48976171875,0.8215000033378601,-0.8959999680519104,9.730999946594238
1682998632275761700,22.50976171875,0.8069999814033508,-0.9212999939918518,9.7298002243042
1682998632295761700,22.52976171875,0.7913999557495117,-0.9454999566078186,9.728799819946289
1682998632315761700,22.54976171875,0.7864999771118164,-0.960599958896637,9.727699279785156
1682998632335761700,22.56976171875,0.7878999710083008,-0.9685999751091003,9.726799964904785
1682998632355761700,22.58976171875,0.7889999747276306,-0.9673999547958374,9.726799964904785
1682998632375761700,22.60976171875,0.7963999509811401,-0.9564999938011169,9.727299690246582
1682998632395761700,22.62976171875,0.8179000020027161,-0.9316999912261963,9.727899551391602
1682998632415761700,22.64976171875,0.849299967288971,-0.9030999541282654,9.727899551391602
1682998632435761700,22.66976171875,0.887499988079071,-0.8859999775886536,9.726099967956543
1682998632455761700,22.68976171875,0.9244999885559082,-0.8782999515533447,9.723299980163574
1682998632475761700,22.70976171875,0.942799985408783,-0.8725000023841858,9.722099304199219
1682998632495761700,22.72976171875,0.9577999711036682,-0.8434000015258789,9.723199844360352
1682998632515761700,22.74976171875,0.9702999591827393,-0.7890999913215637,9.726499557495117
1682998632535761700,22.76976171875,0.9687999486923218,-0.7346999645233154,9.730899810791016
1682998632555761700,22.78976171875,0.9634999632835388,-0.7026999592781067,9.733799934387207
1682998632575761700,22.80976171875,0.9503999948501587,-0.6728000044822693,9.737199783325195
1682998632595761700,22.82976171875,0.9585999846458435,-0.6240000128746033,9.739699363708496
1682998632615761700,22.84976171875,0.991599977016449,-0.5720999836921692,9.739500045776367
1682998632635760000,22.869760009765624,1.014299988746643,-0.5422999858856201,9.738900184631348
1682998632655761700,22.88976171875,1.0175999402999878,-0.541700005531311,9.73859977722168
1682998632675772700,22.909772705078126,0.9958999752998352,-0.5654999613761902,9.739500045776367
1682998632695761700,22.92976171875,0.9611999988555908,-0.6049999594688416,9.740599632263184
1682998632715761700,22.94976171875,0.9416999816894531,-0.6478999853134155,9.739699363708496
1682998632735761700,22.96976171875,0.9368999600410461,-0.6868999600410461,9.737500190734863
1682998632755761700,22.98976171875,0.9265999794006348,-0.715399980545044,9.736499786376953
1682998632775761700,23.00976171875,0.9129999876022339,-0.7371000051498413,9.736100196838379
1682998632795761700,23.02976171875,0.8987999558448792,-0.7574999928474426,9.735899925231934
1682998632815761700,23.04976171875,0.8826999664306641,-0.7797999978065491,9.735599517822266
1682998632835761700,23.06976171875,0.8646999597549438,-0.7982999682426453,9.735699653625488
1682998632855761700,23.08976171875,0.8580999970436096,-0.8130999803543091,9.735099792480469
1682998632875761700,23.10976171875,0.8580999970436096,-0.8297999501228333,9.733699798583984
1682998632895761700,23.12976171875,0.851099967956543,-0.8538999557495117,9.732199668884277
1682998632915761700,23.14976171875,0.8364999890327454,-0.8759999871253967,9.731499671936035
1682998632935761700,23.16976171875,0.8168999552726746,-0.8926999568939209,9.73169994354248
1682998632955761700,23.18976171875,0.7935999631881714,-0.9036999940872192,9.732600212097168
1682998632975761700,23.20976171875,0.7680999636650085,-0.9084999561309814,9.734199523925781
1682998632995761700,23.22976171875,0.7488999962806702,-0.9047999978065491,9.736000061035156
1682998633015761700,23.24976171875,0.7407999634742737,-0.8889999985694885,9.738100051879883
1682998633035761700,23.26976171875,0.7360999584197998,-0.8726999759674072,9.739899635314941
1682998633055761700,23.28976171875,0.7283999919891357,-0.8661999702453613,9.74109935760498
1682998633075761700,23.30976171875,0.7062999606132507,-0.8847999572753906,9.741000175476074
1682998633095761700,23.32976171875,0.685699999332428,-0.920799970626831,9.7391996383667
1682998633115761700,23.34976171875,0.6699000000953674,-0.9479999542236328,9.73759937286377
1682998633135760100,23.369760009765624,0.6599000096321106,-0.9577999711036682,9.73740005493164
1682998633155761700,23.38976171875,0.6721000075340271,-0.9432999491691589,9.73799991607666
1682998633175772700,23.409772705078126,0.6983999609947205,-0.9095999598503113,9.739299774169922
1682998633195761700,23.42976171875,0.7358999848365784,-0.8571999669075012,9.741299629211426
1682998633215761700,23.44976171875,0.7622999548912048,-0.7900999784469604,9.74489974975586
1682998633235761700,23.46976171875,0.7847999930381775,-0.7324999570846558,9.747699737548828
1682998633255761700,23.48976171875,0.8032000064849854,-0.6922000050544739,9.749099731445312
1682998633275761700,23.50976171875,0.8174999952316284,-0.6592999696731567,9.750199317932129
1682998633295761700,23.52976171875,0.8296999931335449,-0.6342999935150146,9.750800132751465
1682998633315761700,23.54976171875,0.8489999771118164,-0.6187999844551086,9.750199317932129
1682998633335761700,23.56976171875,0.8740999698638916,-0.6121999621391296,9.748299598693848
1682998633355761700,23.58976171875,0.8960999846458435,-0.6086999773979187,9.746600151062012
1682998633375761700,23.60976171875,0.9129999876022339,-0.6103999614715576,9.74489974975586
1682998633395761700,23.62976171875,0.9275999665260315,-0.6175000071525574,9.7431001663208
1682998633415761700,23.64976171875,0.94159996509552,-0.6354999542236328,9.740599632263184
1682998633435761700,23.66976171875,0.9399999976158142,-0.6608999967575073,9.738999366760254
1682998633455761700,23.68976171875,0.927299976348877,-0.6920999884605408,9.738100051879883
1682998633475761700,23.70976171875,0.9192999601364136,-0.7245000004768372,9.736499786376953
1682998633495761700,23.72976171875,0.9230999946594238,-0.7548999786376953,9.733799934387207
1682998633515761700,23.74976171875,0.9404999613761902,-0.7787999510765076,9.730299949645996
1682998633535761700,23.76976171875,0.9550999999046326,-0.7928999662399292,9.727699279785156
1682998633555761700,23.78976171875,0.9551999568939209,-0.8108999729156494,9.726200103759766
1682998633575761700,23.80976171875,0.9459999799728394,-0.8330000042915344,9.725299835205078
1682998633595761700,23.82976171875,0.9336999654769897,-0.8551999926567078,9.724499702453613
1682998633615761700,23.84976171875,0.9235000014305115,-0.8726999759674072,9.723899841308594
1682998633635761700,23.86976171875,0.9159999489784241,-0.8858999609947205,9.723400115966797
1682998633655761700,23.88976171875,0.9095999598503113,-0.8904999494552612,9.723599433898926
1682998633675772700,23.909772705078126,0.9042999744415283,-0.8849999904632568,9.724599838256836
1682998633695761700,23.92976171875,0.8985999822616577,-0.8737999796867371,9.726200103759766
1682998633715761700,23.94976171875,0.9039999842643738,-0.8578000068664551,9.727099418640137
1682998633735761700,23.96976171875,0.9323999881744385,-0.839199960231781,9.72599983215332
1682998633755761700,23.98976171875,0.9645999670028687,-0.8169999718666077,9.724800109863281
1682998633775761700,24.00976171875,0.9902999997138977,-0.8064000010490417,9.723099708557129
1682998633795761700,24.02976171875,1.0127999782562256,-0.8113999962806702,9.72029972076416
1682998633815761700,24.04976171875,1.0053999423980713,-0.835599958896637,9.719099998474121
1682998633835761700,24.06976171875,0.9989999532699585,-0.8626999855041504,9.717399597167969
1682998633855761700,24.08976171875,1.0067999362945557,-0.833299994468689,9.719099998474121
1682998633875761700,24.10976171875,1.041700005531311,-0.7444999814033508,9.722599983215332
1682998633895761700,24.12976171875,1.0964999198913574,-0.6450999975204468,9.723699569702148
1682998633915761700,24.14976171875,1.1383999586105347,-0.574999988079071,9.723299980163574
1682998633935761700,24.16976171875,1.1389999389648438,-0.5489000082015991,9.724699974060059
1682998633955761700,24.18976171875,1.0996999740600586,-0.5472999811172485,9.729399681091309
1682998633975761700,24.20976171875,1.0710999965667725,-0.5399999618530273,9.732999801635742
1682998633995761700,24.22976171875,1.0755000114440918,-0.527999997138977,9.733099937438965
1682998634015761700,24.24976171875,1.0764999389648438,-0.5194999575614929,9.733499526977539
1682998634035761700,24.26976171875,1.0555000305175781,-0.5196999907493591,9.735799789428711
1682998634055761700,24.28976171875,1.0334999561309814,-0.5263000130653381,9.737799644470215
1682998634075761700,24.30976171875,1.0333999395370483,-0.5363999605178833,9.737199783325195
1682998634095761700,24.32976171875,1.0430999994277954,-0.5565999746322632,9.735099792480469
1682998634115761700,24.34976171875,1.0405999422073364,-0.5819999575614929,9.733799934387207
1682998634135760100,24.369760009765624,1.023800015449524,-0.6105999946594238,9.73390007019043
1682998634155761700,24.38976171875,1.0031999349594116,-0.6389999985694885,9.734199523925781
1682998634175772700,24.409772705078126,0.988099992275238,-0.671999990940094,9.733499526977539
1682998634195761700,24.42976171875,0.9788999557495117,-0.7124999761581421,9.731599807739258
1682998634215761700,24.44976171875,0.9695000052452087,-0.7497999668121338,9.729700088500977
1682998634235761700,24.46976171875,0.9596999883651733,-0.7780999541282654,9.728499412536621
1682998634255761700,24.48976171875,0.9472999572753906,-0.7997999787330627,9.727899551391602
1682998634275761700,24.50976171875,0.9378999471664429,-0.8229999542236328,9.726900100708008
1682998634295761700,24.52976171875,0.9302999973297119,-0.8509999513626099,9.725199699401855
1682998634315761700,24.54976171875,0.9188999533653259,-0.8813999891281128,9.723599433898926
1682998634335761700,24.56976171875,0.9017999768257141,-0.9095999598503113,9.722599983215332
1682998634355761700,24.58976171875,0.8777999877929688,-0.9375,9.722099304199219
1682998634375761700,24.60976171875,0.8455999493598938,-0.958899974822998,9.722899436950684
1682998634395761700,24.62976171875,0.8172000050544739,-0.9632999897003174,9.724899291992188
1682998634415761700,24.64976171875,0.8007000088691711,-0.9502999782562256,9.727499961853027
1682998634435761700,24.66976171875,0.7943999767303467,-0.9274999499320984,9.730299949645996
1682998634455761700,24.68976171875,0.7822999954223633,-0.9149999618530273,9.732399940490723
1682998634475761700,24.70976171875,0.7516999840736389,-0.9378999471664429,9.732600212097168
1682998634495761700,24.72976171875,0.717799961566925,-0.9598000049591064,9.733099937438965
1682998634515761700,24.74976171875,0.6948999762535095,-0.9602999687194824,9.734700202941895
1682998634535761700,24.76976171875,0.7211999893188477,-0.9223999977111816,9.73639965057373
1682998634555761700,24.78976171875,0.7820000052452087,-0.8486999869346619,9.738499641418457
1682998634575761700,24.80976171875,0.8463999629020691,-0.7690999507904053,9.739699363708496
1682998634595761700,24.82976171875,0.897599995136261,-0.7170000076293945,9.739099502563477
1682998634615761700,24.84976171875,0.914199948310852,-0.7135999798774719,9.737799644470215
1682998634635761700,24.86976171875,0.8949999809265137,-0.7178999781608582,9.7391996383667
1682998634655761700,24.88976171875,0.8987999558448792,-0.6980999708175659,9.740300178527832
1682998634675772700,24.909772705078126,0.9447999596595764,-0.661899983882904,9.738499641418457
1682998634695761700,24.92976171875,1.0090999603271484,-0.62909996509552,9.734199523925781
1682998634715761700,24.94976171875,1.0496000051498413,-0.6051999926567078,9.731499671936035
1682998634735761700,24.96976171875,1.0537999868392944,-0.5952999591827393,9.731599807739258
1682998634755761700,24.98976171875,1.0476000308990479,-0.601099967956543,9.731900215148926
1682998634775761700,25.00976171875,1.045799970626831,-0.6141999959945679,9.73129940032959
1682998634795761700,25.02976171875,1.046199917793274,-0.6195999979972839,9.730899810791016
1682998634815761700,25.04976171875,1.0411999225616455,-0.6229999661445618,9.731200218200684
1682998634835761700,25.06976171875,1.034999966621399,-0.623699963092804,9.731900215148926
1682998634855761700,25.08976171875,1.0379999876022339,-0.6270999908447266,9.73129940032959
1682998634875761700,25.10976171875,1.049299955368042,-0.6347000002861023,9.729599952697754
1682998634895761700,25.12976171875,1.0555000305175781,-0.6469999551773071,9.728099822998047
1682998634915761700,25.14976171875,1.0539000034332275,-0.6678999662399292,9.726900100708008
1682998634935761700,25.16976171875,1.0499999523162842,-0.6958000063896179,9.7253999710083
1682998634955761700,25.18976171875,1.0508999824523926,-0.7233999967575073,9.723199844360352
1682998634975763200,25.20976318359375,1.0601999759674072,-0.7439999580383301,9.720699310302734
1682998634995761700,25.22976171875,1.076200008392334,-0.7605999708175659,9.717599868774414
1682998635015761700,25.24976171875,1.086899995803833,-0.7822999954223633,9.714699745178223
1682998635035761700,25.26976171875,1.0907999277114868,-0.8101999759674072,9.711999893188477
1682998635055761700,25.28976171875,1.0864999294281006,-0.8366999626159668,9.710199356079102
1682998635075761700,25.30976171875,1.0787999629974365,-0.8545999526977539,9.70949935913086
1682998635095761700,25.32976171875,1.0756999254226685,-0.8509999513626099,9.710199356079102
1682998635115761700,25.34976171875,1.0901999473571777,-0.8173999786376953,9.71150016784668
1682998635135761700,25.36976171875,1.1187999248504639,-0.7662000060081482,9.71239948272705
1682998635155761700,25.38976171875,1.1502000093460083,-0.738599956035614,9.710899353027344
1682998635175772700,25.409772705078126,1.1780999898910522,-0.7421000003814697,9.707200050354004
1682998635195761700,25.42976171875,1.1761000156402588,-0.7720999717712402,9.7052001953125
1682998635215761700,25.44976171875,1.1764999628067017,-0.7997999787330627,9.702899932861328
1682998635235761700,25.46976171875,1.1841999292373657,-0.7945999503135681,9.702300071716309
1682998635255761700,25.48976171875,1.1835999488830566,-0.7775999903678894,9.703800201416016
1682998635275761700,25.50976171875,1.1787999868392944,-0.7727999687194824,9.70479965209961
1682998635295761700,25.52976171875,1.1607999801635742,-0.7680999636650085,9.707300186157227
1682998635315761700,25.54976171875,1.1304999589920044,-0.739799976348877,9.713099479675293
1682998635335761700,25.56976171875,1.125,-0.6816999912261963,9.717999458312988
1682998635355761700,25.58976171875,1.143899917602539,-0.6261999607086182,9.719499588012695
1682998635375761700,25.60976171875,1.1632000207901,-0.6003000140190125,9.718799591064453
1682998635395761700,25.62976171875,1.147499918937683,-0.5995000004768372,9.720799446105957
1682998635415761700,25.64976171875,1.1061999797821045,-0.6182000041007996,9.72439956665039
1682998635435761700,25.66976171875,1.073799967765808,-0.6412000060081482,9.726499557495117
1682998635455761700,25.68976171875,1.0655999183654785,-0.6627999544143677,9.72599983215332
1682998635475761700,25.70976171875,1.059999942779541,-0.6811999678611755,9.725299835205078
1682998635495761700,25.72976171875,1.0465999841690063,-0.6931999921798706,9.725899696350098
1682998635515761700,25.74976171875,1.0311999320983887,-0.7081999778747559,9.726499557495117
1682998635535761700,25.76976171875,1.0206999778747559,-0.7271999716758728,9.726200103759766
1682998635555761700,25.78976171875,1.013100028038025,-0.7479000091552734,9.7253999710083
1682998635575761700,25.80976171875,1.0024999380111694,-0.7681999802589417,9.724899291992188
1682998635595761700,25.82976171875,0.9957999587059021,-0.7879999876022339,9.723999977111816
1682998635615761700,25.84976171875,0.9985999464988708,-0.8065999746322632,9.722199440002441
1682998635635760000,25.869760009765624,1.0023000240325928,-0.8288999795913696,9.719999313354492
1682998635655761700,25.88976171875,1,-0.8543999791145325,9.717999458312988
1682998635675772700,25.909772705078126,0.9918999671936035,-0.8776999711990356,9.716699600219727
1682998635695761700,25.92976171875,0.9770999550819397,-0.8934999704360962,9.71679973602295
1682998635715761700,25.94976171875,0.9514999985694885,-0.902899980545044,9.718500137329102
1682998635735761700,25.96976171875,0.9289999604225159,-0.898099958896637,9.721099853515625
1682998635755761700,25.98976171875,0.939300000667572,-0.8794999718666077,9.721799850463867
1682998635775761700,26.00976171875,0.9758999943733215,-0.8543999791145325,9.720399856567383
1682998635795761700,26.02976171875,1.0029000043869019,-0.8423999547958374,9.71869945526123
1682998635815761700,26.04976171875,0.9868999719619751,-0.8563999533653259,9.719099998474121
1682998635835761700,26.06976171875,0.9551999568939209,-0.8761000037193298,9.720600128173828
1682998635855761700,26.08976171875,0.94159996509552,-0.8707000017166138,9.722399711608887
1682998635875761700,26.10976171875,0.9454999566078186,-0.8453999757766724,9.724199295043945
1682998635895761700,26.12976171875,0.9745000004768372,-0.8122999668121338,9.724199295043945
1682998635915761700,26.14976171875,1.007699966430664,-0.7639999985694885,9.724699974060059
1682998635935761700,26.16976171875,1.036199927330017,-0.7008000016212463,9.726499557495117
1682998635955761700,26.18976171875,1.0519999265670776,-0.6439999938011169,9.728699684143066
1682998635975761700,26.20976171875,1.0570999383926392,-0.6042999625205994,9.73069953918457
1682998635995761700,26.22976171875,1.0549999475479126,-0.5679999589920044,9.733099937438965
1682998636015761700,26.24976171875,1.0572999715805054,-0.5216999650001526,9.735499382019043
1682998636035761700,26.26976171875,1.0721999406814575,-0.47119998931884766,9.73639965057373
