time,seconds_elapsed,z,y,x,,,,z,y,x,,,t,z,y,x
1.683E+18,0.049763184,-0.650999963,0.362299979,-0.15079999,,,,9.35929966,-0.107299998,2.926100016,,,1,8.708299696,0.25499998,2.775300026
1.683E+18,0.069761719,-0.650999963,0.362299979,-0.15079999,,,,9.35929966,-0.107299998,2.926100016,,,2,8.708299696,0.25499998,2.775300026
1.683E+18,0.089761719,-0.110199995,0.056199998,-0.395199984,,,,2.610899925,-1.33099997,9.358399391,,,3,2.50069993,-1.274799973,8.963199407
1.683E+18,0.109761719,-0.171999991,-0.067299999,-0.072899997,,,,2.604099989,-1.334900022,9.359799385,,,4,2.432099998,-1.402200021,9.286899388
1.683E+18,0.129763184,-0.293899983,-0.037599999,0.314999998,,,,2.588699818,-1.335199952,9.363999367,,,5,2.294799834,-1.372799952,9.678999364
1.683E+18,0.149761719,-0.252700001,0.066,0.585799992,,,,2.57679987,-1.331099987,9.367899895,,,6,2.324099869,-1.265099987,9.953699887
1.683E+18,0.169761719,-0.237599999,0.409199983,0.608299971,,,,2.561800003,-1.311399937,9.374799728,,,7,2.324200004,-0.902199954,9.983099699
1.683E+18,0.18976001,-0.555700004,0.319299996,0.451999992,,,,2.5072999,-1.280399919,9.393799782,,,8,1.951599896,-0.961099923,9.845799774
1.683E+18,0.209761719,-0.317699999,0.292199999,0.0307,,,,2.406499863,-1.184599996,9.432600021,,,9,2.088799864,-0.892399997,9.463300021
1.683E+18,0.229761719,-0.0253,0.124599993,0.039000001,,,,2.378900051,-1.065999985,9.453800201,,,10,2.353600051,-0.941399992,9.492800202
1.683E+18,0.249761719,0.209899992,0.064499997,0.286799997,,,,2.398599863,-1.04519999,9.451099396,,,11,2.608499855,-0.980699994,9.737899393
1.683E+18,0.269761719,0.205599993,0.282599986,0.1963,,,,2.451900005,-0.988599956,9.443499565,,,12,2.657499999,-0.70599997,9.639799565
1.683E+18,0.289763184,-0.463399976,0.300500005,0.438499987,,,,2.463999987,-0.928199947,9.446499825,,,13,2.00060001,-0.627699941,9.884999812
1.683E+18,0.309763184,-0.190599993,-0.146300003,0.241099998,,,,2.475600004,-0.883300006,9.447799683,,,14,2.285000011,-1.029600009,9.688899681
1.683E+18,0.329761719,0.045199998,0.230999991,-0.189799994,,,,2.465199947,-0.809599996,9.457099915,,,15,2.510399945,-0.578600004,9.26729992
1.683E+18,0.349763184,0.0502,-0.1259,-0.608200014,,,,2.430799961,-0.717399955,9.473400116,,,16,2.480999961,-0.843299955,8.865200102
1.683E+18,0.369763184,0.43629998,-0.077799998,-0.966199994,,,,2.417399883,-0.69690001,9.47840023,,,17,2.853699863,-0.774700008,8.512200236
1.683E+18,0.389761719,-0.180399999,0.193299994,-0.83859998,,,,2.377099991,-0.703199983,9.488100052,,,18,2.196699992,-0.509899989,8.649500072
1.683E+18,0.409772705,-0.301999986,-0.113299996,-0.45479998,,,,2.332000017,-0.739799976,9.496500015,,,19,2.030000031,-0.853099972,9.041700035
1.683E+18,0.429763184,-0.445899993,-0.057099998,0.606400013,,,,2.240499973,-0.796000004,9.513999939,,,20,1.79459998,-0.853100002,10.12039995
1.683E+18,0.449763184,-0.161599994,-0.0559,0.717399955,,,,2.181699991,-0.87559998,9.520599365,,,21,2.020099998,-0.93149998,10.23799932
1.683E+18,0.46976001,-0.131799996,0.637899995,0.172299996,,,,2.171599865,-0.941899955,9.516599655,,,22,2.039799869,-0.30399996,9.688899651
1.683E+18,0.489763184,-0.613299966,0.279100001,0.370599985,,,,2.152999878,-1.004799962,9.514399529,,,23,1.539699912,-0.725699961,9.884999514
1.683E+18,0.509761719,-0.267800003,0.845399976,0.233399987,,,,2.131099939,-1.05129993,9.514299393,,,24,1.863299936,-0.205899954,9.74769938
1.683E+18,0.529761719,0.030199999,-0.613699973,0.225199997,,,,2.078099966,-1.082700014,9.522500038,,,25,2.108299965,-1.696399987,9.747700036
1.683E+18,0.54976001,-0.080799997,-0.318899989,0.040100001,,,,2.05189991,-1.142199993,9.521299362,,,26,1.971099913,-1.461099982,9.561399363
1.683E+18,0.56976001,0.575699985,1.324599981,-1.091099977,,,,2.072000027,-1.157899976,9.51499939,,,27,2.647700012,0.166700006,8.423899412
1.683E+18,0.589761719,0.981999993,-0.0095,-0.38319999,,,,2.097199917,-1.206499934,9.503399849,,,28,3.07919991,-1.215999934,9.120199859
1.683E+18,0.609761719,0.33069998,0.429699987,0.0546,,,,2.101199865,-1.322099924,9.487099648,,,29,2.431899846,-0.892399937,9.541699648
1.683E+18,0.62976001,-0.403799981,0.16399999,0.326999992,,,,2.051300049,-1.448599935,9.479599953,,,30,1.647500068,-1.284599945,9.806599945
1.683E+18,0.649763184,-1.071099997,-0.421499997,0.835099995,,,,1.943899989,-1.578999996,9.481399536,,,31,0.872799993,-2.000499994,10.31649953
1.683E+18,0.669763184,0.300899982,0.031799998,0.499599993,,,,1.905499935,-1.669499993,9.47369957,,,32,2.206399918,-1.637699995,9.973299563
1.683E+18,0.689761719,1.648899913,0.268099993,-0.029199999,,,,1.969699979,-1.709699988,9.453399658,,,33,3.618599892,-1.441599995,9.424199659
1.683E+18,0.709761719,1.426999927,0.658599973,-0.0592,,,,2.063999891,-1.756999969,9.424499512,,,34,3.490999818,-1.098399997,9.365299512
1.683E+18,0.729761719,0.679699957,-0.0115,0.2755,,,,2.085700035,-1.841899991,9.403499603,,,35,2.765399992,-1.853399991,9.678999603
1.683E+18,0.749761719,-0.114399999,-0.801599979,0.559899986,,,,2.036499977,-1.944099903,9.393699646,,,36,1.922099978,-2.745699883,9.953599632
1.683E+18,0.769761719,-0.459499985,-0.138799995,-0.176100001,,,,2.009000063,-1.969599962,9.394399643,,,37,1.549500078,-2.108399957,9.218299642
1.683E+18,0.789761719,0.0252,0.486499995,-0.659699976,,,,2.043900013,-1.918299913,9.397399902,,,38,2.069100013,-1.431799918,8.737699926
1.683E+18,0.809763184,0.478899986,-0.114299998,0.41049999,,,,2.07069993,-1.895999908,9.396100044,,,39,2.549599916,-2.010299906,9.806600034
1.683E+18,0.829761719,0.496600002,-0.373899996,1.11619997,,,,2.082499981,-1.881500006,9.396399498,,,40,2.579099983,-2.255400002,10.51259947
1.683E+18,0.849761719,0.386099994,-0.328799993,0.806699991,,,,2.10469985,-1.828499913,9.401899338,,,41,2.490799844,-2.157299906,10.20859933
1.683E+18,0.869761719,0.116599999,-0.0065,0.627699971,,,,2.109400034,-1.75849998,9.414199829,,,42,2.226000033,-1.76499998,10.0418998
1.683E+18,0.889761719,-0.223499998,-0.259299994,0.787,,,,2.086699963,-1.692099929,9.431399345,,,43,1.863199964,-1.951399922,10.21839935
1.683E+18,0.909775635,0.029299999,-0.216099992,0.565899968,,,,2.069200039,-1.627499938,9.44659996,,,44,2.098500038,-1.84359993,10.01249993
1.683E+18,0.929763184,0.1426,0.028899999,0.50729996,,,,2.063799858,-1.578400016,9.45609951,,,45,2.206399858,-1.549500016,9.96339947
1.683E+18,0.949761719,0.301599979,0.097399995,0.729099989,,,,2.061699867,-1.558599949,9.459899902,,,46,2.363299847,-1.461199954,10.18899989
1.683E+18,0.969761719,0.281499982,-0.0276,0.860899985,,,,2.072000027,-1.570799947,9.455599785,,,47,2.353500009,-1.598399946,10.31649977
1.683E+18,0.989763184,0.112599999,0.259599984,-0.065399997,,,,2.093799829,-1.573699951,9.450300217,,,48,2.206399828,-1.314099967,9.38490022
1.683E+18,1.009761719,-0.0045,0.117199995,-0.0603,,,,2.112900019,-1.578400016,9.445300102,,,49,2.108400019,-1.461200021,9.385000102
1.683E+18,1.029761719,-0.266900003,0.263599992,-0.233699992,,,,2.120300055,-1.587499976,9.442099571,,,50,1.853400052,-1.323899984,9.208399579
1.683E+18,1.049763184,-0.342199981,0.168300003,-0.518299997,,,,2.117199898,-1.590299964,9.442299843,,,51,1.774999917,-1.421999961,8.923999846
1.683E+18,1.069763184,-0.161899999,0.085699998,-0.528499961,,,,2.103600025,-1.605700016,9.442799568,,,52,1.941700026,-1.520000018,8.914299607
1.683E+18,1.089766357,0.3759,0.118899994,-0.301299989,,,,2.085399866,-1.638899922,9.441100121,,,53,2.461299866,-1.519999929,9.139800131
1.683E+18,1.109763184,0.774699986,0.097999997,-0.0317,,,,2.069099903,-1.686699986,9.436299324,,,54,2.843799889,-1.588699989,9.404599324
1.683E+18,1.129761719,0.637799978,0.0251,-0.200199991,,,,2.068699837,-1.73149991,9.428199768,,,55,2.706499815,-1.70639991,9.227999777
1.683E+18,1.149761719,0.699699998,0.709399998,-0.243299991,,,,2.055799961,-1.778299928,9.422299385,,,56,2.755499959,-1.06889993,9.178999394
1.683E+18,1.169761719,0.810000002,0.171399996,-0.287,,,,2.05340004,-1.809099913,9.416999817,,,57,2.863400042,-1.637699917,9.129999816
1.683E+18,1.189761719,0.889499962,0.358899981,-0.224399999,,,,2.052399874,-1.829899907,9.413199425,,,58,2.941899836,-1.470999926,9.188799426
1.683E+18,1.209761719,0.8847,0.59920001,0.208799988,,,,2.047399998,-1.844699979,9.411399841,,,59,2.932099998,-1.245499969,9.620199829
1.683E+18,1.229761719,0.675399959,0.648599982,0.146499991,,,,2.031100035,-1.844999909,9.41479969,,,60,2.706499994,-1.196399927,9.561299682
1.683E+18,1.249761719,0.543799996,0.683200002,0.177499995,,,,2.005800009,-1.830500007,9.423099518,,,61,2.549600005,-1.147300005,9.600599512
1.683E+18,1.269761719,0.629700005,0.685299993,0.395999998,,,,1.988599896,-1.81309998,9.430099487,,,62,2.618299901,-1.127799988,9.826099485
1.683E+18,1.289761719,0.624799967,0.862100005,0.395199984,,,,1.964100003,-1.78399992,9.440799713,,,63,2.58889997,-0.921899915,9.835999697
1.683E+18,1.309761719,0.1514,0.96239996,0.3398,,,,1.888299942,-1.727399945,9.466799736,,,64,2.039699942,-0.764999986,9.806599736
1.683E+18,1.329761719,0.129500002,0.93779999,0.147499993,,,,1.772899985,-1.653699994,9.502200127,,,65,1.902399987,-0.715900004,9.64970012
1.683E+18,1.349763184,0.38409999,0.755400002,0.082699999,,,,1.655599952,-1.569399953,9.537599564,,,66,2.039699942,-0.813999951,9.620299563
1.683E+18,1.369764648,0.492599994,0.717899978,0.053799998,,,,1.556800008,-1.492699981,9.56649971,,,67,2.049400002,-0.774800003,9.620299708
1.683E+18,1.389761719,0.377700001,0.612199962,0.518099964,,,,1.45599997,-1.426100016,9.592499733,,,68,1.833699971,-0.813900054,10.1105997
1.683E+18,1.40977417,0.0548,0.574400008,1.176199913,,,,1.327899933,-1.358899951,9.620800018,,,69,1.382699933,-0.784499943,10.79699993
1.683E+18,1.429763184,-0.400700003,0.540199995,1.049299955,,,,1.214599967,-1.256099939,9.649700165,,,70,0.813899964,-0.715899944,10.69900012
1.683E+18,1.449763184,-0.451899976,-0.171499997,1.440099955,,,,1.148199916,-1.1523,9.670700073,,,71,0.69629994,-1.323799998,11.11080003
1.683E+18,1.469761719,0.033,-0.386799991,1.492499948,,,,1.094599962,-1.064399958,9.686999321,,,72,1.127599962,-1.451199949,11.17949927
1.683E+18,1.489761719,0.47329998,-0.019199999,1.441200018,,,,1.046599984,-1.00059998,9.699099541,,,73,1.519899964,-1.019799979,11.14029956
1.683E+18,1.509761719,0.443099976,0.301299989,0.648299992,,,,1.018000007,-0.948499978,9.707399368,,,74,1.461099982,-0.647199988,10.35569936
1.683E+18,1.529761719,0.115800001,-0.031999998,0.043199997,,,,1.021600008,-0.870099962,9.714300156,,,75,1.137400009,-0.90209996,9.757500153
1.683E+18,1.549761719,0.224199995,-0.953999996,0.445899993,,,,1.021099925,-0.761999965,9.723499298,,,76,1.24529992,-1.715999961,10.16939929
1.683E+18,1.569761719,0.110199995,-1.227100015,1.662599921,,,,1.007699966,-0.655699968,9.732600212,,,77,1.117899962,-1.882799983,11.39520013
1.683E+18,1.589761719,0.19749999,-1.275200009,1.495199919,,,,0.969399989,-0.548799992,9.743100166,,,78,1.166899979,-1.824000001,11.23830009
1.683E+18,1.609761719,0.168599993,-1.173300028,0.214499995,,,,0.968899965,-0.434899986,9.74889946,,,79,1.137499958,-1.608200014,9.963399455
1.683E+18,1.629761719,0.278299987,-0.967899978,-0.304499984,,,,1.006199956,-0.35589999,9.748299599,,,80,1.284499943,-1.323799968,9.443799615
1.683E+18,1.649761719,0.165999994,-1.015799999,-0.085499994,,,,1.049899936,-0.317799985,9.744999886,,,81,1.215899929,-1.333599985,9.659499891
1.683E+18,1.669761719,-0.094999999,-0.510899961,-0.074199997,,,,1.075600028,-0.273499995,9.743599892,,,82,0.980600029,-0.784399956,9.669399895
1.683E+18,1.689761719,-0.468499988,-0.593299985,-0.194199994,,,,1.066699982,-0.220599994,9.745900154,,,83,0.598199993,-0.813899979,9.55170016
1.683E+18,1.709761719,-0.863499999,-0.40959999,-0.814899981,,,,1.049799919,-0.168899998,9.748799324,,,84,0.18629992,-0.578499988,8.933899343
1.683E+18,1.729761719,-0.709999979,-0.457699984,-1.109300017,,,,1.053300023,-0.13059999,9.748999596,,,85,0.343300045,-0.588299975,8.639699578
1.683E+18,1.749761719,-0.537899971,-0.484499991,-0.981599987,,,,1.057699919,-0.113600001,9.748700142,,,86,0.519799948,-0.598099992,8.767100155
1.683E+18,1.769761719,-0.539499998,-0.452299982,-1.196099997,,,,1.069000006,-0.116399996,9.747499466,,,87,0.529500008,-0.568699978,8.551399469
1.683E+18,1.789761719,-0.946799994,-0.561800003,-1.684499979,,,,1.083999991,-0.134299994,9.745599747,,,88,0.137199998,-0.696099997,8.061099768
1.683E+18,1.809761719,-0.652499974,-0.928599954,-1.307799935,,,,1.113399982,-0.179499999,9.741499901,,,89,0.460900009,-1.108099952,8.433699965
1.683E+18,1.829761719,0.557999969,-0.570199966,-0.868299961,,,,1.167899966,-0.253399998,9.733499527,,,90,1.725899935,-0.823599964,8.865199566
1.683E+18,1.849761719,0.550799966,0.17899999,-1.010299921,,,,1.20449996,-0.277099997,9.72840023,,,91,1.755299926,-0.098100007,8.718100309
1.683E+18,1.869761719,0.231899992,0.152500004,-0.662799954,,,,1.16049993,-0.270199984,9.73390007,,,92,1.392399922,-0.117699981,9.071100116
1.683E+18,1.889761719,-0.091399997,-0.211199999,-0.390699983,,,,1.052399993,-0.269199997,9.746199608,,,93,0.960999995,-0.480399996,9.355499625
1.683E+18,1.909772705,-0.959699988,0.158899993,-0.551199973,,,,0.92049998,-0.266799986,9.759699821,,,94,-0.039200008,-0.107899994,9.208499849
1.683E+18,1.929761719,-1.294099927,0.382099986,-1.167599916,,,,0.833199978,-0.244799986,9.768099785,,,95,-0.460899949,0.1373,8.600499868
1.683E+18,1.949761719,-0.840900004,-0.039299998,-1.002399921,,,,0.821199954,-0.225299999,9.769499779,,,96,-0.01970005,-0.264599998,8.767099857
1.683E+18,1.969761719,-0.123499997,0.420100003,-0.80219996,,,,0.868799984,-0.223999992,9.765500069,,,97,0.745299987,0.196100011,8.963300109
1.683E+18,1.989761719,0.0691,0.307199985,-0.323499978,,,,0.950699985,-0.238499999,9.757499695,,,98,1.019799985,0.068699986,9.433999717
1.683E+18,2.009761719,-0.0207,0.215499997,0.0107,,,,1.050400019,-0.254799992,9.746899605,,,99,1.029700018,-0.039299995,9.757599604
1.683E+18,2.029761719,0.196999997,0.204099998,0.481099993,,,,1.215099931,-0.262999982,9.727499962,,,100,1.412099928,-0.058899984,10.20859995
1.683E+18,2.049761719,1.234699965,0.966099977,0.613699973,,,,1.462000012,-0.279599994,9.69299984,,,101,2.696699977,0.686499983,10.30669981
1.683E+18,2.069761719,1.383399963,0.889199972,0.894099951,,,,1.725199938,-0.330199987,9.647999763,,,102,3.108599901,0.558999985,10.54209971
1.683E+18,2.089761719,-0.635299981,-0.0061,1.906699896,,,,1.831699967,-0.395899981,9.625899315,,,103,1.196399987,-0.401999981,11.53259921
1.683E+18,2.109761719,-0.878499985,1.292299986,2.086199999,,,,1.888599992,-0.439099997,9.612999916,,,104,1.010100007,0.853199989,11.69919991
1.683E+18,2.129761719,0.067400001,1.608999968,1.886099935,,,,2.001699924,-0.491099983,9.587499619,,,105,2.069099925,1.117899984,11.47359955
1.683E+18,2.149761719,0.620000005,0.107599996,1.605499983,,,,2.106099844,-0.509599984,9.564199448,,,106,2.726099849,-0.401999988,11.16969943
1.683E+18,2.169761719,0.992699981,-0.570499957,1.990700006,,,,2.164900064,-0.498299986,9.551599503,,,107,3.157600045,-1.068799943,11.54229951
1.683E+18,2.189761719,1.492699981,-0.388799995,2.349400043,,,,2.223999977,-0.532899976,9.53619957,,,108,3.716699958,-0.921699971,11.88559961
1.683E+18,2.209761719,1.648800015,0.0083,2.028499842,,,,2.342399836,-0.596700013,9.50399971,,,109,3.991199851,-0.588400013,11.53249955
1.683E+18,2.229761719,0.795799971,-0.894699991,1.912699938,,,,2.440299988,-0.693799973,9.472700119,,,110,3.236099958,-1.588499963,11.38540006
1.683E+18,2.249761719,0.142499998,0.036599997,0.545799971,,,,2.514999866,-0.772099972,9.447099686,,,111,2.657499865,-0.735499974,9.992899656
1.683E+18,2.269761719,-0.398900002,-0.156299993,-0.557299972,,,,2.59559989,-0.804699957,9.422599792,,,112,2.196699888,-0.960999951,8.865299821
1.683E+18,2.289761719,-0.147,-0.779599965,-0.415199995,,,,2.706499815,-0.838400006,9.388299942,,,113,2.559499815,-1.617999971,8.973099947
1.683E+18,2.309761719,0.244599998,-1.014500022,0.622399986,,,,2.785599947,-0.887899995,9.360599518,,,114,3.030199945,-1.902400017,9.982999504
1.683E+18,2.329761719,-0.011899999,-0.985799968,1.173900008,,,,2.806799889,-0.94599998,9.348599434,,,115,2.794899889,-1.931799948,10.52249944
1.683E+18,2.349761719,-0.35769999,-0.996499956,0.350899994,,,,2.828999996,-0.984299958,9.337900162,,,116,2.471300006,-1.980799913,9.688800156
1.683E+18,2.369761719,0.0079,-1.131500006,-0.701399982,,,,2.875200033,-1.006199956,9.321499825,,,117,2.883100033,-2.137699962,8.620099843
1.683E+18,2.389761719,0.352599978,-1.054700017,-0.961199999,,,,2.912899971,-1.03399992,9.306699753,,,118,3.265499949,-2.088699937,8.345499754
1.683E+18,2.409772705,-0.093999997,-0.973800004,-0.969999969,,,,2.908499956,-1.055999994,9.305600166,,,119,2.814499959,-2.029799998,8.335600197
1.683E+18,2.429761719,-0.625400007,-0.707799971,-1.398999929,,,,2.881000042,-1.067099929,9.31289959,,,120,2.255600035,-1.7748999,7.91389966
1.683E+18,2.449761719,-0.825699985,-0.529100001,-1.55250001,,,,2.855700016,-1.079100013,9.319299698,,,121,2.030000031,-1.608200014,7.766799688
1.683E+18,2.469761719,-0.696999967,-0.477599978,-1.193400025,,,,2.834800005,-1.101199985,9.32310009,,,122,2.137800038,-1.578799963,8.129700065
1.683E+18,2.489761719,-0.397799999,-0.241599992,-0.98149997,,,,2.810199976,-1.131199956,9.326999664,,,123,2.412399977,-1.372799948,8.345499694
1.683E+18,2.509761719,-0.020399999,-0.16139999,-0.801599979,,,,2.776000023,-1.162400007,9.333399773,,,124,2.755600024,-1.323799998,8.531799793
1.683E+18,2.529761719,0.079999998,-0.049599998,-0.861499965,,,,2.724599838,-1.19569993,9.344299316,,,125,2.804599836,-1.245299928,8.482799351
1.683E+18,2.549761719,-0.156499997,-0.197699994,-0.647599995,,,,2.666999817,-1.233999968,9.355899811,,,126,2.51049982,-1.431699961,8.708299816
1.683E+18,2.569761719,0.0028,-0.885100007,-0.092599995,,,,2.635099888,-1.272300005,9.359799385,,,127,2.637899888,-2.157400012,9.26719939
1.683E+18,2.589761719,0.298799992,0.515799999,-0.617399991,,,,2.633299828,-1.310099959,9.355099678,,,128,2.932099819,-0.79429996,8.737699687
1.683E+18,2.609761719,0.272499979,0.2139,-0.770799994,,,,2.639899969,-1.321999907,9.351599693,,,129,2.912399948,-1.108099908,8.580799699
1.683E+18,2.629761719,0.541599989,1.021399975,-1.754899979,,,,2.625799894,-1.325399995,9.355099678,,,130,3.167399883,-0.30400002,7.600199699
1.683E+18,2.649761719,0.924099982,-0.20539999,0.492199987,,,,2.586499929,-1.343999982,9.363399506,,,131,3.510599911,-1.549399972,9.855599493
1.683E+18,2.669761719,-0.0757,1.718899965,0.014,,,,2.537199974,-1.316799998,9.380700111,,,132,2.461499974,0.402099967,9.394700111
1.683E+18,2.689761719,-0.549099982,1.54369998,0.229699999,,,,2.530099869,-1.259299994,9.390500069,,,133,1.980999887,0.284399986,9.620200068
1.683E+18,2.709761719,0.29429999,1.106599927,1.282799959,,,,2.520099878,-1.234099984,9.39659977,,,134,2.814399868,-0.127500057,10.67939973
1.683E+18,2.729761719,1.391799927,0.408899993,1.832699895,,,,2.491499901,-1.222899914,9.405599594,,,135,3.883299828,-0.813999921,11.23829949
1.683E+18,2.749761719,1.693699956,0.353699982,1.404299974,,,,2.473999977,-1.206799984,9.41230011,,,136,4.167699933,-0.853100002,10.81660008
1.683E+18,2.769761719,0.936699986,0.057299998,1.263499975,,,,2.475899935,-1.175300002,9.415800095,,,137,3.412599921,-1.118000004,10.67930007
1.683E+18,2.789761719,0.698799968,-0.603399992,2.037400007,,,,2.488299847,-1.142099977,9.416600227,,,138,3.187099814,-1.745499969,11.45400023
1.683E+18,2.809761719,1.144699931,-0.994599998,3.068300009,,,,2.463999987,-1.12349999,9.425299644,,,139,3.608699918,-2.118099988,12.49359965
1.683E+18,2.829761719,1.75759995,-1.038200021,3.350600004,,,,2.419999838,-1.119199991,9.437199593,,,140,4.177599788,-2.157400012,12.7877996
1.683E+18,2.849761719,2.065999985,-0.625,3.11529994,,,,2.376299858,-1.130299926,9.446899414,,,141,4.442299843,-1.755299926,12.56219935
1.683E+18,2.869761719,1.291700006,0.096799999,1.290599942,,,,2.366099834,-1.146099925,9.447599411,,,142,3.65779984,-1.049299926,10.73819935
1.683E+18,2.889761719,-0.039299998,0.254399985,-0.098499998,,,,2.422399998,-1.136999965,9.434399605,,,143,2.383099999,-0.88259998,9.335899606
1.683E+18,2.909772705,-1.246699929,-0.49969998,0.532899976,,,,2.4921,-1.098699927,9.420800209,,,144,1.245400071,-1.598399907,9.953700185
1.683E+18,2.929761719,-1.68809998,-1.406099916,1.538399935,,,,2.502099991,-1.035599947,9.425299644,,,145,0.81400001,-2.441699862,10.96369958
1.683E+18,2.949761719,-1.448899984,-2.010499954,1.374599934,,,,2.468699932,-0.960799992,9.441999435,,,146,1.019799948,-2.971299946,10.81659937
1.683E+18,2.969761719,-0.532000005,-1.933799982,-0.0187,,,,2.454099894,-0.890399992,9.452699661,,,147,1.922099888,-2.824199975,9.433999661
1.683E+18,2.989761719,0.062699996,-1.707399964,-0.664399981,,,,2.477099895,-0.842199981,9.451099396,,,148,2.539799891,-2.549599946,8.786699414
1.683E+18,3.009761719,-0.24939999,-1.449699998,-0.931299984,,,,2.514799833,-0.815499961,9.443499565,,,149,2.265399843,-2.265199959,8.512199581
1.683E+18,3.029761719,-1.095499992,-1.394500017,-1.250999928,,,,2.536999941,-0.792299986,9.439499855,,,150,1.441499949,-2.186800003,8.188499928
1.683E+18,3.049761719,-1.652799964,-1.294399977,-1.459599972,,,,2.535399914,-0.764899969,9.442199707,,,151,0.88259995,-2.059299946,7.982599735
1.683E+18,3.069761719,-1.75150001,-1.08829999,-1.6401999,,,,2.526199818,-0.745399952,9.446299553,,,152,0.774699807,-1.833699942,7.806099653
1.683E+18,3.089761719,-2.112999916,-0.752900004,-1.660699964,,,,2.52489996,-0.737599969,9.447199821,,,153,0.411900043,-1.490499973,7.786499858
1.683E+18,3.109761719,-2.401399851,-0.346199989,-1.678900003,,,,2.528899908,-0.742299974,9.445799828,,,154,0.127500057,-1.088499963,7.766899824
1.683E+18,3.129761719,-2.148900032,-0.0071,-1.778499961,,,,2.521600008,-0.747900009,9.447299957,,,155,0.372699976,-0.755000009,7.668799996
1.683E+18,3.149761719,-1.453400016,0.093800001,-1.628999949,,,,2.492899895,-0.750799954,9.454699516,,,156,1.039499879,-0.656999953,7.825699568
1.683E+18,3.169761719,-0.938999951,0.192299992,-1.532499909,,,,2.449300051,-0.751199961,9.465999603,,,157,1.5103001,-0.558899969,7.933499694
1.683E+18,3.189761719,-0.442599982,0.199000001,-1.465899944,,,,2.404000044,-0.748099983,9.477899551,,,158,1.961400062,-0.549099982,8.011999607
1.683E+18,3.209761719,-0.056399997,0.352699995,-1.100999951,,,,2.370699883,-0.754799962,9.485699654,,,159,2.314299885,-0.402099967,8.384699702
1.683E+18,3.229761719,-0.143099993,0.4102,-0.626699984,,,,2.339799881,-0.773000002,9.49189949,,,160,2.196699888,-0.362800002,8.865199506
1.683E+18,3.249761719,-0.457399994,0.445299983,-0.514899969,,,,2.310899973,-0.788499951,9.497699738,,,161,1.853499979,-0.343199968,8.982799768
1.683E+18,3.269761719,-0.378099978,0.494499981,-0.128199995,,,,2.280599833,-0.808299959,9.503399849,,,162,1.902499855,-0.313799977,9.375199854
1.683E+18,3.289761719,-0.116099998,0.574499965,-0.191599995,,,,2.253999949,-0.82949996,9.507899284,,,163,2.13789995,-0.254999995,9.316299289
1.683E+18,3.309761719,0.060899999,0.504400015,-0.719699979,,,,2.253299952,-0.8477,9.50649929,,,164,2.314199951,-0.343299985,8.786799312
1.683E+18,3.329761719,0.200899988,0.612599969,-0.369800001,,,,2.270200014,-0.877399981,9.499799728,,,165,2.471100003,-0.264800012,9.129999727
1.683E+18,3.349763184,-0.106399998,0.788599968,0.412599981,,,,2.283499956,-0.925899982,9.491999626,,,166,2.177099958,-0.137300014,9.904599607
1.683E+18,3.369761719,-0.715799987,1.058599949,1.152899981,,,,2.284800053,-0.970299959,9.487199783,,,167,1.569000065,0.08829999,10.64009976
1.683E+18,3.389764648,-1.122300029,1.195899963,1.304099917,,,,2.289299965,-0.999799967,9.483099937,,,168,1.166999936,0.196099997,10.78719985
1.683E+18,3.40977417,-1.019099951,0.515699983,1.369499922,,,,2.313599825,-1.005999923,9.476499557,,,169,1.294499874,-0.49029994,10.84599948
1.683E+18,3.429761719,-0.123999998,-0.638899982,2.016599894,,,,2.359899998,-0.988899946,9.466899872,,,170,2.2359,-1.627799928,11.48349977
1.683E+18,3.449761719,1.07980001,-1.558899999,3.40170002,,,,2.411299944,-0.980999947,9.454799652,,,171,3.491099954,-2.539899945,12.85649967
1.683E+18,3.469761719,1.970299959,-1.430899978,5.047999859,,,,2.432800055,-1.010900021,9.446100235,,,172,4.403100014,-2.441799998,14.49410009
1.683E+18,3.489761719,1.013800025,-0.862399995,4.322599888,,,,2.408599854,-1.069399953,9.445899963,,,173,3.422399879,-1.931799948,13.76849985
1.683E+18,3.509761719,-0.469699979,-0.973699987,1.645699978,,,,2.411399841,-1.065999985,9.44549942,,,174,1.941699862,-2.039699972,11.0911994
1.683E+18,3.529761719,-0.783499956,-1.896399975,1.180699944,,,,2.421200037,-1.006199956,9.44960022,,,175,1.637700081,-2.902599931,10.63030016
1.683E+18,3.549761719,0.316699982,-2.364300013,2.124199867,,,,2.409399986,-0.960099995,9.457399368,,,176,2.726099968,-3.324400008,11.58159924
1.683E+18,3.56976001,0.60589999,-2.322999954,2.017199993,,,,2.38499999,-0.932699978,9.466300011,,,177,2.99089998,-3.255699933,11.4835
1.683E+18,3.589761719,0.240499988,-2.222300053,0.337399989,,,,2.34829998,-0.896099985,9.479000092,,,178,2.588799968,-3.118400037,9.816400081
1.683E+18,3.609764648,0.261900008,-2.16689992,-1.407499909,,,,2.326999903,-0.853399992,9.488200188,,,179,2.58889991,-3.020299911,8.080700278
1.683E+18,3.629764648,0.527199984,-1.954099894,-2.289799929,,,,2.336199999,-0.830899954,9.48789978,,,180,2.863399982,-2.784999847,7.198099852
1.683E+18,3.649761719,0.593599975,-1.530399919,-2.450099945,,,,2.358099937,-0.842799962,9.481499672,,,181,2.951699913,-2.37319988,7.031399727
1.683E+18,3.669761719,0.260499984,-1.11469996,-1.920099974,,,,2.347899914,-0.875999987,9.480999947,,,182,2.608399898,-1.990699947,7.560899973
1.683E+18,3.689761719,0.035299998,-0.764599979,-1.52670002,,,,2.298599958,-0.912199974,9.489699364,,,183,2.333899956,-1.676799953,7.962999344
1.683E+18,3.709761719,-0.100400001,-0.485100001,-1.486299992,,,,2.248100042,-0.946500003,9.498399734,,,184,2.147700042,-1.431600004,8.012099743
1.683E+18,3.729761719,0.092,-0.257200003,-1.440199971,,,,2.222300053,-0.978299975,9.501199722,,,185,2.314300053,-1.235499978,8.060999751
1.683E+18,3.749761719,0.469300002,-0.308400005,-1.681299925,,,,2.227399826,-1.005599976,9.497200012,,,186,2.696699828,-1.313999981,7.815900087
1.683E+18,3.769761719,0.574599981,-0.540399969,-1.774999976,,,,2.239799976,-1.01880002,9.492899895,,,187,2.814399958,-1.559199989,7.717899919
1.683E+18,3.789761719,0.616299987,-0.757499993,-1.568799973,,,,2.237400055,-1.027199984,9.492499352,,,188,2.853700042,-1.784699976,7.923699379
1.683E+18,3.809761719,0.85589999,-0.636099994,-1.178300023,,,,2.223199844,-1.040799975,9.494400024,,,189,3.079099834,-1.67689997,8.316100001
1.683E+18,3.829761719,0.976399958,-0.4745,-0.805899978,,,,2.210700035,-1.065099955,9.494599342,,,190,3.187099993,-1.539599955,8.688699365
1.683E+18,3.849761719,1.042400002,-0.2183,-1.056800008,,,,2.21329999,-1.095700026,9.490499496,,,191,3.255699992,-1.314000025,8.433699489
1.683E+18,3.869761719,1.135200024,-0.096699998,-1.149699926,,,,2.218600035,-1.129099965,9.4854002,,,192,3.353800058,-1.225799963,8.335700274
1.683E+18,3.889761719,0.920299947,0.367899984,-0.840699971,,,,2.217700005,-1.171999931,9.480400085,,,193,3.137999952,-0.804099947,8.639700115
1.683E+18,3.90977417,-0.487999976,0.712199986,-0.16839999,,,,2.213999987,-1.222199917,9.474899292,,,194,1.726000011,-0.509999931,9.306499302
1.683E+18,3.929761719,-1.509299994,1.041700006,0.43599999,,,,2.215399981,-1.26730001,9.468599319,,,195,0.706099987,-0.225600004,9.904599309
1.683E+18,3.949761719,-1.268999934,1.170599937,1.064299941,,,,2.200599909,-1.298099995,9.467899323,,,196,0.931599975,-0.127500057,10.53219926
1.683E+18,3.969761719,0.0189,1.117399931,1.529599905,,,,2.167899847,-1.313599944,9.47329998,,,197,2.186799847,-0.196200013,11.00289989
1.683E+18,3.989761719,1.009799957,0.749799967,1.786999941,,,,2.138099909,-1.308799982,9.480799675,,,198,3.147899866,-0.559000015,11.26779962
1.683E+18,4.009761719,1.469299912,0.434799999,1.691799998,,,,2.119799852,-1.287899971,9.487699509,,,199,3.589099765,-0.853099972,11.17949951
1.683E+18,4.029761719,1.569000006,0.158099994,1.106400013,,,,2.108399868,-1.256399989,9.49450016,,,200,3.677399874,-1.098299995,10.60090017
1.683E+18,4.049761719,1.655599952,-0.0018,0.688499987,,,,2.100299835,-1.223999977,9.500499725,,,201,3.755899787,-1.225799977,10.18899971
1.683E+18,4.06976001,1.559499979,-0.173799992,1.627599955,,,,2.09829998,-1.208899975,9.502900124,,,202,3.657799959,-1.382699966,11.13050008
1.683E+18,4.089761719,0.887799978,-0.095399998,2.662899971,,,,2.073699951,-1.218599916,9.506999969,,,203,2.961499929,-1.313999914,12.16989994
1.683E+18,4.109761719,0.148299992,0.199599996,3.136399984,,,,2.028699875,-1.239099979,9.514100075,,,204,2.176999867,-1.039499983,12.65050006
1.683E+18,4.129761719,-0.15959999,0.457999974,3.007599831,,,,1.973799944,-1.242499948,9.52519989,,,205,1.814199954,-0.784499973,12.53279972
1.683E+18,4.149761719,-0.117599994,0.68629998,1.694499969,,,,1.941599965,-1.225700021,9.533999443,,,206,1.823999971,-0.539400041,11.22849941
1.683E+18,4.169761719,0.061699998,0.479000002,-0.144099995,,,,1.948599935,-1.175300002,9.538899422,,,207,2.010299932,-0.6963,9.394799426
1.683E+18,4.189761719,0.256899983,-0.152999997,-0.422399998,,,,1.978899956,-1.092299938,9.542499542,,,208,2.235799938,-1.245299935,9.120099545
1.683E+18,4.209761719,0.239799991,-0.832899988,0.149700001,,,,1.995999932,-1.000800014,9.548999786,,,209,2.235799924,-1.833700001,9.698699787
1.683E+18,4.229761719,-0.149899989,-1.212700009,0.777999997,,,,1.993599892,-0.915299952,9.558099747,,,210,1.843699902,-2.127999961,10.33609974
1.683E+18,4.249761719,-0.513799965,-1.326599956,0.76730001,,,,1.974999905,-0.840599954,9.568799973,,,211,1.461199939,-2.16719991,10.33609998
1.683E+18,4.269761719,-0.671799958,-1.328299999,0.063299999,,,,1.966299891,-0.770199955,9.576499939,,,212,1.294499934,-2.098499954,9.639799938
1.683E+18,4.289761719,-0.611799955,-1.225499988,-0.792899966,,,,1.974900007,-0.706299961,9.579699516,,,213,1.363100052,-1.931799948,8.78679955
1.683E+18,4.309761719,-0.583799958,-1.100199938,-1.304199934,,,,1.986099958,-0.655099988,9.580999374,,,214,1.4023,-1.755299926,8.27679944
1.683E+18,4.329761719,-0.723399997,-0.882399976,-1.541499972,,,,1.988399982,-0.617900014,9.583000183,,,215,1.264999986,-1.50029999,8.041500211
1.683E+18,4.349761719,-0.961799979,-0.802399993,-1.691799998,,,,1.981599927,-0.59009999,9.586099625,,,216,1.019799948,-1.392499983,7.894299626
1.683E+18,4.369761719,-1.068300009,-0.785299957,-1.656199932,,,,1.970499992,-0.567999959,9.589799881,,,217,0.902199984,-1.353299916,7.933599949
1.683E+18,4.389764648,-0.73299998,-0.702199996,-1.58099997,,,,1.958799958,-0.552899957,9.592999458,,,218,1.225799978,-1.255099952,8.011999488
1.683E+18,4.409775635,-0.326099992,-0.548900008,-1.515499949,,,,1.94419992,-0.549399972,9.596199989,,,219,1.618099928,-1.09829998,8.08070004
1.683E+18,4.429761719,-0.243900001,-0.173999995,-1.225399971,,,,1.920799971,-0.561399996,9.600199699,,,220,1.67689997,-0.735399991,8.374799728
1.683E+18,4.449761719,-0.393999994,0.272799999,-1.130999923,,,,1.894400001,-0.586699963,9.604000092,,,221,1.500400007,-0.313899964,8.473000169
1.683E+18,4.469761719,-0.868599951,0.584999979,-0.773400009,,,,1.859099984,-0.61439997,9.609099388,,,222,0.990500033,-0.029399991,8.835699379
1.683E+18,4.489761719,-1.207399964,0.770799994,-0.9023,,,,1.844799995,-0.63349998,9.610599518,,,223,0.637400031,0.137300014,8.708299518
1.683E+18,4.509761719,-1.015599966,0.654599965,-0.977999985,,,,1.858999968,-0.63499999,9.60779953,,,224,0.843400002,0.019599974,8.629799545
1.683E+18,4.529761719,-0.765599966,0.43689999,-0.819000006,,,,1.87379992,-0.623199999,9.605699539,,,225,1.108199954,-0.186300009,8.786699533
1.683E+18,4.549761719,-0.964699984,-0.116999999,-0.712099969,,,,1.876699924,-0.598800004,9.606699944,,,226,0.911999941,-0.715800002,8.894599974
1.683E+18,4.569761719,-0.658199966,-0.1096,-0.429499984,,,,1.874199986,-0.576799989,9.608499527,,,227,1.216000021,-0.686399989,9.178999543
1.683E+18,4.589761719,-0.436399996,-0.514800012,-0.048999999,,,,1.868199944,-0.563799977,9.610499382,,,228,1.431799948,-1.078599989,9.561499383
1.683E+18,4.609761719,0.049199998,-0.285699993,0.295300007,,,,1.872799993,-0.567399979,9.609399796,,,229,1.921999991,-0.853099972,9.904699802
1.683E+18,4.629761719,0.229099989,-0.225099996,0.699899971,,,,1.879199982,-0.588800013,9.606800079,,,230,2.108299971,-0.813900009,10.30670005
1.683E+18,4.649763184,0.0581,0.170000002,0.9375,,,,1.883599997,-0.611299992,9.604599953,,,231,1.941699997,-0.44129999,10.54209995
1.683E+18,4.669764648,-0.110199995,0.263199985,1.498399973,,,,1.885199904,-0.635899961,9.602700233,,,232,1.774999909,-0.372699976,11.10110021
1.683E+18,4.689761719,-0.276499987,0.261500001,1.87409997,,,,1.894599915,-0.653800011,9.599599838,,,233,1.618099928,-0.39230001,11.47369981
1.683E+18,4.709761719,-0.1118,0.194999993,1.787099957,,,,1.945599914,-0.665799975,9.588600159,,,234,1.833799914,-0.470799983,11.37570012
1.683E+18,4.729761719,0.198100001,-0.0054,2.049700022,,,,2.027899981,-0.671199977,9.571100235,,,235,2.225999981,-0.676599977,11.62080026
1.683E+18,4.749761719,0.310900003,-0.250499994,2.27429986,,,,2.111299992,-0.681100011,9.552399635,,,236,2.422199994,-0.931600004,11.8266995
1.683E+18,4.769761719,0.412299991,-0.346100003,2.225800037,,,,2.196199894,-0.693300009,9.532299995,,,237,2.608499885,-1.039400011,11.75810003
1.683E+18,4.789761719,0.314399987,-0.064099997,2.361500025,,,,2.264699936,-0.720299959,9.514299393,,,238,2.579099923,-0.784399956,11.87579942
1.683E+18,4.809761719,-0.484899998,0.260899991,1.761500001,,,,2.32859993,-0.751199961,9.496399879,,,239,1.843699932,-0.49029997,11.25789988
1.683E+18,4.829761719,-1.155300021,-0.254900008,0.982199967,,,,2.391000032,-0.745299995,9.481399536,,,240,1.235700011,-1.000200003,10.4635995
1.683E+18,4.849761719,-0.670699954,-1.124499917,1.635599971,,,,2.426100016,-0.709199965,9.475199699,,,241,1.755400062,-1.833699882,11.11079967
1.683E+18,4.869761719,0.073100001,-1.615499973,2.553099871,,,,2.417700052,-0.679199994,9.479599953,,,242,2.490800053,-2.294699967,12.03269982
1.683E+18,4.889764648,0.217799991,-1.7845999,2.601099968,,,,2.380899906,-0.657199979,9.490399361,,,243,2.598699898,-2.441799879,12.09149933
1.683E+18,4.909775635,0.052299999,-1.824999928,0.973199964,,,,2.350199938,-0.626599967,9.500199318,,,244,2.402499937,-2.451599896,10.47339928
1.683E+18,4.929761719,0.314500004,-1.795099974,-0.801099956,,,,2.36259985,-0.587799966,9.499599457,,,245,2.677099854,-2.38289994,8.698499501
1.683E+18,4.949761719,0.546799958,-1.885100007,-1.617999911,,,,2.395099878,-0.566500008,9.492699623,,,246,2.941899836,-2.451600015,7.874699712
1.683E+18,4.969761719,0.135199994,-1.760599971,-2.201699972,,,,2.414399862,-0.563499987,9.487999916,,,247,2.549599856,-2.324099958,7.286299944
1.683E+18,4.989761719,-0.529299974,-1.544399977,-2.29489994,,,,2.392499924,-0.573700011,9.492899895,,,248,1.863199949,-2.118099988,7.197999954
1.683E+18,5.009761719,-0.760800004,-1.312399983,-2.080800056,,,,2.339699984,-0.599799991,9.504499435,,,249,1.57889998,-1.912199974,7.423699379
1.683E+18,5.029761719,-0.640399992,-0.979599953,-1.698699951,,,,2.287899971,-0.638399959,9.5145998,,,250,1.647499979,-1.617999911,7.815899849
1.683E+18,5.049761719,-0.607499957,-0.6954,-1.438300014,,,,2.254999876,-0.687299967,9.519000053,,,251,1.647499919,-1.382699966,8.08070004
1.683E+18,5.069761719,-0.471799999,-0.561199963,-1.203799963,,,,2.236999989,-0.733199954,9.519800186,,,252,1.765199989,-1.294399917,8.316000223
1.683E+18,5.089761719,-0.352299988,-0.544799984,-1.031700015,,,,2.205800056,-0.769199967,9.524299622,,,253,1.853500068,-1.313999951,8.492599607
1.683E+18,5.109761719,-0.181899995,-0.428900003,-0.931400001,,,,2.162799835,-0.796799958,9.531899452,,,254,1.980899841,-1.225699961,8.600499451
1.683E+18,5.129761719,-0.070699997,-0.276299983,-0.811399996,,,,2.120300055,-0.821899951,9.539299965,,,255,2.049600057,-1.098199934,8.727899969
1.683E+18,5.149763184,0.096999995,-0.105499998,-0.823699951,,,,2.099599838,-0.845599949,9.541799545,,,256,2.196599834,-0.951099947,8.718099594
1.683E+18,5.169764648,0.1043,0.0116,-0.911799967,,,,2.092299938,-0.864799976,9.541699409,,,257,2.196599938,-0.853199976,8.629899442
1.683E+18,5.189761719,0.229199991,0.17719999,-0.845200002,,,,2.075299978,-0.883300006,9.543700218,,,258,2.304499969,-0.706100017,8.698500216
1.683E+18,5.209761719,0.272799999,0.305299997,-0.779899955,,,,2.051300049,-0.903499961,9.546999931,,,259,2.324100047,-0.598199964,8.767099977
1.683E+18,5.229761719,-0.092799999,0.326099992,-0.665799975,,,,2.024800062,-0.924299955,9.550700188,,,260,1.932000063,-0.598199964,8.884900212
1.683E+18,5.249761719,-0.0986,0.322899997,-0.364199996,,,,2.001100063,-0.950499952,9.553099632,,,261,1.902500063,-0.627599955,9.188899636
1.683E+18,5.269761719,0.126599997,0.397100002,0.182300001,,,,1.972000003,-0.985499978,9.555600166,,,262,2.0986,-0.588399976,9.737900168
1.683E+18,5.289761719,0.358999997,0.530399978,0.797499955,,,,1.93569994,-1.030499935,9.558300018,,,263,2.294699937,-0.500099957,10.35579997
1.683E+18,5.309761719,0.516600013,0.652099967,1.081699967,,,,1.905499935,-1.083599925,9.558400154,,,264,2.422099948,-0.431499958,10.64010012
1.683E+18,5.329761719,0.523299992,0.752699971,0.974599957,,,,1.879199982,-1.135200024,9.557700157,,,265,2.402499974,-0.382500052,10.53230011
1.683E+18,5.349761719,0.36649999,0.704999983,0.955299973,,,,1.849699974,-1.185500026,9.557299614,,,266,2.216199964,-0.480500042,10.51259959
1.683E+18,5.369761719,0.239099994,0.420399994,1.473699927,,,,1.810400009,-1.234300017,9.558699608,,,267,2.049500003,-0.813900024,11.03239954
1.683E+18,5.389761719,0.701200008,0.389299989,2.37409997,,,,1.760199904,-1.291499972,9.560500145,,,268,2.461399913,-0.902199984,11.93460011
1.683E+18,5.409772705,1.280300021,0.635999978,2.912499905,,,,1.700799942,-1.361699939,9.561499596,,,269,2.981099963,-0.725699961,12.4739995
1.683E+18,5.42976001,1.6523,0.792499959,3.168900013,,,,1.652400017,-1.429899931,9.559999466,,,270,3.304700017,-0.637399971,12.72889948
1.683E+18,5.449761719,1.662699938,0.933099985,2.7026999,,,,1.632200003,-1.482299924,9.555500031,,,271,3.29489994,-0.549199939,12.25819993
1.683E+18,5.469761719,1.165699959,1.179199934,1.316100001,,,,1.638899922,-1.512599945,9.549599648,,,272,2.804599881,-0.333400011,10.86569965
1.683E+18,5.489761719,0.337300003,1.110499978,-0.148999989,,,,1.672899961,-1.512499928,9.543700218,,,273,2.010199964,-0.40199995,9.394700229
1.683E+18,5.509761719,-0.253800005,0.191399992,-0.125799999,,,,1.724799991,-1.476099968,9.540200233,,,274,1.470999986,-1.284699976,9.414400235
1.683E+18,5.529761719,-0.472899973,-0.742899954,0.629099965,,,,1.767399907,-1.424299955,9.540299416,,,275,1.294499934,-2.16719991,10.16939938
1.683E+18,5.549761719,-0.558399975,-0.958599985,1.175599933,,,,1.784199953,-1.385100007,9.542900085,,,276,1.225799978,-2.343699992,10.71850002
1.683E+18,5.569761719,-0.231299996,-0.714100003,1.335199952,,,,1.761099935,-1.364799976,9.550099373,,,277,1.529799938,-2.07889998,10.88529932
1.683E+18,5.589761719,0.389399976,-0.661199987,1.412099957,,,,1.718899965,-1.339299917,9.56139946,,,278,2.108299941,-2.000499904,10.97349942
1.683E+18,5.609761719,0.959999979,-0.735899985,0.805199981,,,,1.69749999,-1.303799987,9.570099831,,,279,2.657499969,-2.039699972,10.37529981
1.683E+18,5.629761719,0.664900005,-0.782000005,-0.226899996,,,,1.718099952,-1.257699966,9.572699547,,,280,2.382999957,-2.039699972,9.34579955
1.683E+18,5.649761719,-0.0144,-0.826699972,-1.14989996,,,,1.750199914,-1.203099966,9.573800087,,,281,1.735799914,-2.029799938,8.423900127
1.683E+18,5.669761719,-0.410899997,-0.942799985,-1.750800014,,,,1.773999929,-1.146000028,9.576499939,,,282,1.363099933,-2.088800013,7.825699925
1.683E+18,5.689761719,-0.204099998,-0.862999976,-1.744899988,,,,1.782999992,-1.098199964,9.580399513,,,283,1.578899994,-1.961199939,7.835499525
1.683E+18,5.709761719,0.092,-0.634299994,-1.287299991,,,,1.780900002,-1.072000027,9.58370018,,,284,1.872900002,-1.70630002,8.296400189
1.683E+18,5.729761719,-0.071400002,-0.427899987,-1.397899985,,,,1.777699947,-1.05279994,9.586500168,,,285,1.706299946,-1.480699927,8.188600183
1.683E+18,5.749761719,-0.193299994,-0.362399995,-1.70359993,,,,1.781999946,-1.029999971,9.588199615,,,286,1.588699952,-1.392399967,7.884599686
1.683E+18,5.769761719,0.0143,-0.251499981,-1.909799933,,,,1.789999962,-1.013399959,9.588399887,,,287,1.804299962,-1.264899939,7.678599954
1.683E+18,5.789761719,0.0757,-0.0008,-1.830500007,,,,1.797199965,-1.009199977,9.587499619,,,288,1.872899964,-1.009999977,7.756999612
1.683E+18,5.809761719,-0.276600003,0.201499999,-1.60439992,,,,1.796599984,-1.015399933,9.586999893,,,289,1.519999981,-0.813899934,7.982599974
1.683E+18,5.829761719,-0.64349997,0.317999989,-1.457399964,,,,1.790899992,-1.024099946,9.587100029,,,290,1.147400022,-0.706099957,8.129700065
1.683E+18,5.849761719,-0.665600002,0.484599978,-1.212599993,,,,1.783599973,-1.033800006,9.587499619,,,291,1.117999971,-0.549200028,8.374899626
1.683E+18,5.869761719,-0.595299959,0.423599988,-0.958899975,,,,1.772099972,-1.041399956,9.588799477,,,292,1.176800013,-0.617799968,8.629899502
1.683E+18,5.889761719,-0.470499992,0.301200002,-0.959699988,,,,1.764999986,-1.046499968,9.589499474,,,293,1.294499993,-0.745299965,8.629799485
1.683E+18,5.909772705,-0.113199994,0.332299978,-0.741599977,,,,1.770599961,-1.057999969,9.587200165,,,294,1.657399967,-0.725699991,8.845600188
1.683E+18,5.929761719,0.115999997,0.461699992,-0.188899994,,,,1.776600003,-1.079599977,9.58370018,,,295,1.8926,-0.617899984,9.394800186
1.683E+18,5.949761719,0.047699999,0.497199982,0.510100007,,,,1.776299953,-1.105199933,9.580800056,,,296,1.823999953,-0.607999951,10.09090006
1.683E+18,5.969761719,-0.090899996,0.488700002,1.26609993,,,,1.767799973,-1.126099944,9.579999924,,,297,1.676899977,-0.637399942,10.84609985
1.683E+18,5.989761719,-0.092199996,0.358799994,1.962799907,,,,1.75940001,-1.143299937,9.579500198,,,298,1.667200014,-0.784499943,11.54230011
1.683E+18,6.009761719,0.1831,0.261500001,2.346400023,,,,1.75849998,-1.153900027,9.578399658,,,299,1.94159998,-0.892400026,11.92479968
1.683E+18,6.029761719,0.312099993,0.096199997,1.673299909,,,,1.776600003,-1.155300021,9.574899673,,,300,2.088699996,-1.059100024,11.24819958
1.683E+18,6.049761719,0.542299986,-0.137799993,1.621699929,,,,1.82099998,-1.146799922,9.567599297,,,301,2.363299966,-1.284599915,11.18929923
1.683E+18,6.069761719,0.797800004,-0.353199989,2.309000015,,,,1.869599938,-1.156899929,9.55700016,,,302,2.667399943,-1.510099918,11.86600018
1.683E+18,6.089764648,0.793299973,-0.399699986,3.068799973,,,,1.922999978,-1.188899994,9.542399406,,,303,2.716299951,-1.58859998,12.61119938
1.683E+18,6.109761719,0.210899994,-0.0528,3.422299862,,,,1.946399927,-1.23179996,9.53219986,,,304,2.157299921,-1.28459996,12.95449972
1.683E+18,6.129761719,-0.530699968,0.439099997,2.546299934,,,,1.9526999,-1.272699952,9.52559948,,,305,1.421999931,-0.833599955,12.07189941
1.683E+18,6.149761719,-0.92689997,0.276899993,1.286000013,,,,1.966399908,-1.286999941,9.520799637,,,306,1.039499938,-1.010099947,10.80679965
1.683E+18,6.169761719,-0.380299985,-0.348999977,0.935199976,,,,1.988499999,-1.268999934,9.51859951,,,307,1.608200014,-1.617999911,10.45379949
1.683E+18,6.189761719,0.163099989,-0.934699953,1.091799974,,,,2.003999949,-1.242200017,9.518899918,,,308,2.167099938,-2.17689997,10.61069989
1.683E+18,6.209761719,0.164299995,-1.221300006,0.708299994,,,,2.012699842,-1.220499992,9.519899368,,,309,2.176999837,-2.441799998,10.22819936
1.683E+18,6.229761719,-0.325599998,-1.17839992,-0.336499989,,,,2.002599955,-1.194800019,9.525300026,,,310,1.676999956,-2.37319994,9.188800037
1.683E+18,6.249761719,-0.189799994,-1.366599917,-1.30309999,,,,1.994300008,-1.163499951,9.530900002,,,311,1.804500014,-2.530099869,8.227800012
1.683E+18,6.26976001,0.497599989,-1.433499932,-1.523299932,,,,1.983399987,-1.145499945,9.535399437,,,312,2.480999976,-2.578999877,8.012099504
1.683E+18,6.289761719,1.147400022,-1.163499951,-1.085999966,,,,1.961199999,-1.15079999,9.539299965,,,313,3.10860002,-2.314299941,8.453299999
1.683E+18,6.309761719,1.089399934,-0.79429996,-0.641099989,,,,1.921099901,-1.166999936,9.545499802,,,314,3.010499835,-1.961299896,8.904399812
1.683E+18,6.329761719,0.633300006,-0.541599989,-1.029399991,,,,1.886899948,-1.174499989,9.551400185,,,315,2.520199955,-1.716099977,8.522000194
1.683E+18,6.349761719,0.323100001,-0.489799976,-1.646899939,,,,1.893099904,-1.167400002,9.550999641,,,316,2.216199905,-1.657199979,7.904099703
1.683E+18,6.369761719,-0.048299998,-0.5801,-1.927099943,,,,1.921299934,-1.155599952,9.54679966,,,317,1.872999936,-1.735699952,7.619699717
1.683E+18,6.389761719,-0.487599999,-0.802100003,-1.85679996,,,,1.93900001,-1.139500022,9.545199394,,,318,1.451400012,-1.941600025,7.688399434
1.683E+18,6.40977417,-0.687999964,-1.025900006,-1.761999965,,,,1.933399916,-1.121599913,9.548500061,,,319,1.245399952,-2.147499919,7.786500096
1.683E+18,6.429761719,-0.347900003,-1.104099989,-1.491799951,,,,1.916999936,-1.112100005,9.552899361,,,320,1.569099933,-2.216199994,8.06109941
1.683E+18,6.449761719,0.142199993,-0.858199954,-1.023800015,,,,1.897499919,-1.122599959,9.555500031,,,321,2.039699912,-1.980799913,8.531700015
1.683E+18,6.469761719,0.446799994,-0.50150001,-0.750400007,,,,1.877299905,-1.145900011,9.556799889,,,322,2.324099898,-1.647400022,8.806399882
1.683E+18,6.489761719,0.354900002,-0.390199989,-0.848800004,,,,1.861299992,-1.16900003,9.557099342,,,323,2.216199994,-1.559200019,8.708299339
1.683E+18,6.509761719,0.190599993,-0.238199994,-1.192600012,,,,1.849099994,-1.183599949,9.557700157,,,324,2.039699987,-1.421799943,8.365100145
1.683E+18,6.529761719,0.201799989,-0.059799999,-0.917499959,,,,1.837899923,-1.205199957,9.557099342,,,325,2.039699912,-1.264999956,8.639599383
1.683E+18,6.549761719,0.199099988,0.418199986,-0.347199976,,,,1.82099998,-1.241999984,9.555699348,,,326,2.020099968,-0.823799998,9.208499372
1.683E+18,6.569761719,0.221099988,0.848399997,0.439399987,,,,1.798999906,-1.289699912,9.553500175,,,327,2.020099893,-0.441299915,9.992900163
1.683E+18,6.589761719,0.31219998,1.123099923,1.263899922,,,,1.766799927,-1.33889997,9.552800179,,,328,2.078999907,-0.215800047,10.8167001
1.683E+18,6.609761719,0.311699986,1.006199956,1.761199951,,,,1.727899909,-1.369099975,9.555600166,,,329,2.039599895,-0.362900019,11.31680012
1.683E+18,6.629761719,0.258300006,0.765999973,1.714699984,,,,1.683399916,-1.373999953,9.562799454,,,330,1.941699922,-0.60799998,11.27749944
1.683E+18,6.649763184,0.576900005,0.6153,1.24729991,,,,1.649099946,-1.370399952,9.569299698,,,331,2.225999951,-0.755099952,10.81659961
1.683E+18,6.669763184,0.978499949,0.629899979,0.754399955,,,,1.629999995,-1.375199914,9.571899414,,,332,2.608499944,-0.745299935,10.32629937
1.683E+18,6.689761719,1.08949995,0.399699986,1.025900006,,,,1.607199907,-1.380399942,9.574999809,,,333,2.696699858,-0.980699956,10.60089982
1.683E+18,6.709761719,1.397199988,0.2852,2.84469986,,,,1.564399958,-1.393299937,9.580200195,,,334,2.961599946,-1.108099937,12.42490005
1.683E+18,6.729761719,1.233399987,0.330599993,3.973099947,,,,1.482899904,-1.419099927,9.589399338,,,335,2.716299891,-1.088499933,13.56249928
1.683E+18,6.749761719,0.771200001,0.405900002,3.070099831,,,,1.405699968,-1.425799966,9.599999428,,,336,2.17689997,-1.019899964,12.67009926
1.683E+18,6.76976001,0.419099987,0.461699992,0.658299983,,,,1.375399947,-1.393299937,9.609199524,,,337,1.794499934,-0.931599945,10.26749951
1.683E+18,6.789761719,0.877299964,0.214099988,-1.098199964,,,,1.417400002,-1.341899991,9.6104002,,,338,2.294699967,-1.127800003,8.512200236
1.683E+18,6.809761719,1.463400006,-0.324699998,-0.4384,,,,1.488299966,-1.28339994,9.607600212,,,339,2.951699972,-1.608099937,9.169200212
1.683E+18,6.829761719,1.254599929,-0.888799965,0.894400001,,,,1.520599961,-1.239099979,9.608399391,,,340,2.77519989,-2.127899945,10.50279939
1.683E+18,6.849761719,0.522000015,-1.027199984,1.270999908,,,,1.5079,-1.208599925,9.614299774,,,341,2.029900014,-2.235799909,10.88529968
1.683E+18,6.869761719,-0.401499987,-1.12559998,1.125999928,,,,1.490099907,-1.16900003,9.621999741,,,342,1.08859992,-2.29460001,10.74799967
1.683E+18,6.889761719,-0.292499989,-1.170099974,0.744899988,,,,1.469299912,-1.124499917,9.63049984,,,343,1.176799923,-2.294599891,10.37539983
1.683E+18,6.90977417,0.191399992,-1.09739995,-0.180999994,,,,1.475600004,-1.079599977,9.634599686,,,344,1.666999996,-2.176999927,9.453599691
1.683E+18,6.929761719,0.413699985,-0.974199951,-1.032400012,,,,1.518099904,-1.03610003,9.632800102,,,345,1.931799889,-2.010299981,8.60040009
1.683E+18,6.949761719,0.035,-0.95389998,-1.547399998,,,,1.573199987,-0.997500002,9.627999306,,,346,1.608199988,-1.951399982,8.080599308
1.683E+18,6.969761719,-0.601799965,-0.898499966,-1.866299987,,,,1.621699929,-0.964599967,9.623299599,,,347,1.019899964,-1.863099933,7.756999612
1.683E+18,6.989761719,-0.875699997,-0.812299967,-1.67719996,,,,1.65049994,-0.942999959,9.620599747,,,348,0.774799943,-1.755299926,7.943399787
1.683E+18,7.009761719,-0.811800003,-0.736299992,-1.353999972,,,,1.655099988,-0.930700004,9.620999336,,,349,0.843299985,-1.666999996,8.266999364
1.683E+18,7.029761719,-0.87379998,-0.577300012,-1.169499993,,,,1.648499966,-0.922999978,9.622900009,,,350,0.774699986,-1.50029999,8.453400016
1.683E+18,7.049761719,-1.052399993,-0.511599958,-1.090999961,,,,1.650599957,-0.920099974,9.622799873,,,351,0.598199964,-1.431699932,8.531799912
1.683E+18,7.06976001,-0.766900003,-0.313699991,-1.156299949,,,,1.669199944,-0.921799958,9.619400024,,,352,0.902299941,-1.235499948,8.463100076
1.683E+18,7.089761719,-0.463999987,-0.239500001,-1.338500023,,,,1.689799905,-0.927399993,9.615300179,,,353,1.225799918,-1.166899994,8.276800156
1.683E+18,7.109761719,-0.353799999,-0.174199998,-1.540699959,,,,1.707099915,-0.933899999,9.611599922,,,354,1.353299916,-1.108099997,8.070899963
1.683E+18,7.129761719,-0.378399998,0.050999999,-1.509499907,,,,1.71209991,-0.943399966,9.609799385,,,355,1.333699912,-0.892399967,8.100299478
1.683E+18,7.149761719,-0.696399987,0.297399998,-1.263299942,,,,1.706499934,-0.964299977,9.608699799,,,356,1.010099947,-0.666899979,8.345399857
1.683E+18,7.169764648,-0.897300005,0.508300006,-1.016499996,,,,1.701499939,-0.988799989,9.607099533,,,357,0.804199934,-0.480499983,8.590599537
1.683E+18,7.189763184,-0.924600005,0.608799994,-0.788999975,,,,1.699399948,-1.010900021,9.605199814,,,358,0.774799943,-0.402100027,8.816199839
1.683E+18,7.209761719,-0.73149997,0.829099953,-0.403400004,,,,1.702399969,-1.035099983,9.602099419,,,359,0.970899999,-0.20600003,9.198699415
1.683E+18,7.229761719,-0.490499973,1.086400032,0.38349998,,,,1.696699977,-1.066799998,9.599599838,,,360,1.206200004,0.019600034,9.983099818
1.683E+18,7.249764648,-0.161599994,1.181100011,1.198799968,,,,1.681599975,-1.102699995,9.598199844,,,361,1.519999981,0.078400016,10.79699981
1.683E+18,7.269763184,0.0131,1.344699979,1.414499998,,,,1.663699985,-1.128999949,9.59829998,,,362,1.676799985,0.21570003,11.01279998
1.683E+18,7.289761719,-0.0275,1.235399961,1.288299918,,,,1.665300012,-1.137300014,9.597000122,,,363,1.637800012,0.098099947,10.88530004
1.683E+18,7.309761719,-0.201499999,1.105599999,1.339999914,,,,1.682299972,-1.13499999,9.594299316,,,364,1.480799973,-0.029399991,10.93429923
1.683E+18,7.329761719,-0.280000001,0.959299982,1.430699944,,,,1.701900005,-1.125999928,9.591899872,,,365,1.421900004,-0.166699946,11.02259982
1.683E+18,7.349761719,-0.372999996,0.7579,1.451099992,,,,1.716599941,-1.110999942,9.591099739,,,366,1.343599945,-0.353099942,11.04219973
1.683E+18,7.369761719,-0.087200001,0.31189999,1.920599937,,,,1.724999905,-1.086599946,9.592299461,,,367,1.637799904,-0.774699956,11.5128994
1.683E+18,7.389761719,0.439699978,0.068399996,2.742799997,,,,1.727499962,-1.068699956,9.593899727,,,368,2.167199939,-1.00029996,12.33669972
1.683E+18,7.409772705,0.907099962,0.013499999,3.584299803,,,,1.72089994,-1.062799931,9.59569931,,,369,2.627999902,-1.049299931,13.17999911
1.683E+18,7.42976001,0.864600003,0.3583,3.355999947,,,,1.704599977,-1.064399958,9.598499298,,,370,2.569199979,-0.706099957,12.95449924
1.683E+18,7.449761719,0.327600002,0.551400006,1.28670001,,,,1.71209991,-1.051499963,9.598499298,,,371,2.039699912,-0.500099957,10.88519931
1.683E+18,7.469761719,0.154200003,-0.230999991,0.471499979,,,,1.738399982,-0.994699955,9.599899292,,,372,1.892599985,-1.225699946,10.07139927
1.683E+18,7.489761719,0.63379997,-1.155399919,1.631500006,,,,1.739300013,-0.923500001,9.606800079,,,373,2.373099983,-2.07889992,11.23830009
1.683E+18,7.509761719,0.842499971,-1.500699997,2.496399879,,,,1.726699948,-0.862599969,9.614699364,,,374,2.56919992,-2.363299966,12.11109924
1.683E+18,7.529761719,0.451999992,-1.518099904,1.879599929,,,,1.705299973,-0.805999994,9.62349987,,,375,2.157299966,-2.324099898,11.5030998
1.683E+18,7.549761719,0.075499997,-1.542500019,0.176899999,,,,1.699399948,-0.742399991,9.629599571,,,376,1.774899945,-2.28490001,9.806499571
1.683E+18,7.569761719,-0.0037,-1.740399957,-1.383799911,,,,1.719900012,-0.671999991,9.631199837,,,377,1.716200012,-2.412399948,8.247399926
1.683E+18,7.589761719,-0.084100001,-1.986899972,-2.362799883,,,,1.751299977,-0.611799955,9.629499435,,,378,1.667199977,-2.598699927,7.266699553
1.683E+18,7.609761719,-0.413499981,-2.00999999,-2.50909996,,,,1.766799927,-0.57889998,9.628699303,,,379,1.353299946,-2.58889997,7.119599342
1.683E+18,7.629761719,-0.732800007,-1.704999924,-1.809099913,,,,1.733099937,-0.579899967,9.634799957,,,380,1.000299931,-2.28489989,7.825700045
1.683E+18,7.649761719,-0.691100001,-1.129999995,-1.084499955,,,,1.661999941,-0.605599999,9.645699501,,,381,0.97089994,-1.735599995,8.561199546
1.683E+18,7.669761719,-0.559499979,-0.616999984,-1.191100001,,,,1.598999977,-0.638099968,9.654299736,,,382,1.039499998,-1.255099952,8.463199735
1.683E+18,7.689761719,-0.206900001,-0.35679999,-1.61589992,,,,1.569999933,-0.662999988,9.657400131,,,383,1.363099933,-1.019799978,8.041500211
1.683E+18,7.709763184,-0.0416,-0.386500001,-1.908499956,,,,1.571399927,-0.682299972,9.655799866,,,384,1.529799927,-1.068799973,7.74729991
1.683E+18,7.729761719,0.0405,-0.223199993,-1.778899908,,,,1.577499986,-0.698499978,9.653599739,,,385,1.617999986,-0.921699971,7.874699831
1.683E+18,7.749761719,-0.160999998,-0.179700002,-1.012899995,,,,1.573099971,-0.72240001,9.652599335,,,386,1.412099972,-0.902100012,8.63969934
1.683E+18,7.769761719,-0.431199998,-0.153999999,-0.524500012,,,,1.549199939,-0.748099983,9.654500008,,,387,1.117999941,-0.902099982,9.129999995
1.683E+18,7.789761719,-0.587899983,-0.111999996,-0.430899978,,,,1.509699941,-0.770500004,9.658999443,,,388,0.921799958,-0.8825,9.228099465
1.683E+18,7.809761719,-0.590200007,0.156299993,-0.629399955,,,,1.482599974,-0.793799996,9.661299706,,,389,0.892399967,-0.637500003,9.03189975
1.683E+18,7.829761719,-0.247199997,0.276800007,-0.736899972,,,,1.473099947,-0.816199958,9.660900116,,,390,1.22589995,-0.539399952,8.924000144
1.683E+18,7.849761719,0.099999994,0.329899997,-0.364299983,,,,1.459100008,-0.839899957,9.660999298,,,391,1.559100002,-0.509999961,9.296699315
1.683E+18,7.869761719,0.130999997,0.254000008,0.083999999,,,,1.428200006,-0.861999989,9.663700104,,,392,1.559200004,-0.60799998,9.747700103
1.683E+18,7.889761719,0.221999988,0.291700006,0.471799999,,,,1.386199951,-0.880099952,9.668199539,,,393,1.608199939,-0.588399947,10.13999954
1.683E+18,7.909772705,0.742599964,0.4648,1.154999971,,,,1.346099973,-0.906099975,9.67140007,,,394,2.088699937,-0.441299975,10.82640004
1.683E+18,7.929763184,1.064800024,0.73939997,2.046000004,,,,1.308300018,-0.9454,9.672800064,,,395,2.373100042,-0.20600003,11.71880007
1.683E+18,7.949764648,0.730199993,0.938199997,1.896999955,,,,1.270200014,-0.977400005,9.674699783,,,396,2.000400007,-0.039200008,11.57169974
1.683E+18,7.969763184,0.142700002,0.809799969,0.778599977,,,,1.259500027,-0.986299992,9.675199509,,,397,1.402200028,-0.176500022,10.45379949
1.683E+18,7.989761719,0.070500001,0.457800001,0.798699975,,,,1.263099909,-0.987299979,9.674699783,,,398,1.33359991,-0.529499978,10.47339976
1.683E+18,8.009761719,0.510299981,0.27579999,2.523799896,,,,1.245000005,-1.00150001,9.675499916,,,399,1.755299985,-0.725700021,12.19929981
1.683E+18,8.029761719,0.595799983,0.671899974,3.187099934,,,,1.188899994,-1.034699917,9.679100037,,,400,1.784699976,-0.362799942,12.86619997
1.683E+18,8.049761719,0.629299998,0.889400005,2.556599855,,,,1.145599961,-1.056100011,9.68200016,,,401,1.77489996,-0.166700006,12.23860002
1.683E+18,8.069761719,0.94569999,0.612699986,1.847799897,,,,1.133299947,-1.044199944,9.684800148,,,402,2.078999937,-0.431499958,11.53260005
1.683E+18,8.089761719,1.168099999,0.265499979,0.914099991,,,,1.146099925,-1.010800004,9.686800003,,,403,2.314199924,-0.745300025,10.60089999
1.683E+18,8.109761719,0.857599974,-0.1391,0.156899989,,,,1.172299981,-0.959099948,9.688899994,,,404,2.029899955,-1.098199949,9.845799983
1.683E+18,8.129761719,0.369599998,-0.804399967,0.094899997,,,,1.199299932,-0.892099977,9.691999435,,,405,1.56889993,-1.696499944,9.786899433
1.683E+18,8.149761719,-0.0066,-1.361099958,0.543099999,,,,1.222599983,-0.825699985,9.694999695,,,406,1.215999983,-2.186799943,10.23809969
1.683E+18,8.169761719,-0.363499999,-1.343099952,0.717099965,,,,1.236299992,-0.774999976,9.697400093,,,407,0.872799993,-2.118099928,10.41450006
1.683E+18,8.189761719,-0.480699986,-1.307199955,0.596099973,,,,1.235800028,-0.732499957,9.700799942,,,408,0.755100042,-2.039699912,10.29689991
1.683E+18,8.209761719,-0.063099995,-1.233399987,0.348199993,,,,1.239899993,-0.688600004,9.703499794,,,409,1.176799998,-1.921999991,10.05169979
1.683E+18,8.229761719,0.247400001,-1.155399919,-0.259499997,,,,1.262699962,-0.648899972,9.703299522,,,410,1.510099962,-1.804299891,9.443799525
1.683E+18,8.249761719,-0.0735,-0.966600001,-0.874899983,,,,1.299299955,-0.612100005,9.700799942,,,411,1.225799955,-1.578700006,8.825899959
1.683E+18,8.269761719,-0.599799991,-0.829099953,-1.284999967,,,,1.325500011,-0.582899988,9.699099541,,,412,0.725700021,-1.411999941,8.414099574
1.683E+18,8.289761719,-0.852999985,-0.624300003,-1.695599914,,,,1.343299985,-0.56220001,9.697899818,,,413,0.4903,-1.186500013,8.002299905
1.683E+18,8.309761719,-0.734299958,-0.381499976,-1.685299993,,,,1.352100015,-0.550099969,9.697299957,,,414,0.617800057,-0.931599945,8.011999965
1.683E+18,8.329761719,-0.734799981,-0.210599989,-1.705199957,,,,1.352599978,-0.544499993,9.697599411,,,415,0.617799997,-0.755099982,7.992399454
1.683E+18,8.349761719,-0.845799983,-0.1479,-1.989499927,,,,1.355700016,-0.538500011,9.697500229,,,416,0.509900033,-0.686400011,7.708000302
1.683E+18,8.369764648,-0.692600012,-0.091299996,-2.116499901,,,,1.359399915,-0.536300004,9.697099686,,,417,0.666799903,-0.627599999,7.580599785
1.683E+18,8.389761719,-0.456099987,-0.0144,-1.704399943,,,,1.358299971,-0.544499993,9.696799278,,,418,0.902199984,-0.558899993,7.992399335
1.683E+18,8.40977417,-0.33919999,0.121799998,-1.165199995,,,,1.349299908,-0.56309998,9.69699955,,,419,1.010099918,-0.441299982,8.531799555
1.683E+18,8.429761719,-0.436800003,0.340599984,-0.782799959,,,,1.338999987,-0.585699975,9.697099686,,,420,0.902199984,-0.245099992,8.914299726
1.683E+18,8.449761719,-0.414999992,0.528400004,-0.400700003,,,,1.327099919,-0.606899977,9.697400093,,,421,0.912099928,-0.078499973,9.29670009
1.683E+18,8.469761719,-0.505100012,0.614499986,-0.449699998,,,,1.319100022,-0.624300003,9.697400093,,,422,0.81400001,-0.009800017,9.247700095
1.683E+18,8.489761719,-0.684499979,0.654799998,-1.036999941,,,,1.32190001,-0.635199964,9.696299553,,,423,0.637400031,0.019600034,8.659299612
1.683E+18,8.509761719,-0.692200005,0.68809998,-1.103699923,,,,1.329599977,-0.648899972,9.694299698,,,424,0.637399971,0.039200008,8.590599775
1.683E+18,8.529761719,-0.629499972,0.827299953,-0.710500002,,,,1.325799942,-0.670399964,9.693399429,,,425,0.69629997,0.156899989,8.982899427
1.683E+18,8.549761719,-0.499899983,0.920899987,-0.072999999,,,,1.313799977,-0.695299983,9.693299294,,,426,0.813899994,0.225600004,9.620299295
1.683E+18,8.56976001,0.061899997,1.000399947,0.838199973,,,,1.291299939,-0.725799978,9.694099426,,,427,1.353199936,0.274599969,10.5322994
1.683E+18,8.589761719,0.599299967,0.994899988,1.95509994,,,,1.263899922,-0.759499967,9.695099831,,,428,1.86319989,0.235400021,11.65019977
1.683E+18,8.609764648,0.699899971,1.204100013,2.356899977,,,,1.241699934,-0.792199969,9.695399284,,,429,1.941599905,0.411900043,12.05229926
1.683E+18,8.629764648,0.385099977,1.209999919,2.084599972,,,,1.242699981,-0.817699969,9.693099976,,,430,1.627799958,0.39229995,11.77769995
1.683E+18,8.649761719,0.22649999,0.624000013,1.538399935,,,,1.263999939,-0.820199966,9.690099716,,,431,1.490499929,-0.196199954,11.22849965
1.683E+18,8.669761719,0.607800007,-0.031999998,1.376299977,,,,1.304299951,-0.811199963,9.685500145,,,432,1.912099957,-0.843199961,11.06180012
1.683E+18,8.689761719,1.041000009,-0.183299989,1.921199918,,,,1.341899991,-0.816899955,9.679900169,,,433,2.3829,-1.000199944,11.60110009
1.683E+18,8.709761719,1.184399962,-0.114299998,2.919800043,,,,1.375,-0.85649997,9.671899796,,,434,2.559399962,-0.970799968,12.59169984
1.683E+18,8.729761719,0.908999979,0.232599989,3.52429986,,,,1.385699987,-0.909199953,9.665499687,,,435,2.294699967,-0.676599964,13.18979955
1.683E+18,8.749761719,0.280599982,0.364600003,2.255199909,,,,1.396299958,-0.952999949,9.659799576,,,436,1.67689994,-0.588399947,11.91499949
1.683E+18,8.769761719,-0.096099995,-0.180500001,1.122900009,,,,1.429799914,-0.956999958,9.654500008,,,437,1.333699919,-1.137499958,10.77740002
1.683E+18,8.789761719,0.171099991,-1.093699932,1.639299989,,,,1.427299976,-0.926400006,9.657799721,,,438,1.598399967,-2.020099938,11.29709971
1.683E+18,8.809761719,0.800499976,-1.43599999,2.417999983,,,,1.405900002,-0.897899985,9.663700104,,,439,2.206399977,-2.333899975,12.08170009
1.683E+18,8.829761719,0.703099966,-1.237999916,1.85589993,,,,1.395399928,-0.880199969,9.666799545,,,440,2.098499894,-2.118199885,11.52269948
1.683E+18,8.849761719,0.202500001,-1.18659997,0.0407,,,,1.405699968,-0.853100002,9.66779995,,,441,1.608199969,-2.039699972,9.708499949
1.683E+18,8.869761719,0.2227,-1.32009995,-1.439599991,,,,1.434499979,-0.807899952,9.667399406,,,442,1.657199979,-2.127999902,8.227799416
1.683E+18,8.889761719,0.300699979,-1.493099928,-2.289799929,,,,1.47420001,-0.772099972,9.664400101,,,443,1.774899989,-2.2651999,7.374600172
1.683E+18,8.909772705,-0.028199999,-1.521600008,-2.571799994,,,,1.499199986,-0.753399968,9.661999702,,,444,1.470999988,-2.274999976,7.090199709
1.683E+18,8.929761719,-0.379099995,-1.282099962,-2.131999969,,,,1.487299919,-0.757600009,9.663499832,,,445,1.108199924,-2.039699972,7.531499863
1.683E+18,8.949761719,-0.616899967,-0.805899978,-1.576599956,,,,1.450399995,-0.782700002,9.667099953,,,446,0.833500028,-1.58859998,8.090499997
1.683E+18,8.969761719,-0.824000001,-0.475199997,-1.706099987,,,,1.422199965,-0.809399962,9.669099808,,,447,0.598199964,-1.28459996,7.962999821
1.683E+18,8.989761719,-0.390299976,-0.3583,-1.832299948,,,,1.419999957,-0.828199983,9.66779995,,,448,1.029699981,-1.186499983,7.835500002
1.683E+18,9.009761719,0.230299994,-0.422699988,-1.664799929,,,,1.417099953,-0.842199981,9.666999817,,,449,1.647399947,-1.264899969,8.002199888
1.683E+18,9.029761719,0.483099997,-0.491999984,-1.421399951,,,,1.399699926,-0.851399958,9.6687994,,,450,1.882799923,-1.343399942,8.247399449
1.683E+18,9.049761719,0.510899961,-0.358799994,-0.737499952,,,,1.371899962,-0.866899967,9.67140007,,,451,1.882799923,-1.225699961,8.933900118
1.683E+18,9.069761719,0.282999992,-0.141199991,-0.415799975,,,,1.344799995,-0.888399959,9.673199654,,,452,1.627799988,-1.02959995,9.257399678
1.683E+18,9.089761719,0.119999997,0.0053,-0.543299973,,,,1.33130002,-0.907499969,9.673299789,,,453,1.451300018,-0.902199969,9.129999816
1.683E+18,9.109761719,0.255299985,0.068599999,-0.748999953,,,,1.323400021,-0.921799958,9.673099518,,,454,1.578700006,-0.853199959,8.924099565
1.683E+18,9.129761719,0.347499996,0.102499999,-0.641600013,,,,1.309700012,-0.936100006,9.673600197,,,455,1.657200009,-0.833600007,9.032000184
1.683E+18,9.149761719,0.341800004,0.2597,0.0043,,,,1.286000013,-0.95599997,9.674799919,,,456,1.627800018,-0.69629997,9.679099919
1.683E+18,9.169761719,0.340999991,0.343600005,0.972599983,,,,1.247499943,-0.981099963,9.6772995,,,457,1.588499933,-0.637499958,10.64989948
1.683E+18,9.18976001,0.470299989,0.233499989,1.889799953,,,,1.196699977,-0.998399973,9.68200016,,,458,1.666999966,-0.764899984,11.57180011
1.683E+18,9.209761719,0.597799957,0.057099998,2.717299938,,,,1.137899995,-1.008299947,9.687999725,,,459,1.735699952,-0.951199949,12.40529966
1.683E+18,9.229761719,0.72329998,0.030199999,2.318799973,,,,1.08099997,-1.010900021,9.694299698,,,460,1.804299951,-0.980700022,12.01309967
1.683E+18,9.249761719,0.6954,0.088299997,0.89229995,,,,1.050099969,-1.000299931,9.698800087,,,461,1.745499969,-0.911999933,10.59110004
1.683E+18,9.26976001,0.997999966,-0.256599993,0.291999996,,,,1.041700006,-0.988799989,9.700799942,,,462,2.039699972,-1.245399982,9.992799938
1.683E+18,9.289761719,1.241099954,-0.341099977,1.652599931,,,,1.014400005,-0.992499948,9.703399658,,,463,2.255499959,-1.333599925,11.35599959
1.683E+18,9.309761719,1.123999953,0.0167,3.012399912,,,,0.935299993,-1.036599994,9.706699371,,,464,2.059299946,-1.019899994,12.71909928
1.683E+18,9.329764648,0.816100001,0.459499985,3.079699993,,,,0.860799968,-1.087100029,9.708099365,,,465,1.67689997,-0.627600044,12.78779936
1.683E+18,9.349763184,0.939799964,0.618900001,1.450399995,,,,0.815499961,-1.109300017,9.709499359,,,466,1.755299926,-0.490400016,11.15989935
1.683E+18,9.369761719,1.061499953,0.410099983,-0.421799988,,,,0.840900004,-1.096599936,9.70870018,,,467,1.902399957,-0.686499953,9.286900192
1.683E+18,9.389761719,1.085999966,0.0616,-0.526799977,,,,0.904599965,-1.071699977,9.705800056,,,468,1.99059993,-1.010099977,9.17900008
1.683E+18,9.409772705,0.38259998,-0.301400006,0.699299991,,,,0.931400001,-1.051800013,9.705399513,,,469,1.313999981,-1.353200018,10.4046995
1.683E+18,9.429761719,-0.285299987,-0.459999979,1.323799968,,,,0.922699988,-1.030499935,9.708499908,,,470,0.637400001,-1.490499914,11.03229988
1.683E+18,9.449761719,-0.566299975,-0.552299976,1.348500013,,,,0.90959996,-0.997099996,9.713299751,,,471,0.343299985,-1.549399972,11.06179976
1.683E+18,9.469761719,-0.200599998,-0.511999965,0.423500001,,,,0.926299989,-0.949099958,9.716499329,,,472,0.725699991,-1.461099923,10.13999933
1.683E+18,9.489761719,0.048799999,-0.519899964,-1.018100023,,,,0.980799973,-0.892199993,9.716599464,,,473,1.029599972,-1.412099957,8.698499441
1.683E+18,9.509761719,-0.098099999,-0.42899999,-2.231899977,,,,1.049399972,-0.835999966,9.714399338,,,474,0.951299973,-1.264999956,7.482499361
1.683E+18,9.529761719,-0.511999965,-0.297299981,-2.650599957,,,,1.110199928,-0.791099966,9.711400032,,,475,0.598199964,-1.088399947,7.060800076
1.683E+18,9.549761719,-0.952099979,-0.087099999,-2.275500059,,,,1.148199916,-0.765899956,9.708999634,,,476,0.196099937,-0.852999955,7.433499575
1.683E+18,9.569763184,-1.019999981,0.122699998,-1.529199958,,,,1.167099953,-0.75029999,9.707900047,,,477,0.147099972,-0.627599992,8.178700089
1.683E+18,9.589763184,-1.021799922,-0.0103,-1.30339992,,,,1.17869997,-0.734899998,9.707699776,,,478,0.156900048,-0.745199998,8.404299855
1.683E+18,9.609761719,-0.713,-0.082599998,-1.537499905,,,,1.203299999,-0.711600006,9.706399918,,,479,0.4903,-0.794200003,8.168900013
1.683E+18,9.629761719,-0.411499977,-0.100699998,-1.515200019,,,,1.235299945,-0.693499982,9.703700066,,,480,0.823799968,-0.794199981,8.188500047
1.683E+18,9.649761719,-0.363700002,-0.119899996,-1.286299944,,,,1.265900016,-0.684199989,9.700399399,,,481,0.902200013,-0.804099984,8.414099455
1.683E+18,9.669761719,-0.646699965,0.043499999,-1.282899976,,,,1.29399991,-0.680899978,9.69699955,,,482,0.647299945,-0.637399979,8.414099574
1.683E+18,9.689761719,-1.10589993,0.141599998,-1.308499932,,,,1.321699977,-0.680999994,9.693200111,,,483,0.215800047,-0.539399996,8.384700179
1.683E+18,9.709761719,-1.361999989,0.244799986,-1.480499983,,,,1.352199912,-0.686100006,9.688599586,,,484,-0.009800076,-0.44130002,8.208099604
1.683E+18,9.729761719,-1.366799951,0.490499973,-1.466499925,,,,1.376599908,-0.696399987,9.684499741,,,485,0.009799957,-0.205900013,8.217999816
1.683E+18,9.749761719,-1.217700005,0.717599988,-0.952499986,,,,1.394299984,-0.717599988,9.680399895,,,486,0.176599979,0,8.727899909
1.683E+18,9.769763184,-1.053599954,0.893599987,-0.193399996,,,,1.406599998,-0.746499956,9.676400185,,,487,0.353000045,0.147100031,9.483000189
1.683E+18,9.789763184,-0.698899984,1.031700015,0.898599982,,,,1.414699912,-0.776799977,9.6729002,,,488,0.715799928,0.254900038,10.57150018
1.683E+18,9.809761719,-0.37529999,1.04189992,1.616899967,,,,1.414799929,-0.806499958,9.670399666,,,489,1.039499938,0.235399961,11.28729963
1.683E+18,9.829766357,-0.208099991,1.095099926,2.042000055,,,,1.424099922,-0.830299973,9.666999817,,,490,1.215999931,0.264799953,11.70899987
1.683E+18,9.849777344,-0.174999997,1.129499912,2.300600052,,,,1.439999938,-0.845099986,9.663399696,,,491,1.264999941,0.284399927,11.96399975
1.683E+18,9.869761719,-0.018099999,0.75849998,2.109099865,,,,1.469499946,-0.84679997,9.658800125,,,492,1.451399947,-0.08829999,11.76789999
1.683E+18,9.889761719,0.186199993,0.016799999,2.153199911,,,,1.510299921,-0.830799997,9.653900146,,,493,1.696499914,-0.813999997,11.80710006
1.683E+18,9.909772705,0.468599975,-0.498599976,2.501600027,,,,1.551399946,-0.815400004,9.64869976,,,494,2.019999921,-1.313999981,12.15029979
1.683E+18,9.929761719,0.791599989,-0.498899996,2.834199905,,,,1.601099968,-0.824899971,9.639800072,,,495,2.392699957,-1.323799968,12.47399998
1.683E+18,9.949761719,0.555499971,0.051999997,3.307099819,,,,1.650900006,-0.86589998,9.627799988,,,496,2.206399977,-0.813899983,12.93489981
1.683E+18,9.969761719,-0.122399993,0.613200009,2.424799919,,,,1.681599975,-0.917199969,9.617699623,,,497,1.559199981,-0.30399996,12.04249954
1.683E+18,9.989761719,-0.4454,0.229399994,1.10769999,,,,1.710500002,-0.935499966,9.610799789,,,498,1.265100002,-0.706099972,10.71849978
1.683E+18,10.00976172,-0.307199985,-0.828399956,1.322299957,,,,1.719399929,-0.907199979,9.611999512,,,499,1.412199944,-1.735599935,10.93429947
1.683E+18,10.02976465,0.224299997,-1.361799955,2.162299871,,,,1.717299938,-0.873999953,9.615399361,,,500,1.941599935,-2.235799909,11.77769923
1.683E+18,10.04976172,0.188500002,-1.469900012,2.385400057,,,,1.71389997,-0.854200006,9.617799759,,,501,1.902399972,-2.324100018,12.00319982
1.683E+18,10.06976172,0.056499999,-1.529500008,1.294199944,,,,1.708599925,-0.833799958,9.620499611,,,502,1.765099924,-2.363299966,10.91469955
1.683E+18,10.08976172,0.033199999,-1.425999999,-0.512399971,,,,1.712199926,-0.799999952,9.622799873,,,503,1.745399926,-2.225999951,9.110399902
1.683E+18,10.10976172,0.196999997,-1.540300012,-1.724699974,,,,1.744699955,-0.773999989,9.619099617,,,504,1.941699952,-2.314300001,7.894399643
1.683E+18,10.12976172,0.293799996,-1.513599992,-2.257699966,,,,1.785099983,-0.761500001,9.612599373,,,505,2.07889998,-2.275099993,7.354899406
1.683E+18,10.14976172,0.071400002,-1.501999974,-2.364099979,,,,1.791700006,-0.763199985,9.611299515,,,506,1.863100007,-2.265199959,7.247199535
1.683E+18,10.16976172,-0.549600005,-1.264999986,-2.485699892,,,,1.765699983,-0.774699986,9.615200043,,,507,1.216099977,-2.039699972,7.129500151
1.683E+18,10.18976172,-0.698599994,-0.895999968,-2.156999826,,,,1.728299975,-0.800399959,9.619799614,,,508,1.029699981,-1.696399927,7.462799788
1.683E+18,10.20976172,-0.336600006,-0.592599988,-1.933200002,,,,1.699699998,-0.838999987,9.621600151,,,509,1.363099992,-1.431599975,7.688400149
1.683E+18,10.22976172,-0.048099998,-0.46269998,-1.69749999,,,,1.685899973,-0.870899975,9.621299744,,,510,1.637799975,-1.333599955,7.923799753
1.683E+18,10.24976172,-0.202999994,-0.489299983,-1.277499914,,,,1.664099932,-0.893299997,9.623000145,,,511,1.461099938,-1.38259998,8.345500231
1.683E+18,10.26976172,-0.292899996,-0.476699978,-1.045699954,,,,1.636399984,-0.905900002,9.626599312,,,512,1.343499988,-1.38259998,8.580899358
1.683E+18,10.28976318,-0.0218,-0.475400001,-1.184700012,,,,1.620299935,-0.916999996,9.628199577,,,513,1.598499935,-1.392399997,8.443499565
1.683E+18,10.30976465,0.37529999,-0.263199985,-1.085899949,,,,1.61529994,-0.933099985,9.62749958,,,514,1.99059993,-1.19629997,8.541599631
1.683E+18,10.32976172,0.466099977,0.057,-0.761799991,,,,1.602999926,-0.959199965,9.626999855,,,515,2.069099903,-0.902199965,8.865199864
1.683E+18,10.34976172,0.360199988,0.326000005,-0.439399987,,,,1.581399918,-0.98299998,9.628199577,,,516,1.941599905,-0.656999975,9.18879959
1.683E+18,10.36976172,0.492699981,0.465499997,0.274699986,,,,1.556800008,-1.004899979,9.629899979,,,517,2.049499989,-0.539399981,9.904599965
1.683E+18,10.38976172,0.79369998,0.590799987,1.145099998,,,,1.530399919,-1.022300005,9.632299423,,,518,2.324099898,-0.431500018,10.77739942
1.683E+18,10.40977417,0.851999998,0.564999998,2.102999926,,,,1.50150001,-1.03579998,9.635399818,,,519,2.353500009,-0.470799983,11.73839974
1.683E+18,10.42976172,0.904799998,0.726099968,2.403800011,,,,1.478099942,-1.039899945,9.638599396,,,520,2.38289994,-0.313799977,12.04239941
1.683E+18,10.44976172,0.738200009,0.628399968,2.0776999,,,,1.468199968,-1.030499935,9.64109993,,,521,2.206399977,-0.402099967,11.71879983
1.683E+18,10.46976172,0.365799993,0.371999979,1.191799998,,,,1.467899919,-0.999599993,9.644399643,,,522,1.833699912,-0.627600014,10.83619964
1.683E+18,10.48976172,0.465799987,-0.247499987,0.974599957,,,,1.485599995,-0.958599985,9.645899773,,,523,1.951399982,-1.206099972,10.62049973
1.683E+18,10.50976172,0.552599967,-0.2324,2.021800041,,,,1.487100005,-0.934499979,9.647999763,,,524,2.039699972,-1.166899979,11.6697998
1.683E+18,10.52976172,0.286199987,0.171499997,2.546799898,,,,1.449499965,-0.946199954,9.652599335,,,525,1.735699952,-0.774699956,12.19939923
1.683E+18,10.54976172,-0.186799988,0.474599987,1.942499995,,,,1.402799964,-0.9551,9.658599854,,,526,1.215999976,-0.480500013,11.60109985
1.683E+18,10.56976172,0.220799997,0.377599984,0.778499961,,,,1.367799997,-0.93659997,9.665499687,,,527,1.588599995,-0.558999985,10.44399965
1.683E+18,10.58976172,1.023699999,-0.068300001,0.167899996,,,,1.378799915,-0.892699957,9.668000221,,,528,2.402499914,-0.960999958,9.835900217
1.683E+18,10.60976172,1.625499964,-0.475699991,0.786899984,,,,1.414499998,-0.848100007,9.666899681,,,529,3.039999962,-1.323799998,10.45379966
1.683E+18,10.62976172,1.062399983,-0.824799955,1.581699967,,,,1.438199997,-0.81279999,9.666500092,,,530,2.50059998,-1.637599945,11.24820006
1.683E+18,10.64976172,-0.148900002,-1.073699951,1.616699934,,,,1.433499932,-0.769800007,9.670700073,,,531,1.28459993,-1.843499959,11.28740001
1.683E+18,10.66976172,-1.019999981,-1.258599997,0.953599989,,,,1.421999931,-0.71239996,9.676699638,,,532,0.40199995,-1.970999956,10.63029963
1.683E+18,10.68976172,-0.949999988,-1.166499972,-0.292999983,,,,1.440299988,-0.657400012,9.677899361,,,533,0.4903,-1.823899984,9.384899378
1.683E+18,10.70976172,-0.824699998,-1.003600001,-1.376599908,,,,1.491599917,-0.61439997,9.672999382,,,534,0.66689992,-1.617999971,8.296399474
1.683E+18,10.72976172,-0.813399971,-0.900299966,-2.136100054,,,,1.539099932,-0.58039999,9.667699814,,,535,0.725699961,-1.480699956,7.53159976
1.683E+18,10.74976172,-0.962099969,-0.779799998,-2.526599884,,,,1.560299993,-0.553799987,9.665800095,,,536,0.598200023,-1.333599985,7.139200211
1.683E+18,10.76976318,-0.831699967,-0.745299995,-2.508299828,,,,1.557399988,-0.539299965,9.667099953,,,537,0.725700021,-1.28459996,7.158800125
1.683E+18,10.78976172,-0.609099984,-0.623399973,-2.185499907,,,,1.550599933,-0.543500006,9.668000221,,,538,0.941499949,-1.166899979,7.482500315
1.683E+18,10.80976172,-0.434299976,-0.405999988,-1.567799926,,,,1.542400002,-0.564799964,9.668099403,,,539,1.108100027,-0.970799953,8.100299478
1.683E+18,10.82976172,-0.492899984,-0.230399996,-1.342100024,,,,1.532400012,-0.593199968,9.667900085,,,540,1.039500028,-0.823599964,8.325800061
1.683E+18,10.84976172,-0.586799979,-0.099599995,-1.468799949,,,,1.528199911,-0.61619997,9.667200089,,,541,0.941399932,-0.715799965,8.19840014
1.683E+18,10.86976001,-0.649800003,-0.0605,-1.574800014,,,,1.532400012,-0.635599971,9.665299416,,,542,0.882600009,-0.69609997,8.090499401
1.683E+18,10.88976172,-0.766799986,0.0178,-2.041100025,,,,1.55129993,-0.655200005,9.660900116,,,543,0.784499943,-0.637400005,7.619800091
1.683E+18,10.90977271,-0.761900008,0.259499997,-1.937299967,,,,1.575899959,-0.681199968,9.655099869,,,544,0.813999951,-0.421699971,7.717799902
1.683E+18,10.92976172,-0.733399987,0.576200008,-1.344099998,,,,1.586499929,-0.72329998,9.650300026,,,545,0.853099942,-0.147099972,8.306200027
1.683E+18,10.94976172,-0.828799963,0.790299952,-0.703399956,,,,1.583899975,-0.770699978,9.647099495,,,546,0.755100012,0.019599974,8.943699539
1.683E+18,10.96976172,-0.616299987,0.915799975,-0.072999999,,,,1.577299953,-0.817699969,9.644299507,,,547,0.960999966,0.098100007,9.571299508
1.683E+18,10.98976172,-0.191499993,0.994399965,0.695599973,,,,1.574199915,-0.866899967,9.640500069,,,548,1.382699922,0.127499998,10.33610004
1.683E+18,11.00976172,0.135499999,1.233899951,1.427299976,,,,1.580500007,-0.920099974,9.63449955,,,549,1.716000006,0.313799977,11.06179953
1.683E+18,11.02976172,0.18779999,1.346400023,2.198499918,,,,1.58709991,-0.973800004,9.628199577,,,550,1.7748999,0.372600019,11.8266995
1.683E+18,11.04976318,-0.020099999,1.25059998,2.752300024,,,,1.589199901,-1.015200019,9.623600006,,,551,1.569099901,0.235399961,12.37590003
1.683E+18,11.06976172,-0.2289,0.974899948,2.638700008,,,,1.601899981,-1.033699989,9.61950016,,,552,1.372999981,-0.058800042,12.25820017
1.683E+18,11.08976172,0.0328,0.236399993,3.281299829,,,,1.634299994,-1.030699968,9.61439991,,,553,1.667099994,-0.794299975,12.89569974
1.683E+18,11.10976172,0.487099975,-0.0506,4.16809988,,,,1.660399914,-1.028100014,9.610199928,,,554,2.147499889,-1.078700013,13.77829981
1.683E+18,11.12976172,0.528299987,-0.049599998,3.968099833,,,,1.687899947,-1.038800001,9.604199409,,,555,2.216199934,-1.088399999,13.57229924
1.683E+18,11.14976172,0.460099995,0.072999999,3.249799967,,,,1.726599932,-1.043799996,9.59679985,,,556,2.186699927,-0.970799997,12.84659982
1.683E+18,11.16976172,0.296900004,0.094499998,2.26429987,,,,1.752599955,-1.045699954,9.591899872,,,557,2.049499959,-0.951199956,11.85619974
1.683E+18,11.18976172,0.076399997,-0.096099995,0.229299992,,,,1.786799908,-1.031599998,9.587100029,,,558,1.863199905,-1.127699994,9.816400021
1.683E+18,11.20976172,0.4014,-0.701599956,-0.41169998,,,,1.834399939,-1.004699945,9.580999374,,,559,2.235799938,-1.706299901,9.169299394
1.683E+18,11.22976172,0.599699974,-1.091699958,0.774399996,,,,1.842099905,-0.987199962,9.581299782,,,560,2.441799879,-2.07889992,10.35569978
1.683E+18,11.24976172,0.16139999,-1.049000025,1.690400004,,,,1.809599996,-0.990699947,9.587100029,,,561,1.970999986,-2.039699972,11.27750003
1.683E+18,11.26976172,-0.554499984,-0.986199975,1.202999949,,,,1.770499945,-0.994699955,9.593999863,,,562,1.215999961,-1.98089993,10.79699981
1.683E+18,11.28976318,-0.510199964,-1.243099928,-0.264799982,,,,1.745799899,-0.973099947,9.600699425,,,563,1.235599935,-2.216199875,9.335899442
1.683E+18,11.30976465,0.0208,-1.58009994,-1.700099945,,,,1.744300008,-0.940199971,9.604299545,,,564,1.765100008,-2.520299911,7.9041996
1.683E+18,11.32976172,0.509599984,-1.500999928,-2.502300024,,,,1.765399933,-0.921099961,9.60229969,,,565,2.274999917,-2.422099888,7.099999666
1.683E+18,11.34976172,0.46449998,-1.150699973,-2.412199974,,,,1.771299958,-0.928199947,9.600500107,,,566,2.235799938,-2.07889992,7.188300133
1.683E+18,11.36976172,-0.131799996,-0.713400006,-2.268399954,,,,1.740099907,-0.953599989,9.603699684,,,567,1.608299911,-1.666999996,7.33529973
1.683E+18,11.38976172,-0.386399984,-0.386099994,-2.255199909,,,,1.690699935,-0.976999998,9.610199928,,,568,1.304299951,-1.363099992,7.355000019
1.683E+18,11.40977417,-0.363999993,-0.315499991,-1.966099977,,,,1.648699999,-0.99849999,9.615300179,,,569,1.284700006,-1.313999981,7.649200201
1.683E+18,11.42976318,-0.140299991,-0.186999992,-1.605799913,,,,1.621099949,-1.019199967,9.617799759,,,570,1.480799958,-1.206199959,8.011999846
1.683E+18,11.44976465,0.124899998,-0.094299994,-1.126099944,,,,1.600899935,-1.043200016,9.618599892,,,571,1.725799933,-1.13750001,8.492499948
1.683E+18,11.46976318,0.207599998,0.107000001,-0.658199966,,,,1.567299962,-1.068099976,9.621399879,,,572,1.77489996,-0.961099975,8.963199914
1.683E+18,11.48976172,0.221399993,0.313699991,-0.497599989,,,,1.514299989,-1.088400006,9.627599716,,,573,1.735699981,-0.774700016,9.129999727
1.683E+18,11.50976172,0.457499981,0.313999981,-0.602299988,,,,1.46449995,-1.09860003,9.634200096,,,574,1.921999931,-0.784600049,9.031900108
1.683E+18,11.52976172,0.737999976,0.297600001,-0.841099977,,,,1.43900001,-1.101799965,9.637700081,,,575,2.176999986,-0.804199964,8.796600103
1.683E+18,11.54976318,0.703399956,0.382099986,-0.674399972,,,,1.434399962,-1.10769999,9.637700081,,,576,2.137799919,-0.725600004,8.963300109
1.683E+18,11.56976318,0.613200009,0.539699972,-0.331099987,,,,1.426499963,-1.118299961,9.637599945,,,577,2.039699972,-0.578599989,9.306499958
1.683E+18,11.58976172,0.713999987,0.565499961,0.410099983,,,,1.394299984,-1.124499917,9.641599655,,,578,2.108299971,-0.558999956,10.05169964
1.683E+18,11.60976172,0.967499971,0.532400012,1.47299993,,,,1.34679997,-1.130599976,9.647600174,,,579,2.314299941,-0.598199964,11.1206001
1.683E+18,11.62976172,1.106599927,0.705599964,2.318699837,,,,1.286099911,-1.137099981,9.655200005,,,580,2.392699838,-0.431500018,11.97389984
1.683E+18,11.64976172,1.280399919,0.767399967,2.293299913,,,,1.239799976,-1.140100002,9.660900116,,,581,2.520199895,-0.372700036,11.95420003
1.683E+18,11.66976172,1.270900011,0.888899982,1.477399945,,,,1.229699969,-1.13409996,9.662899971,,,582,2.50059998,-0.245199978,11.14029992
1.683E+18,11.68976172,1.062899947,0.486000001,1.524299979,,,,1.231699944,-1.113699913,9.664999962,,,583,2.294599891,-0.627699912,11.18929994
1.683E+18,11.70976172,0.976199985,0.042599998,2.599099874,,,,1.220399976,-1.091899991,9.668899536,,,584,2.19659996,-1.049299993,12.26799941
1.683E+18,11.72976172,0.733199954,0.143399999,3.063899994,,,,1.17900002,-1.084900022,9.674799919,,,585,1.912199974,-0.941500023,12.73869991
1.683E+18,11.74976172,0.532199979,0.381499976,2.606699944,,,,1.134799957,-1.077799916,9.68089962,,,586,1.666999936,-0.69629994,12.28759956
1.683E+18,11.76976001,0.435099989,0.507399976,1.394699931,,,,1.104499936,-1.056599975,9.686699867,,,587,1.539599925,-0.549199998,11.0813998
1.683E+18,11.78976172,0.849900007,0.0174,-0.001,,,,1.121099949,-1.0079,9.68999958,,,588,1.970999956,-0.990499999,9.68899958
1.683E+18,11.80976465,1.199699998,-0.314899981,-0.197799996,,,,1.173399925,-0.940299988,9.690599442,,,589,2.373099923,-1.255199969,9.492799446
1.683E+18,11.82976172,1.054499984,-0.833599985,0.842000008,,,,1.220600009,-0.882499993,9.690199852,,,590,2.275099993,-1.716099977,10.53219986
1.683E+18,11.84976172,-0.018199999,-1.011399984,1.134699941,,,,1.244099975,-0.832199991,9.691699982,,,591,1.225899976,-1.843599975,10.82639992
1.683E+18,11.86976172,-0.823199987,-1.26849997,0.846699953,,,,1.254699945,-0.771200001,9.695399284,,,592,0.431499958,-2.039699972,10.54209924
1.683E+18,11.88976172,-0.728100002,-1.279899955,0.178199992,,,,1.2773,-0.710799992,9.69699955,,,593,0.549199998,-1.990699947,9.875199541
1.683E+18,11.90977271,-0.414499998,-1.238399982,-0.760599971,,,,1.326499939,-0.654100001,9.694399834,,,594,0.911999941,-1.892499983,8.933799863
1.683E+18,11.92976172,-0.462599993,-1.111299992,-1.872200012,,,,1.394199967,-0.604699969,9.688099861,,,595,0.931599975,-1.715999961,7.815899849
1.683E+18,11.94976172,-0.652700007,-1.121699929,-2.64989996,,,,1.456799984,-0.564899981,9.681300163,,,596,0.804099977,-1.68659991,7.031400204
1.683E+18,11.96976172,-0.879499972,-1.088799953,-2.725199938,,,,1.487499952,-0.538999975,9.678099632,,,597,0.60799998,-1.627799928,6.952899694
1.683E+18,11.98976172,-1.106299996,-0.843599975,-2.441200018,,,,1.48879993,-0.529299974,9.678500175,,,598,0.382499933,-1.37289995,7.237300158
1.683E+18,12.00976172,-0.972000003,-0.603100002,-1.980999947,,,,1.481899977,-0.534399986,9.679200172,,,599,0.509899974,-1.137499988,7.698200226
1.683E+18,12.02976172,-0.77609998,-0.376599997,-1.648399949,,,,1.47239995,-0.54519999,9.680099487,,,600,0.69629997,-0.921799988,8.031699538
1.683E+18,12.04976172,-0.686100006,-0.204599991,-1.569399953,,,,1.470699906,-0.560199976,9.679499626,,,601,0.7845999,-0.764799967,8.110099673
1.683E+18,12.06976172,-0.707599998,-0.0024,-1.440699935,,,,1.472499967,-0.576099992,9.678299904,,,602,0.764899969,-0.578499992,8.237599969
1.683E+18,12.08976172,-0.851099968,0.071599998,-1.469699979,,,,1.468899965,-0.591300011,9.677899361,,,603,0.617799997,-0.519700013,8.208199382
1.683E+18,12.10976172,-0.895899951,0.195999995,-1.459499955,,,,1.464699984,-0.607899964,9.677499771,,,604,0.568800032,-0.411899969,8.217999816
1.683E+18,12.12976172,-0.91959995,0.435499996,-1.282400012,,,,1.458999991,-0.631599963,9.67689991,,,605,0.539400041,-0.196099967,8.394499898
1.683E+18,12.14976318,-0.819999993,0.663599968,-0.750899971,,,,1.457399964,-0.663599968,9.675000191,,,606,0.637399971,0,8.92410022
1.683E+18,12.16976172,-0.692999959,0.77639997,-0.033999998,,,,1.448099971,-0.697899997,9.673899651,,,607,0.755100012,0.078499973,9.639899652
1.683E+18,12.18976172,-0.476199985,0.917299986,0.545300007,,,,1.43719995,-0.731000006,9.673099518,,,608,0.960999966,0.18629998,10.21839952
1.683E+18,12.20976172,-0.184499994,1.166199923,1.046899915,,,,1.429899931,-0.764099956,9.671599388,,,609,1.245399937,0.402099967,10.7184993
1.683E+18,12.22976172,0.080699995,1.216699958,1.57889998,,,,1.429399967,-0.794999957,9.669199944,,,610,1.510099962,0.421700001,11.24809992
1.683E+18,12.24976172,0.230199993,1.22329998,2.092099905,,,,1.43690002,-0.82129997,9.66590023,,,611,1.667100012,0.40200001,11.75800014
1.683E+18,12.26976001,0.168799996,1.157999992,2.253499985,,,,1.458999991,-0.834399998,9.661499977,,,612,1.627799988,0.323599994,11.91499996
1.683E+18,12.28976172,0.231999993,0.782799959,2.513599873,,,,1.493899941,-0.831799984,9.656399727,,,613,1.725899935,-0.049000025,12.1699996
1.683E+18,12.30976172,0.652399957,0.416699976,3.224900007,,,,1.534399986,-0.818799973,9.651100159,,,614,2.186799943,-0.402099997,12.87600017
1.683E+18,12.32976172,0.868200004,0.20009999,3.634799957,,,,1.583299994,-0.817900002,9.643300056,,,615,2.451499999,-0.617800012,13.27810001
1.683E+18,12.34976172,0.655900002,0.545899987,3.380299807,,,,1.638700008,-0.830299973,9.63299942,,,616,2.29460001,-0.284399986,13.01329923
1.683E+18,12.36976172,-0.108899996,0.87529999,2.134899855,,,,1.687699914,-0.845899999,9.623199463,,,617,1.578799918,0.029399991,11.75809932
1.683E+18,12.38976172,-0.629599988,0.405000001,0.836099982,,,,1.727899909,-0.826699972,9.617699623,,,618,1.098299921,-0.421699971,10.45379961
1.683E+18,12.40977417,-0.330199987,-0.60619998,1.010999918,,,,1.742399931,-0.77639997,9.619299889,,,619,1.412199944,-1.38259995,10.63029981
1.683E+18,12.42976172,0.363000005,-1.197700024,1.918499947,,,,1.735599995,-0.734099984,9.623799324,,,620,2.0986,-1.931800008,11.54229927
1.683E+18,12.44976172,0.169200003,-1.282799959,2.540999889,,,,1.71359992,-0.717599988,9.62899971,,,621,1.882799923,-2.000399947,12.1699996
1.683E+18,12.46976172,-0.324699998,-1.24150002,1.816499949,,,,1.668200016,-0.709899962,9.637599945,,,622,1.343500018,-1.951399982,11.45409989
1.683E+18,12.48976172,-0.338799983,-1.363699913,-0.160599992,,,,1.643099904,-0.685699999,9.64359951,,,623,1.304299921,-2.049399912,9.482999519
1.683E+18,12.50976172,0.059099998,-1.575999975,-1.992799997,,,,1.666799903,-0.650099993,9.642000198,,,624,1.725899901,-2.226099968,7.649200201
1.683E+18,12.52976172,0.515299976,-1.712000012,-2.92599988,,,,1.720499992,-0.631699979,9.633799553,,,625,2.235799968,-2.343699992,6.707799673
1.683E+18,12.54976172,0.520799994,-1.808999896,-3.007499933,,,,1.754199982,-0.6426,9.626999855,,,626,2.274999976,-2.451599896,6.619499922
1.683E+18,12.56976172,0.383599997,-1.480199933,-2.899099827,,,,1.744300008,-0.67719996,9.626399994,,,627,2.127900004,-2.157399893,6.727300167
1.683E+18,12.58976172,-0.022799999,-0.911799967,-2.345199823,,,,1.699800014,-0.715999961,9.631599426,,,628,1.677000016,-1.627799928,7.286399603
1.683E+18,12.60976172,-0.448899984,-0.47209999,-1.99879992,,,,1.645299911,-0.753600001,9.638199806,,,629,1.196399927,-1.225699991,7.639399886
1.683E+18,12.62976172,-0.551599979,-0.26819998,-1.766299963,,,,1.610700011,-0.790799975,9.640999794,,,630,1.059100032,-1.058999956,7.874699831
1.683E+18,12.64976318,-0.4727,-0.1963,-1.471099973,,,,1.600499988,-0.823399961,9.63999939,,,631,1.127799988,-1.019699961,8.168899417
1.683E+18,12.66976172,-0.306400001,-0.171800002,-1.069999933,,,,1.581299901,-0.84799999,9.640999794,,,632,1.2748999,-1.019799992,8.570999861
1.683E+18,12.68976172,-0.166799992,-0.136600003,-0.887499988,,,,1.549600005,-0.863599956,9.644800186,,,633,1.382800013,-1.000199959,8.757300198
1.683E+18,12.70976172,-0.109499998,0.1052,-0.851199985,,,,1.521699905,-0.879899979,9.647799492,,,634,1.412199907,-0.774699979,8.796599507
1.683E+18,12.72976172,0.032499999,0.182699993,-0.666999996,,,,1.49729991,-0.898599982,9.649899483,,,635,1.529799908,-0.715899989,8.982899487
1.683E+18,12.74976172,0.278899997,0.279100001,-0.591499984,,,,1.466599941,-0.916499972,9.652899742,,,636,1.745499939,-0.637399971,9.061399758
1.683E+18,12.76976172,0.730399966,0.208399996,-0.0074,,,,1.426999927,-0.934099972,9.657099724,,,637,2.157399893,-0.725699976,9.649699724
1.683E+18,12.78976172,0.960599959,0.168200001,1.094699979,,,,1.373299956,-0.952699959,9.663099289,,,638,2.333899915,-0.784499958,10.75779927
1.683E+18,12.80976172,0.931799948,0.337300003,2.264099836,,,,1.30400002,-0.974699974,9.670499802,,,639,2.235799968,-0.637399971,11.93459964
1.683E+18,12.82976172,0.750199974,0.561500013,2.846999884,,,,1.240399957,-1.002799988,9.675999641,,,640,1.99059993,-0.441299975,12.52299953
1.683E+18,12.84976172,0.512499988,0.850399971,2.560499907,,,,1.20359993,-1.026899934,9.678099632,,,641,1.716099918,-0.176499963,12.23859954
1.683E+18,12.86976172,0.0898,0.881699979,1.803299904,,,,1.184999943,-1.028800011,9.680199623,,,642,1.274799943,-0.147100031,11.48349953
1.683E+18,12.88976172,0.257099986,0.48119998,2.027899981,,,,1.184399962,-1.020599961,9.681200027,,,643,1.441499949,-0.539399981,11.70910001
1.683E+18,12.90977417,0.232899994,0.3917,2.418200016,,,,1.16929996,-1.019400001,9.683099747,,,644,1.402199954,-0.627700001,12.10129976
1.683E+18,12.92976172,0.159699991,0.426200002,2.523499966,,,,1.134699941,-1.034199953,9.685699463,,,645,1.294399932,-0.607999951,12.20919943
1.683E+18,12.94976172,0.006,0.440200001,2.197599888,,,,1.101999998,-1.048300028,9.68789959,,,646,1.107999998,-0.608100027,11.88549948
1.683E+18,12.96976172,0.159799993,0.232799992,0.987299979,,,,1.075799942,-1.036999941,9.692099571,,,647,1.235599935,-0.804199949,10.67939955
1.683E+18,12.98976172,0.875400007,-0.100400001,-0.035499997,,,,1.085899949,-0.99789995,9.695099831,,,648,1.961299956,-1.09829995,9.659599833
1.683E+18,13.00976318,1.739799976,-0.481399983,0.090300001,,,,1.11379993,-0.950299978,9.696700096,,,649,2.853599906,-1.431699961,9.787000097
1.683E+18,13.02976172,1.985799909,-0.786499977,0.707499981,,,,1.142400026,-0.90989995,9.697199821,,,650,3.128199935,-1.696399927,10.4046998
1.683E+18,13.04976172,1.230599999,-0.983299971,0.756099999,,,,1.162099957,-0.879799962,9.697699547,,,651,2.392699957,-1.863099933,10.45379955
1.683E+18,13.06976172,0.052499998,-0.965599954,0.49969998,,,,1.173300028,-0.848499954,9.699099541,,,652,1.225800026,-1.814099908,10.19879952
1.683E+18,13.08976172,-0.855799973,-0.806999981,0.0077,,,,1.179399967,-0.820800006,9.700799942,,,653,0.323599994,-1.627799988,9.708499942
1.683E+18,13.10976172,-0.992399991,-0.617799997,-1.00090003,,,,1.208199978,-0.794200003,9.699399948,,,654,0.215799987,-1.412,8.698499918
1.683E+18,13.12976172,-0.703099966,-0.583899975,-1.9375,,,,1.262099981,-0.769299984,9.694600105,,,655,0.559000015,-1.353199959,7.757100105
1.683E+18,13.14976172,-0.538199961,-0.473699987,-2.58920002,,,,1.312899947,-0.751999974,9.689199448,,,656,0.774699986,-1.225699961,7.099999428
1.683E+18,13.16976172,-0.647300005,-0.351199985,-2.897799969,,,,1.353399992,-0.747099996,9.684000015,,,657,0.706099987,-1.09829998,6.786200047
1.683E+18,13.18976172,-0.839599967,-0.160599992,-2.687899828,,,,1.378999949,-0.751299977,9.679999352,,,658,0.539399981,-0.911899969,6.992099524
1.683E+18,13.20976172,-0.715599954,0.0115,-2.009500027,,,,1.382499933,-0.766599953,9.678299904,,,659,0.666899979,-0.755099953,7.668799877
1.683E+18,13.22976172,-0.606400013,0.094899997,-1.605700016,,,,1.381099939,-0.791199982,9.676599503,,,660,0.774699926,-0.696299985,8.070899487
1.683E+18,13.24976465,-0.61559999,0.402699977,-1.43569994,,,,1.390299916,-0.814599991,9.673299789,,,661,0.774699926,-0.411900014,8.23759985
1.683E+18,13.26976318,-0.883599997,0.598999977,-1.058599949,,,,1.403299928,-0.844199955,9.668899536,,,662,0.519699931,-0.245199978,8.610299587
1.683E+18,13.28976172,-0.946899951,0.800700009,-0.946399987,,,,1.417599916,-0.869399965,9.664599419,,,663,0.470699966,-0.068699956,8.718199432
1.683E+18,13.30976172,-1.038699985,0.821099997,-1.058899999,,,,1.440799952,-0.889699996,9.65929985,,,664,0.402099967,-0.068599999,8.600399852
1.683E+18,13.32976465,-1.083599925,0.976099968,-1.072999954,,,,1.466099977,-0.907499969,9.653800011,,,665,0.382500052,0.068599999,8.580800056
1.683E+18,13.34976172,-1.078999996,1.084999919,-0.68629998,,,,1.481099963,-0.927999973,9.649600029,,,666,0.402099967,0.156999946,8.963300049
1.683E+18,13.36976001,-1.078799963,1.121099949,-0.076699995,,,,1.48089993,-0.944599986,9.647999763,,,667,0.402099967,0.176499963,9.571299769
1.683E+18,13.38976172,-0.662699997,1.06340003,0.561100006,,,,1.476699948,-0.955499947,9.647600174,,,668,0.813999951,0.107900083,10.20870018
1.683E+18,13.40977271,0.0208,0.901299953,1.250899911,,,,1.489300013,-0.969899952,9.644199371,,,669,1.510100013,-0.068599999,10.89509928
1.683E+18,13.42976172,0.3292,0.869899988,2.17689991,,,,1.504599929,-0.987599969,9.63999939,,,670,1.833799928,-0.117699981,11.8168993
1.683E+18,13.44976172,0.2236,0.862399995,2.768699884,,,,1.512099981,-1.009500027,9.636599541,,,671,1.735699981,-0.147100031,12.40529943
1.683E+18,13.46976172,0.067000002,0.518000007,2.957499981,,,,1.521499991,-1.018199921,9.634200096,,,672,1.588499993,-0.500199914,12.59170008
1.683E+18,13.48976172,0.461799979,-0.346100003,4.05739975,,,,1.538699985,-1.007099986,9.632599831,,,673,2.000499964,-1.353199989,13.68999958
1.683E+18,13.50976172,1.172500014,-0.750099957,5.697299957,,,,1.55369997,-1.005200028,9.630399704,,,674,2.726199985,-1.755299985,15.32769966
1.683E+18,13.52976172,1.004500031,-0.256500006,5.240599632,,,,1.564700007,-1.027999997,9.626199722,,,675,2.569200039,-1.284500003,14.86679935
1.683E+18,13.54976172,0.348499984,0.178800002,2.355399847,,,,1.602999926,-1.041800022,9.61839962,,,676,1.951499909,-0.86300002,11.97379947
1.683E+18,13.56976318,0.223499998,-0.610199988,-0.042199999,,,,1.65929997,-0.997999966,9.613499641,,,677,1.882799968,-1.608199954,9.571299642
1.683E+18,13.58976465,0.797499955,-1.75150001,0.467999995,,,,1.703099966,-0.925599992,9.613100052,,,678,2.500599921,-2.677100003,10.08110005
1.683E+18,13.60976172,1.126899958,-2.346199989,1.729499936,,,,1.707099915,-0.880099952,9.616700172,,,679,2.833999872,-3.226299942,11.34620011
1.683E+18,13.62976172,0.090799995,-1.931199908,1.757699966,,,,1.703699946,-0.873399973,9.617899895,,,680,1.794499941,-2.804599881,11.37559986
1.683E+18,13.64976172,-0.707199991,-1.709100008,0.0858,,,,1.67809999,-0.870000005,9.622699738,,,681,0.970899999,-2.579100013,9.708499737
1.683E+18,13.66976172,-1.013199925,-1.799899936,-2.059499979,,,,1.650699973,-0.838,9.630299568,,,682,0.637500048,-2.637899935,7.570799589
1.683E+18,13.68976172,-0.261399984,-1.576399922,-3.267099857,,,,1.653899908,-0.816299975,9.631599426,,,683,1.392499924,-2.392699897,6.364499569
1.683E+18,13.70976172,0.015799999,-1.328699946,-3.117699862,,,,1.661000013,-0.828700006,9.629300117,,,684,1.676800013,-2.157399952,6.511600256
1.683E+18,13.72976172,-0.488799989,-1.047199965,-2.638200045,,,,1.636199951,-0.86499995,9.630399704,,,685,1.147399962,-1.912199914,6.992199659
1.683E+18,13.74976172,-0.968899965,-0.720499992,-2.52489996,,,,1.586799979,-0.907299995,9.634699821,,,686,0.617900014,-1.627799988,7.109799862
1.683E+18,13.76976172,-0.783599973,-0.452099979,-2.214799881,,,,1.538699985,-0.950100005,9.638400078,,,687,0.755100012,-1.402199984,7.423600197
1.683E+18,13.78976172,-0.401299983,-0.2192,-1.58859992,,,,1.49969995,-0.996699989,9.639800072,,,688,1.098399967,-1.215899989,8.051200151
1.683E+18,13.80976172,0.0111,0.0107,-1.186499953,,,,1.469599962,-1.040400028,9.639900208,,,689,1.480699962,-1.029700029,8.453400254
1.683E+18,13.82976172,0.077799998,0.078499995,-0.933999956,,,,1.432299972,-1.069000006,9.642399788,,,690,1.51009997,-0.990500011,8.708399832
1.683E+18,13.84976172,0.114599995,0.025699999,-0.752799988,,,,1.385699987,-1.084800005,9.647399902,,,691,1.500299983,-1.059100006,8.894599915
1.683E+18,13.86976001,0.437999994,-0.02,-0.668500006,,,,1.346699953,-1.097899914,9.651399612,,,692,1.784699947,-1.117899913,8.982899606
1.683E+18,13.88976172,0.897099972,0.114199996,-0.631199956,,,,1.319100022,-1.114499927,9.653299332,,,693,2.216199994,-1.000299931,9.022099376
1.683E+18,13.90977417,1.083999991,0.470499992,-0.435199976,,,,1.298900008,-1.137399912,9.653399467,,,694,2.3829,-0.66689992,9.218199492
1.683E+18,13.92976172,0.971199989,0.610899985,-0.1219,,,,1.274399996,-1.160099983,9.653999329,,,695,2.245599985,-0.549199998,9.532099329
1.683E+18,13.94976172,0.938899994,0.680299997,0.337899983,,,,1.247900009,-1.180400014,9.654999733,,,696,2.186800003,-0.500100017,9.992899716
1.683E+18,13.96976172,0.804799974,0.671199977,0.77759999,,,,1.215299964,-1.200799942,9.656599998,,,697,2.020099938,-0.529599965,10.43419999
1.683E+18,13.98976465,0.817699969,0.856000006,1.069999933,,,,1.182699919,-1.218799949,9.658399582,,,698,2.000399888,-0.362799942,10.72839952
1.683E+18,14.00976318,0.826399982,0.918199956,1.136899948,,,,1.154399991,-1.23210001,9.660200119,,,699,1.980799973,-0.313900054,10.79710007
1.683E+18,14.02976465,0.78459996,0.862100005,0.713499963,,,,1.137499928,-1.234799981,9.661799431,,,700,1.922099888,-0.372699976,10.37529939
1.683E+18,14.04976172,0.810499966,0.828099966,0.31129998,,,,1.140900016,-1.230199933,9.661999702,,,701,1.951399982,-0.402099967,9.973299682
1.683E+18,14.06976172,0.893399954,0.406699985,1.31219995,,,,1.146199942,-1.230399966,9.661299706,,,702,2.039599895,-0.823699981,10.97349966
1.683E+18,14.08976172,0.723499954,0.192399994,3.036499977,,,,1.120100021,-1.241699934,9.663000107,,,703,1.843599975,-1.04929994,12.69950008
1.683E+18,14.10976172,0.500199974,0.152199998,3.612799883,,,,1.07859993,-1.260399938,9.665299416,,,704,1.578799903,-1.108199939,13.2780993
1.683E+18,14.12976172,0.440699995,0.031999998,3.364199877,,,,1.049899936,-1.257799983,9.6687994,,,705,1.49059993,-1.225799985,13.03299928
1.683E+18,14.14976172,1.197399974,-0.309100002,2.280699968,,,,1.038499951,-1.230499983,9.673500061,,,706,2.235899925,-1.539599985,11.95420003
1.683E+18,14.16976172,1.67779994,-0.570599973,1.472899914,,,,1.067999959,-1.174899936,9.677199364,,,707,2.745799899,-1.745499909,11.15009928
1.683E+18,14.18976172,1.669799924,-0.92749995,1.178900003,,,,1.134799957,-1.112100005,9.677000046,,,708,2.804599881,-2.039599955,10.85590005
1.683E+18,14.20976172,0.623699963,-1.354900002,0.749300003,,,,1.209999919,-1.047699928,9.675099373,,,709,1.833699882,-2.402599931,10.42439938
1.683E+18,14.22976172,-0.710599959,-1.778299928,0.395199984,,,,1.259799957,-0.977199972,9.676099777,,,710,0.549199998,-2.755499899,10.07129976
1.683E+18,14.24976172,-1.566399932,-1.763199925,0.284099996,,,,1.281999946,-0.913899958,9.67939949,,,711,-0.284399986,-2.677099884,9.963499486
1.683E+18,14.26976172,-1.560400009,-1.412400007,0.1153,,,,1.295599937,-0.872399986,9.681399345,,,712,-0.264800072,-2.284799993,9.796699345
1.683E+18,14.28976172,-1.111299992,-1.130900025,-0.464399993,,,,1.307500005,-0.84009999,9.682700157,,,713,0.196200013,-1.971000016,9.218300164
1.683E+18,14.30976172,-0.520500004,-1.119499922,-1.475299954,,,,1.324699998,-0.80249995,9.683499336,,,714,0.804199994,-1.921999872,8.208199382
1.683E+18,14.32976172,-0.1127,-1.110100031,-2.289199829,,,,1.34829998,-0.762899995,9.683400154,,,715,1.23559998,-1.873000026,7.394200325
1.683E+18,14.34976172,-0.100299999,-0.966999948,-2.601099968,,,,1.375199914,-0.739299953,9.681499481,,,716,1.274899915,-1.706299901,7.080399513
1.683E+18,14.36976172,-0.441100001,-0.762399971,-2.401200056,,,,1.402199984,-0.737899959,9.677700043,,,717,0.961099982,-1.500299931,7.276499987
1.683E+18,14.38976172,-0.806099951,-0.462899983,-1.986400008,,,,1.414199948,-0.752999961,9.674799919,,,718,0.608099997,-1.215899944,7.688399911
1.683E+18,14.40977417,-1.024600029,-0.288499981,-1.613399982,,,,1.406999946,-0.770599961,9.674499512,,,719,0.382399917,-1.059099942,8.061099529
1.683E+18,14.42976172,-1.054899931,-0.042999998,-1.310500026,,,,1.388299942,-0.790499985,9.675600052,,,720,0.333400011,-0.833499983,8.365100026
1.683E+18,14.44976172,-1.014599919,0.254500002,-1.104200006,,,,1.377499938,-0.813499987,9.675199509,,,721,0.362900019,-0.558999985,8.570999503
1.683E+18,14.46976172,-1.024099946,0.535099983,-1.052999973,,,,1.377099991,-0.839100003,9.673099518,,,722,0.353000045,-0.30400002,8.620099545
1.683E+18,14.48976172,-0.864199996,0.752499998,-1.108999968,,,,1.383899927,-0.860399961,9.670199394,,,723,0.519699931,-0.107899964,8.561199427
1.683E+18,14.50976172,-0.724099994,0.856000006,-1.136099935,,,,1.390900016,-0.87559998,9.667900085,,,724,0.666800022,-0.019599974,8.531800151
1.683E+18,14.52976172,-0.639800012,0.917599976,-0.869599998,,,,1.394899964,-0.888099968,9.666199684,,,725,0.755099952,0.029500008,8.796599686
1.683E+18,14.54976172,-0.737800002,0.90989995,-0.682199955,,,,1.394799948,-0.900099993,9.665100098,,,726,0.656999946,0.009799957,8.982900143
1.683E+18,14.56976172,-0.634199977,0.910999954,-0.533399999,,,,1.399099946,-0.910999954,9.663399696,,,727,0.764899969,0,9.129999697
1.683E+18,14.58976172,-0.174999997,0.847799957,0.164399996,,,,1.40079999,-0.926299989,9.661699295,,,728,1.225799993,-0.078500032,9.826099291
1.683E+18,14.60976172,0.141499996,0.891599953,0.842999995,,,,1.398000002,-0.950499952,9.659799576,,,729,1.539499998,-0.058899999,10.50279957
1.683E+18,14.62976172,0.1558,0.848100007,1.394099951,,,,1.39349997,-0.975600004,9.657899857,,,730,1.54929997,-0.127499998,11.05199981
1.683E+18,14.64976172,-0.092900001,0.879299998,1.896499991,,,,1.387399912,-1.006799936,9.655599594,,,731,1.294499911,-0.127499938,11.55209959
1.683E+18,14.66976172,-0.336600006,0.938199997,2.125,,,,1.385900021,-1.036299944,9.652699471,,,732,1.049300015,-0.098099947,11.77769947
1.683E+18,14.68976318,-0.229499996,0.583700001,2.314800024,,,,1.396499991,-1.054499984,9.649199486,,,733,1.166999996,-0.470799983,11.96399951
1.683E+18,14.70976465,0.353399992,-0.046499997,2.720199823,,,,1.421499968,-1.051699996,9.645799637,,,734,1.77489996,-1.098199993,12.36599946
1.683E+18,14.72976172,0.942699969,-0.536300004,2.922099829,,,,1.459800005,-1.05219996,9.640099525,,,735,2.402499974,-1.588499963,12.56219935
1.683E+18,14.74976172,1.2227,-0.397799999,3.109200001,,,,1.513299942,-1.073099971,9.629499435,,,736,2.735999942,-1.470899969,12.73869944
1.683E+18,14.76976001,0.61619997,0.136500001,2.56009984,,,,1.550899982,-1.10739994,9.619599342,,,737,2.167099953,-0.97089994,12.17969918
1.683E+18,14.78976172,-0.253100008,0.1391,1.185799956,,,,1.586799979,-1.129599929,9.611199379,,,738,1.333699971,-0.990499929,10.79699934
1.683E+18,14.80976172,-0.431099981,-0.631900012,0.874199986,,,,1.617699981,-1.103799939,9.609000206,,,739,1.1866,-1.735699952,10.48320019
1.683E+18,14.82976172,0.0164,-1.462499976,2.191799879,,,,1.611400008,-1.057699919,9.615300179,,,740,1.627800008,-2.520199895,11.80710006
1.683E+18,14.84976172,0.039999999,-1.862199903,3.155799866,,,,1.587799907,-1.030599952,9.622200012,,,741,1.627799906,-2.892799854,12.77799988
1.683E+18,14.86976001,-0.357899994,-1.901299953,2.187199831,,,,1.554299951,-1.011099935,9.629699707,,,742,1.196399957,-2.912399888,11.81689954
1.683E+18,14.88976172,-0.186299995,-1.844900012,0.0133,,,,1.539600015,-0.969500005,9.636300087,,,743,1.35330002,-2.814400017,9.649600087
1.683E+18,14.90977271,0.306499988,-1.959899902,-1.774099946,,,,1.556699991,-0.913399994,9.639100075,,,744,1.863199979,-2.873299897,7.865000129
1.683E+18,14.92976172,0.638599992,-2.031800032,-2.781499863,,,,1.597199917,-0.870899975,9.636400223,,,745,2.235799909,-2.902700007,6.85490036
1.683E+18,14.94976172,0.251699984,-2.027199984,-3.122900009,,,,1.621299982,-0.846099973,9.634599686,,,746,1.872999966,-2.873299956,6.511699677
1.683E+18,14.96976172,-0.407499999,-1.934499979,-2.910599947,,,,1.603899956,-0.840599954,9.637899399,,,747,1.196399957,-2.775099933,6.727299452
1.683E+18,14.98976172,-0.630400002,-1.592700005,-2.260400057,,,,1.55219996,-0.858799994,9.644800186,,,748,0.921799958,-2.451499999,7.384400129
1.683E+18,15.00976172,-0.437999994,-1.010900021,-1.666999936,,,,1.497099996,-0.901299953,9.649600029,,,749,1.059100002,-1.912199974,7.982600093
1.683E+18,15.02976172,-0.2139,-0.617599964,-1.314999938,,,,1.459399939,-0.951299965,9.65059948,,,750,1.245499939,-1.56889993,8.335599542
1.683E+18,15.04976172,-0.0054,-0.394299984,-1.374899983,,,,1.427399993,-0.988299966,9.65170002,,,751,1.421999993,-1.38259995,8.276800036
1.683E+18,15.06976172,0.15699999,-0.437099993,-1.339100003,,,,1.39230001,-1.004299998,9.655200005,,,752,1.5493,-1.441399992,8.316100001
1.683E+18,15.08976172,0.259599984,-0.378899992,-1.117399931,,,,1.358399987,-1.013499975,9.658999443,,,753,1.617999971,-1.392399967,8.541599512
1.683E+18,15.10976172,0.242399991,-0.268099993,-1.061699986,,,,1.326599956,-1.026199937,9.662099838,,,754,1.568999946,-1.29429993,8.600399852
1.683E+18,15.12976172,0.452699989,0.083700001,-0.82889998,,,,1.29279995,-1.044700027,9.664699554,,,755,1.745499939,-0.961000025,8.835799575
1.683E+18,15.14976172,0.679899991,0.349700004,-0.428799987,,,,1.251999974,-1.075399995,9.666699409,,,756,1.931899965,-0.725699991,9.237899423
1.683E+18,15.16976172,0.830299973,0.70480001,-0.244399995,,,,1.209399939,-1.106899977,9.668600082,,,757,2.039699912,-0.402099967,9.424200088
1.683E+18,15.18976172,0.833099961,0.797499955,-0.138899997,,,,1.167299986,-1.130900025,9.670999527,,,758,2.000399947,-0.333400071,9.53209953
1.683E+18,15.20976172,1.001899958,0.77579999,0.279899985,,,,1.126099944,-1.148399949,9.673799515,,,759,2.127999902,-0.372599959,9.953699499
1.683E+18,15.22976172,1.215799928,0.790199995,1.110899925,,,,1.078799963,-1.172699928,9.676300049,,,760,2.294599891,-0.382499933,10.78719997
1.683E+18,15.24976172,1.24059999,0.855599999,1.609499931,,,,1.034500003,-1.198899984,9.677899361,,,761,2.275099993,-0.343299985,11.28739929
1.683E+18,15.26976172,1.006899953,0.951699972,1.685799956,,,,0.993599951,-1.216499925,9.679999352,,,762,2.000499904,-0.264799953,11.36579931
1.683E+18,15.28976172,0.734899998,1.004400015,1.056399941,,,,0.971299946,-1.220199943,9.681799889,,,763,1.706199944,-0.215799928,10.73819983
1.683E+18,15.30976172,0.596599996,0.629599988,0.83919996,,,,0.972299993,-1.208199978,9.683199883,,,764,1.568899989,-0.578599989,10.52239984
1.683E+18,15.32976172,0.452899992,0.264299989,2.131899834,,,,0.968899965,-1.19599998,9.684999466,,,765,1.421799958,-0.931699991,11.8168993
1.683E+18,15.34976172,0.333599985,0.347299993,2.904700041,,,,0.931400001,-1.210299969,9.686900139,,,766,1.264999986,-0.862999976,12.59160018
1.683E+18,15.36976001,0.042799998,0.348399997,2.481299877,,,,0.898499966,-1.221199989,9.688699722,,,767,0.941299964,-0.872799993,12.1699996
1.683E+18,15.38976172,0.336899996,0.344199985,1.565699935,,,,0.878999949,-1.207199931,9.692199707,,,768,1.215899944,-0.862999946,11.25789964
1.683E+18,15.40977271,1.016799927,0.0473,0.925799966,,,,0.895399988,-1.174999952,9.694699287,,,769,1.912199914,-1.127699953,10.62049925
1.683E+18,15.42976465,1.225099921,-0.421199977,1.110100031,,,,0.932299972,-1.128099918,9.696799278,,,770,2.157399893,-1.549299896,10.80689931
1.683E+18,15.44976465,0.868099988,-0.759899974,1.825099945,,,,0.975499988,-1.083599925,9.697599411,,,771,1.843599975,-1.843499899,11.52269936
1.683E+18,15.46976172,-0.144299999,-1.041199923,1.833199978,,,,1.007300019,-1.037699938,9.699399948,,,772,0.86300002,-2.07889986,11.53259993
1.683E+18,15.48976172,-0.73969996,-1.333699942,1.378899932,,,,1.033900023,-0.980599999,9.70249939,,,773,0.294200063,-2.314299941,11.08139932
1.683E+18,15.50976172,-0.995299995,-1.442899942,0.424999982,,,,1.063899994,-0.920399964,9.705200195,,,774,0.068599999,-2.363299906,10.13020018
1.683E+18,15.52976172,-0.965799987,-1.351699948,-0.859200001,,,,1.112900019,-0.864499986,9.704799652,,,775,0.147100031,-2.216199934,8.845599651
1.683E+18,15.54976172,-0.949499965,-1.246699929,-1.924499989,,,,1.174999952,-0.822399974,9.701099396,,,776,0.225499988,-2.069099903,7.776599407
1.683E+18,15.56976172,-1.178799987,-1.118099928,-2.362799883,,,,1.217999935,-0.794099987,9.698200226,,,777,0.039199948,-1.912199914,7.335400343
1.683E+18,15.58976172,-1.031399965,-0.792699993,-2.107300043,,,,1.227499962,-0.785999954,9.697699547,,,778,0.196099997,-1.578699946,7.590399504
1.683E+18,15.60976172,-0.742299974,-0.410899997,-1.667099953,,,,1.21299994,-0.79519999,9.698699951,,,779,0.470699966,-1.206099987,8.031599998
1.683E+18,15.62976172,-0.644899964,-0.149099991,-1.403299928,,,,1.194100022,-0.811800003,9.699699402,,,780,0.549200058,-0.960899994,8.296399474
1.683E+18,15.64976172,-0.498199999,0.029099999,-1.442699909,,,,1.184700012,-0.823399961,9.699899673,,,781,0.686500013,-0.794299962,8.257199764
1.683E+18,15.66976172,-0.3917,0.064300001,-1.549899936,,,,1.186100006,-0.82919997,9.699199677,,,782,0.794400007,-0.764899969,8.149299741
1.683E+18,15.68976172,-0.378800005,0.0383,-1.715499997,,,,1.192799926,-0.832599998,9.69810009,,,783,0.813999921,-0.794299997,7.982600093
1.683E+18,15.70976172,-0.39139998,0.184699997,-1.596699953,,,,1.195500016,-0.841699958,9.69699955,,,784,0.804100037,-0.656999961,8.100299597
1.683E+18,15.72976172,-0.499299973,0.409699976,-1.52639997,,,,1.195599914,-0.860799968,9.695300102,,,785,0.69629994,-0.451099992,8.168900132
1.683E+18,15.74976172,-0.537099957,0.647599995,-1.328400016,,,,1.194100022,-0.882999957,9.693499565,,,786,0.657000065,-0.235399961,8.365099549
1.683E+18,15.76976001,-0.594399989,0.904999971,-0.935499966,,,,1.182799935,-0.904999971,9.692799568,,,787,0.588399947,0,8.757299602
1.683E+18,15.78976172,-0.708000004,0.890299976,-0.592599988,,,,1.168900013,-0.919699967,9.693099976,,,788,0.460900009,-0.029399991,9.100499988
1.683E+18,15.80976172,-0.613900006,0.863900006,-0.0242,,,,1.163100004,-0.922699988,9.693599701,,,789,0.549199998,-0.058799982,9.669399701
1.683E+18,15.82976172,-0.38349998,0.691500008,0.534500003,,,,1.158200026,-0.926799953,9.693699837,,,790,0.774700046,-0.235299945,10.22819984
1.683E+18,15.84976172,-0.037099998,0.663899958,0.692399979,,,,1.164899945,-0.928599954,9.692799568,,,791,1.127799947,-0.264699996,10.38519955
1.683E+18,15.86976172,0.319599986,0.644599974,0.762999952,,,,1.180699944,-0.92899996,9.690799713,,,792,1.500299931,-0.284399986,10.45379966
1.683E+18,15.88976172,0.564499974,0.550000012,1.09920001,,,,1.200600028,-0.932500005,9.687999725,,,793,1.765100002,-0.382499993,10.78719974
1.683E+18,15.90977417,0.471299976,0.509499967,1.611799955,,,,1.215399981,-0.940999985,9.685400009,,,794,1.686699957,-0.431500018,11.29719996
1.683E+18,15.92976172,0.121299997,0.427699983,2.086199999,,,,1.231999993,-0.957299948,9.681699753,,,795,1.35329999,-0.529599965,11.76789975
1.683E+18,15.94976172,-0.1435,0.167400002,2.080299854,,,,1.251699924,-0.971599996,9.677700043,,,796,1.108199924,-0.804199994,11.7579999
1.683E+18,15.96976172,-0.058599997,-0.211599991,2.202600002,,,,1.284399986,-0.974899948,9.673099518,,,797,1.225799989,-1.186499938,11.87569952
1.683E+18,15.98976172,0.335700005,-0.46329999,2.052099943,,,,1.32159996,-0.987999976,9.666799545,,,798,1.657299966,-1.451299965,11.71889949
1.683E+18,16.00976172,0.668599963,-0.425399989,2.238399982,,,,1.371099949,-1.01609993,9.656999588,,,799,2.039699912,-1.441499919,11.89539957
1.683E+18,16.02976172,0.641799986,-0.055,2.355200052,,,,1.397799969,-1.062899947,9.648099899,,,800,2.039599955,-1.117899947,12.00329995
1.683E+18,16.04976172,0.24499999,0.235499993,1.255599976,,,,1.421999931,-1.108299971,9.639399529,,,801,1.666999921,-0.872799978,10.8949995
1.683E+18,16.06976172,-0.161200002,-0.268700004,0.836699963,,,,1.436100006,-1.113999963,9.636699677,,,802,1.274900004,-1.382699966,10.47339964
1.683E+18,16.08976172,0.015999999,-0.907299995,2.205699921,,,,1.425499916,-1.093099952,9.640699387,,,803,1.441499915,-2.000399947,11.84639931
1.683E+18,16.10976172,0.057599999,-1.307299972,3.603899956,,,,1.403499961,-1.085399985,9.644800186,,,804,1.46109996,-2.392699957,13.24870014
1.683E+18,16.12976172,-0.48209998,-1.502599955,3.057999849,,,,1.36469996,-1.076399922,9.651299477,,,805,0.88259998,-2.578999877,12.70929933
1.683E+18,16.14976172,-0.213499993,-1.895399928,0.266599983,,,,1.350999951,-1.03670001,9.657599449,,,806,1.137499958,-2.932099938,9.924199432
1.683E+18,16.16976172,0.244299993,-2.207900047,-1.893099904,,,,1.383599997,-0.969399989,9.659999847,,,807,1.627899989,-3.177300036,7.766899943
1.683E+18,16.18976172,0.849900007,-2.213500023,-3.104599953,,,,1.444700003,-0.924499989,9.655399323,,,808,2.29460001,-3.138000011,6.55079937
1.683E+18,16.20976172,0.629899979,-1.952799916,-3.059099913,,,,1.488199949,-0.920399964,9.649199486,,,809,2.118099928,-2.87319988,6.590099573
1.683E+18,16.22976172,-0.240799993,-1.599399924,-2.216199875,,,,1.466599941,-0.950299978,9.649600029,,,810,1.225799948,-2.549699903,7.433400154
1.683E+18,16.24976172,-0.793799996,-1.127599955,-1.896699905,,,,1.411599994,-0.990499973,9.653800011,,,811,0.617799997,-2.118099928,7.757100105
1.683E+18,16.26976172,-0.84799999,-0.677699983,-1.575399995,,,,1.367799997,-1.028599977,9.656099319,,,812,0.519800007,-1.706299961,8.080699325
1.683E+18,16.28976172,-0.546099961,-0.482299984,-1.230499983,,,,1.350199938,-1.067000031,9.654399872,,,813,0.804099977,-1.549300015,8.423899889
1.683E+18,16.30976172,0.0035,-0.362499982,-0.96359998,,,,1.339900017,-1.09860003,9.652299881,,,814,1.343400017,-1.461100012,8.688699901
1.683E+18,16.32976172,0.424699992,-0.310499996,-0.631599963,,,,1.31099999,-1.121199965,9.653699875,,,815,1.735699981,-1.431699961,9.022099912
1.683E+18,16.34976172,0.682999969,-0.170099989,-0.351300001,,,,1.268399954,-1.13409996,9.657899857,,,816,1.951399922,-1.304199949,9.306599855
1.683E+18,16.36976172,0.914699972,-0.0381,-0.424099982,,,,1.232800007,-1.138599992,9.661899567,,,817,2.147499979,-1.176699992,9.237799585
1.683E+18,16.38976172,1.17629993,-0.0207,-0.681400001,,,,1.216499925,-1.136399984,9.664299965,,,818,2.392799854,-1.157099985,8.982899964
1.683E+18,16.40977417,1.249799967,-0.055199999,-0.849299967,,,,1.211499929,-1.131299973,9.665499687,,,819,2.461299896,-1.186499972,8.81619972
1.683E+18,16.42976172,1.066799998,0.211799994,-0.937699974,,,,1.208299994,-1.133599997,9.665599823,,,820,2.275099993,-0.921800002,8.727899849
1.683E+18,16.44976465,0.635999978,0.462499976,-0.515500009,,,,1.197700024,-1.148999929,9.665100098,,,821,1.833700001,-0.686499953,9.149600089
1.683E+18,16.46976172,0.385499984,0.672199965,0.151099995,,,,1.173599958,-1.172299981,9.665299416,,,822,1.559099942,-0.500100017,9.81639941
1.683E+18,16.48976172,0.292199999,0.792699993,0.7676,,,,1.139500022,-1.194800019,9.666600227,,,823,1.431700021,-0.402100027,10.43420023
1.683E+18,16.50976172,0.312599987,0.804899991,1.038999915,,,,1.099499941,-1.206900001,9.669699669,,,824,1.412099928,-0.40200001,10.70869958
1.683E+18,16.52976172,0.682399988,0.768899977,0.966699958,,,,1.06309998,-1.210199952,9.673399925,,,825,1.745499969,-0.441299975,10.64009988
1.683E+18,16.54976172,1.227599978,0.757699966,0.708799958,,,,1.037599921,-1.208799958,9.676300049,,,826,2.2651999,-0.451099992,10.38510001
1.683E+18,16.56976318,1.495599985,0.886099994,0.315299988,,,,1.024600029,-1.209699988,9.677599907,,,827,2.520200014,-0.323599994,9.992899895
1.683E+18,16.58976172,1.094099998,0.958199978,-0.066699997,,,,1.023999929,-1.213199973,9.677199364,,,828,2.118099928,-0.254999995,9.610499367
1.683E+18,16.60976172,0.680499971,0.770799994,0.689599991,,,,1.025699973,-1.221899986,9.675899506,,,829,1.706199944,-0.451099992,10.3654995
1.683E+18,16.62976172,0.353399992,0.630100012,2.081500053,,,,0.999799967,-1.238099933,9.676599503,,,830,1.353199959,-0.607999921,11.75809956
1.683E+18,16.64976172,0.20539999,0.537199974,2.727999926,,,,0.961399972,-1.262899995,9.6772995,,,831,1.166799963,-0.725700021,12.40529943
1.683E+18,16.66976465,0.2773,0.119199999,2.873399973,,,,0.938600004,-1.266600013,9.678999901,,,832,1.215900004,-1.147400014,12.55239987
1.683E+18,16.68976465,0.835799992,-0.054499999,2.516299963,,,,0.919499993,-1.249599934,9.683099747,,,833,1.755299985,-1.304099932,12.19939971
1.683E+18,16.70976172,1.071099997,-0.087799996,0.610499978,,,,0.929299951,-1.216400027,9.68639946,,,834,2.000399947,-1.304200023,10.29689944
1.683E+18,16.72976172,1.063899994,-0.472000003,-0.245399997,,,,0.975799978,-1.155799985,9.689199448,,,835,2.039699972,-1.627799988,9.443799451
1.683E+18,16.74976172,0.828199983,-0.977099955,0.330799997,,,,1.025099993,-1.092000008,9.69149971,,,836,1.853299975,-2.069099963,10.02229971
1.683E+18,16.76976172,0.0196,-1.347899914,0.955799997,,,,1.059100032,-1.034999967,9.694099426,,,837,1.078700032,-2.38289988,10.64989942
1.683E+18,16.78976172,-0.792400002,-1.440999985,1.500199914,,,,1.066900015,-0.981099963,9.698900223,,,838,0.274500012,-2.422099948,11.19910014
1.683E+18,16.80976172,-1.060299993,-1.520299911,1.082700014,,,,1.060299993,-0.931299984,9.704500198,,,839,0,-2.451599896,10.78720021
1.683E+18,16.82976172,-0.55369997,-1.307399988,0.146799996,,,,1.073400021,-0.869599998,9.708799362,,,840,0.51970005,-2.176999986,9.855599359
1.683E+18,16.84976172,-0.026799999,-1.237299919,-0.736000001,,,,1.11529994,-0.81219995,9.70909977,,,841,1.088499941,-2.049499869,8.973099768
1.683E+18,16.86976172,-0.051999997,-1.090299964,-1.419999957,,,,1.169999957,-0.763099968,9.706600189,,,842,1.11799996,-1.853399932,8.286600232
1.683E+18,16.88976172,-0.408699989,-0.989199996,-1.790199995,,,,1.212800026,-0.726899981,9.704099655,,,843,0.804100037,-1.716099977,7.91389966
1.683E+18,16.90977563,-0.836999953,-0.763099968,-1.789499998,,,,1.229300022,-0.707799971,9.703499794,,,844,0.392300069,-1.47089994,7.913999796
1.683E+18,16.92976318,-1.032099962,-0.444899976,-1.525200009,,,,1.228199959,-0.702399969,9.703999519,,,845,0.196099997,-1.147299945,8.17879951
1.683E+18,16.94976172,-0.864899993,-0.147,-1.270099998,,,,1.227699995,-0.70599997,9.703800201,,,846,0.362800002,-0.85299997,8.433700204
1.683E+18,16.96976172,-0.673900008,-0.100899994,-1.229699969,,,,1.232900023,-0.712899983,9.702599525,,,847,0.559000015,-0.813799977,8.472899556
1.683E+18,16.98976172,-0.538500011,-0.088999994,-1.405799985,,,,1.234799981,-0.71509999,9.702199936,,,848,0.69629997,-0.804099984,8.296399951
1.683E+18,17.00976172,-0.412299991,0.042999998,-1.513199925,,,,1.236099958,-0.719699979,9.701700211,,,849,0.823799968,-0.676699981,8.188500285
1.683E+18,17.02976172,-0.363099992,0.215599999,-1.227599978,,,,1.235899925,-0.735399961,9.70059967,,,850,0.872799933,-0.519799963,8.472999692
1.683E+18,17.04976172,-0.3662,0.398099989,-0.853899956,,,,1.229099989,-0.760899961,9.699500084,,,851,0.862899989,-0.362799972,8.845600128
1.683E+18,17.06976172,-0.301400006,0.523899972,-0.528800011,,,,1.223199964,-0.788699985,9.697999954,,,852,0.921799958,-0.264800012,9.169199944
1.683E+18,17.08976172,-0.423399985,0.480499983,-0.468499988,,,,1.217700005,-0.813899994,9.69659996,,,853,0.79430002,-0.333400011,9.228099972
1.683E+18,17.10976172,-0.435799986,0.617500007,-0.584199965,,,,1.220299959,-0.833199978,9.694600105,,,854,0.784499973,-0.215699971,9.11040014
