time,seconds_elapsed,z,y,x
1683006629725484000,0.049484130859375,0.6389999985694885,0.0705999955534935,0.009200000204145908
1683006629745485600,0.069485595703125,0.6389999985694885,0.0705999955534935,0.009200000204145908
1683006629765487000,0.089487060546875,0.6389999985694885,0.0705999955534935,0.009200000204145908
1683006629785482500,0.109482421875,0.020499998703598976,-0.0031999999191612005,0.09239999949932098
1683006629805484000,0.129484130859375,0.13729999959468842,-0.07099999487400055,0.3279999792575836
1683006629825482500,0.149482421875,0.2590000033378601,-0.17379999160766602,0.28039997816085815
1683006629845484000,0.169484130859375,0.3772999942302704,-0.1923999935388565,0.16740000247955322
1683006629865484000,0.189484130859375,0.5608999729156494,0.1476999968290329,0.10779999941587448
1683006629885482500,0.209482421875,0.1800999939441681,-0.016200000420212746,-0.0575999990105629
1683006629905482500,0.229482421875,-0.1639000028371811,-0.12690000236034393,0.10029999911785126
1683006629925482500,0.249482421875,-0.3400999903678894,-0.0778999999165535,0.2061000019311905
1683006629945482500,0.269482421875,-0.33319997787475586,0.19599999487400055,0.07360000163316727
1683006629965482500,0.289482421875,-0.20229999721050262,0.20659999549388885,0.1160999983549118
1683006629985482500,0.309482421875,-0.03590000048279762,0.4300999939441681,0.1834999918937683
1683006630005482500,0.329482421875,0.17710000276565552,0.16380000114440918,-0.4560999870300293
1683006630025484000,0.349484130859375,-0.013700000010430813,0.027499999850988388,-0.5087000131607056
1683006630045482500,0.369482421875,0.11169999837875366,0.06769999861717224,-0.535099983215332
1683006630065482500,0.389482421875,0.07249999791383743,0.23349998891353607,-0.667199969291687
1683006630085484000,0.409484130859375,-0.06069999933242798,0.13289999961853027,-0.7976999878883362
1683006630105484000,0.429484130859375,-0.10979999601840973,0.39229997992515564,-1.3291999101638794
1683006630125484000,0.449484130859375,-0.2336999922990799,0.23889999091625214,-1.1037999391555786
1683006630145484000,0.469484130859375,-0.02410000003874302,0.019299998879432678,-0.07509999722242355
1683006630165482500,0.489482421875,0.795699954032898,-0.1445000022649765,1.0749999284744263
1683006630185485600,0.509485595703125,1.3788999319076538,-0.10639999806880951,1.833400011062622
1683006630205482500,0.529482421875,0.9954999685287476,-0.4333999752998352,1.459999918937683
1683006630225484000,0.549484130859375,0.7021999955177307,-0.4269999861717224,1.0694999694824219
1683006630245482500,0.569482421875,0.32850000262260437,0.019099999219179153,0.6678000092506409
1683006630265482500,0.589482421875,-0.2522999942302704,0.6991999745368958,0.17870000004768372
1683006630285482500,0.609482421875,-0.3554999828338623,1.0012999773025513,-0.28669998049736023
1683006630305484000,0.629484130859375,-0.13179999589920044,0.6621999740600586,-0.21769998967647552
1683006630325485600,0.649485595703125,-0.19409999251365662,0.6431999802589417,-0.26350000500679016
1683006630345484000,0.669484130859375,0.18279999494552612,0.760699987411499,-0.505899965763092
1683006630365484000,0.689484130859375,0.799299955368042,0.5109999775886536,-0.3904999792575836
1683006630385482500,0.709482421875,0.7587999701499939,0.495199978351593,-0.4010999798774719
1683006630405484000,0.729484130859375,0.8199999928474426,0.7175999879837036,-0.45659998059272766
1683006630425485600,0.749485595703125,1.022499918937683,0.483599990606308,-0.15070000290870667
1683006630445484000,0.769484130859375,0.6498000025749207,0.31630000472068787,-0.04099999740719795
1683006630465482500,0.789482421875,0.5598999857902527,0.399399995803833,0.018400000408291817
1683006630485482500,0.809482421875,0.40459999442100525,0.4544999897480011,0.05810000002384186
1683006630505484000,0.829484130859375,0.33629998564720154,0.2809000015258789,0.4315999746322632
1683006630525482500,0.849482421875,-0.14219999313354492,0.5799999833106995,0.4518999755382538
1683006630545484000,0.869484130859375,0.21969999372959137,0.3730999827384949,0.9746999740600586
1683006630565482500,0.889482421875,0.20149999856948853,0.001500000013038516,1.4768999814987183
1683006630585484000,0.909484130859375,0.5008000135421753,-0.10379999876022339,1.8427999019622803
1683006630605484000,0.929484130859375,0.5848999619483948,-0.11149999499320984,1.9925999641418457
1683006630625482500,0.949482421875,0.6649999618530273,-0.3384000062942505,2.094099998474121
1683006630645482500,0.969482421875,0.41339999437332153,-0.5187999606132507,2.166100025177002
1683006630665484000,0.989484130859375,0.17080000042915344,-0.6530999541282654,2.418299913406372
1683006630685484000,1.009484130859375,-0.030299998819828033,-1.0605000257492065,2.7121999263763428
1683006630705485600,1.029485595703125,-0.024000000208616257,-0.7414000034332275,2.3190999031066895
1683006630725485600,1.049485595703125,-0.23829999566078186,-0.055299997329711914,1.2135000228881836
1683006630745485600,1.069485595703125,-0.7056999802589417,0.5795999765396118,-0.3684999942779541
1683006630765484000,1.089484130859375,-0.9848999977111816,0.7847999930381775,-1.6090999841690063
1683006630785482500,1.109482421875,-1.438499927520752,0.1460999995470047,-1.6023999452590942
1683006630805484000,1.129484130859375,-1.4148999452590942,-0.3921999931335449,-0.6539999842643738
1683006630825484000,1.149484130859375,-1.6291999816894531,-0.6771000027656555,-0.18199999630451202
1683006630845482500,1.169482421875,-1.5115000009536743,-1.132099986076355,-0.16820000112056732
1683006630865482500,1.189482421875,-1.055999994277954,-1.3255000114440918,-0.45499998331069946
1683006630885482500,1.209482421875,-0.5271999835968018,-1.2208999395370483,-0.9465999603271484
1683006630905482500,1.229482421875,0.010300000198185444,-0.949999988079071,-0.8988999724388123
1683006630925482500,1.249482421875,0.16129998862743378,-0.7689999938011169,-0.4802999794483185
1683006630945482500,1.269482421875,0.07899999618530273,-0.5411999821662903,-0.27799999713897705
1683006630965482500,1.289482421875,-0.08219999819993973,-0.42409998178482056,-0.543999969959259
1683006630985482500,1.309482421875,-0.4494999945163727,-0.18549999594688416,-1.0449999570846558
1683006631005482500,1.329482421875,-0.8253999948501587,-0.1500999927520752,-1.3317999839782715
1683006631025482500,1.349482421875,-1.0058000087738037,-0.23109999299049377,-1.412500023841858
1683006631045482500,1.369482421875,-0.9454999566078186,0.003599999938160181,-1.3454999923706055
1683006631065482500,1.389482421875,-0.7369999885559082,0.5092999935150146,-0.7476999759674072
1683006631085482500,1.409482421875,-0.4366999864578247,0.7935000061988831,-0.8270999789237976
1683006631105482500,1.429482421875,-0.692799985408783,0.9140999913215637,-0.8279999494552612
1683006631125482500,1.449482421875,-0.7226999998092651,0.5964999794960022,-1.2353999614715576
1683006631145482500,1.469482421875,-0.7617999911308289,0.4819999933242798,-1.3830000162124634
1683006631165482500,1.489482421875,-0.6933000087738037,0.6748999953269958,-1.07669997215271
1683006631185482500,1.509482421875,-0.8387999534606934,0.41579997539520264,-0.46379998326301575
1683006631205482500,1.529482421875,-0.08089999854564667,0.8075999617576599,0.4291999936103821
1683006631225482500,1.549482421875,0.2833999991416931,0.3978999853134155,1.5688999891281128
1683006631245482500,1.569482421875,0.30469998717308044,0.14180000126361847,2.974400043487549
1683006631265482500,1.589482421875,0.1761000007390976,-0.2020999938249588,3.6157000064849854
1683006631285482500,1.609482421875,-0.13599999248981476,-0.6955999732017517,3.48799991607666
1683006631305482500,1.629482421875,-0.03830000013113022,-1.2333999872207642,3.2525999546051025
1683006631325482500,1.649482421875,0.3114999830722809,-1.5099999904632568,3.3757998943328857
1683006631345482500,1.669482421875,0.4578999876976013,-1.3956999778747559,3.360599994659424
1683006631365482500,1.689482421875,0.016999999061226845,-0.7739999890327454,1.949299931526184
1683006631385482500,1.709482421875,-0.6960999965667725,-0.661300003528595,0.5507999658584595
1683006631405482500,1.729482421875,-1.1442999839782715,-1.4608999490737915,0.23070000112056732
1683006631425482500,1.749482421875,-0.7281999588012695,-2.127500057220459,0.9563999772071838
1683006631445482500,1.769482421875,-0.21699999272823334,-2.3553998470306396,1.5425999164581299
1683006631465482500,1.789482421875,-0.19179999828338623,-2.6059000492095947,1.4606999158859253
1683006631485482500,1.809482421875,-0.22429999709129333,-2.3285000324249268,0.12060000002384186
1683006631505482500,1.829482421875,-0.33319997787475586,-1.3269000053405762,-1.732699990272522
1683006631525482500,1.849482421875,-0.5333999991416931,-0.9336999654769897,-2.4635000228881836
1683006631545482500,1.869482421875,-0.5748000144958496,-1.476599931716919,-2.3732998371124268
1683006631565482500,1.889482421875,-0.6432999968528748,-1.348099946975708,-2.4226999282836914
1683006631585482500,1.909482421875,-0.6583999991416931,-1.1337000131607056,-2.6610000133514404
1683006631605482500,1.929482421875,-0.335999995470047,-0.9341999888420105,-2.519700050354004
1683006631625482500,1.949482421875,-0.18479999899864197,-0.5198000073432922,-2.2535998821258545
1683006631645482500,1.969482421875,0.02319999970495701,-0.42229998111724854,-1.805899977684021
1683006631665485600,1.989485595703125,0.0908999964594841,-0.2638999819755554,-1.0658999681472778
1683006631685482500,2.009482421875,0.22429999709129333,-0.20799998939037323,-0.4728999733924866
1683006631705482500,2.029482421875,0.20649999380111694,-0.04879999905824661,-0.27889999747276306
1683006631725482500,2.049482421875,0.21480000019073486,0.1437000036239624,-0.3146999776363373
1683006631745482500,2.069482421875,0.24469999969005585,0.18079999089241028,-0.3156999945640564
1683006631765482500,2.089482421875,0.19409999251365662,0.23539999127388,0.1062999963760376
1683006631785482500,2.109482421875,0.25779998302459717,0.03539999946951866,1.0194000005722046
1683006631805482500,2.129482421875,0.1070999950170517,-0.15809999406337738,2.2639000415802
1683006631825482500,2.149482421875,0.12789998948574066,0.13409999012947083,3.1088998317718506
1683006631845482500,2.169482421875,0.24169999361038208,-0.20340000092983246,3.296299934387207
1683006631865482500,2.189482421875,0.5085999965667725,-0.5109999775886536,2.676300048828125
1683006631885482500,2.209482421875,0.5180999636650085,-0.9873999953269958,2.4744999408721924
1683006631905482500,2.229482421875,0.9842000007629395,-0.8230999708175659,2.9665000438690186
1683006631925482500,2.249482421875,1.05649995803833,-0.6259999871253967,3.3964998722076416
1683006631945482500,2.269482421875,0.9134999513626099,-0.49449998140335083,2.452699899673462
1683006631965482500,2.289482421875,0.9208999872207642,-0.1387999951839447,0.30699998140335083
1683006631985482500,2.309482421875,1.1258000135421753,-0.023000000044703484,-0.6692000031471252
1683006632005482500,2.329482421875,0.9965999722480774,-0.15189999341964722,0.2602999806404114
1683006632025482500,2.349482421875,0.4300999939441681,-0.4869000017642975,1.5769000053405762
1683006632045482500,2.369482421875,-0.2962000072002411,-0.9044999480247498,1.7274999618530273
1683006632065482500,2.389482421875,-0.7579999566078186,-1.2818999290466309,0.5284000039100647
1683006632085482500,2.409482421875,-1.073599934577942,-1.222499966621399,-1.2856999635696411
1683006632105482500,2.429482421875,-0.9396999478340149,-1.129499912261963,-2.645699977874756
1683006632125482500,2.449482421875,-0.7245000004768372,-0.9161999821662903,-3.2089998722076416
1683006632145482500,2.469482421875,-0.5959999561309814,-0.7432000041007996,-2.9697999954223633
1683006632165482500,2.489482421875,-0.4957999885082245,-0.5532999634742737,-2.723599910736084
1683006632185482500,2.509482421875,-0.6064000129699707,-0.3093999922275543,-2.6333999633789062
1683006632205482500,2.529482421875,-0.6675999760627747,-0.3465999960899353,-2.611999988555908
1683006632225482500,2.549482421875,-0.767799973487854,-0.2094999998807907,-2.3959999084472656
1683006632245482500,2.569482421875,-0.9891999959945679,-0.28459998965263367,-1.9960999488830566
1683006632265482500,2.589482421875,-0.7870999574661255,-0.1703999936580658,-1.8905999660491943
1683006632285482500,2.609482421875,-0.311599999666214,0.08619999885559082,-1.5805000066757202
1683006632305482500,2.629482421875,-0.006799999624490738,0.017899999395012856,-0.7821999788284302
1683006632325482500,2.649482421875,0.2483000010251999,0.2175000011920929,-0.15869998931884766
1683006632345482500,2.669482421875,0.2441999912261963,0.38009998202323914,0.03799999877810478
1683006632365485600,2.689485595703125,0.06889999657869339,0.34709998965263367,0.05329999700188637
1683006632385482500,2.709482421875,0.16509999334812164,0.3545999825000763,0.5579999685287476
1683006632405482500,2.729482421875,0.4416999816894531,0.3003999888896942,1.548200011253357
1683006632425482500,2.749482421875,0.6193000078201294,0.22689999639987946,2.741799831390381
1683006632445484000,2.769484130859375,0.4066999852657318,0.1386999934911728,3.357999801635742
1683006632465482500,2.789482421875,0.3596999943256378,-0.15649999678134918,3.5220999717712402
1683006632485482500,2.809482421875,0.38359999656677246,-0.5564000010490417,3.7751998901367188
1683006632505482500,2.829482421875,0.12639999389648438,-0.31129997968673706,4.154999732971191
1683006632525484000,2.849484130859375,-0.4693000018596649,0.5622000098228455,3.296099901199341
1683006632545482500,2.869482421875,-0.5008999705314636,-0.15489999949932098,2.2135000228881836
1683006632565482500,2.889482421875,-0.4341000020503998,-1.1292999982833862,1.9052999019622803
1683006632585482500,2.909482421875,-0.32899999618530273,-1.6722999811172485,2.508999824523926
1683006632605482500,2.929482421875,-0.10349999368190765,-2.202899932861328,3.089900016784668
1683006632625482500,2.949482421875,-0.030700000002980232,-2.427299976348877,2.1352999210357666
1683006632645482500,2.969482421875,0.3367999792098999,-2.3041999340057373,-0.33319997787475586
1683006632665484000,2.989484130859375,-0.041999999433755875,-1.6312999725341797,-2.779399871826172
1683006632685482500,3.009482421875,-0.5816999673843384,-1.347599983215332,-3.8569998741149902
1683006632705482500,3.029482421875,-1.1714999675750732,-1.6546999216079712,-3.7109999656677246
1683006632725482500,3.049482421875,-1.6441999673843384,-1.5348999500274658,-3.4982998371124268
1683006632745482500,3.069482421875,-1.765299916267395,-1.0437999963760376,-3.3489999771118164
1683006632765482500,3.089482421875,-1.625999927520752,-0.6807000041007996,-2.9948999881744385
1683006632785482500,3.109482421875,-1.2177000045776367,-0.5508999824523926,-2.1810998916625977
1683006632805484000,3.129484130859375,-0.42499998211860657,-0.4706999957561493,-1.6335999965667725
1683006632825482500,3.149482421875,0.21130000054836273,-0.37129998207092285,-1.4021999835968018
1683006632845482500,3.169482421875,0.5848000049591064,-0.3139999806880951,-0.9946999549865723
1683006632865482500,3.189482421875,0.8869999647140503,-0.22289998829364777,-0.5801999568939209
1683006632885482500,3.209482421875,1.067199945449829,-0.05909999832510948,-0.1664000004529953
1683006632905482500,3.229482421875,1.024899959564209,0.08729999512434006,0.21889999508857727
1683006632925482500,3.249482421875,1.0331000089645386,0.10610000044107437,0.8016999959945679
1683006632945484000,3.269484130859375,1.1661999225616455,-0.05219999700784683,2.0615999698638916
1683006632965485600,3.289485595703125,1.2589999437332153,-0.31929999589920044,3.319399833679199
1683006632985482500,3.309482421875,1.0454999208450317,-0.4269999861717224,3.3320000171661377
1683006633005482500,3.329482421875,0.7422999739646912,-0.23659999668598175,2.301499843597412
1683006633025484000,3.349484130859375,0.3482999801635742,-0.366599977016449,1.7681999206542969
1683006633045482500,3.369482421875,-0.1021999940276146,-0.708299994468689,2.256500005722046
1683006633065485600,3.389485595703125,-0.2947999835014343,-0.5543000102043152,2.8443000316619873
1683006633085482500,3.409482421875,-0.2911999821662903,-0.5455999970436096,2.6397998332977295
1683006633105485600,3.429485595703125,0.03749999776482582,-0.43199998140335083,1.1419999599456787
1683006633125482500,3.449482421875,0.7701999545097351,-0.35989999771118164,0.12159999459981918
1683006633145482500,3.469482421875,1.4527000188827515,-0.40459999442100525,0.6157999634742737
1683006633165484000,3.489484130859375,1.1923999786376953,-0.630299985408783,1.7479000091552734
1683006633185484000,3.509484130859375,0.3026999831199646,-1.083899974822998,2.1117000579833984
1683006633205482500,3.529482421875,-0.4341000020503998,-1.2724000215530396,1.0748000144958496
1683006633225482500,3.549482421875,-1.0930999517440796,-0.9893999695777893,-0.9728999733924866
1683006633245482500,3.569482421875,-1.2912999391555786,-0.5185999870300293,-2.775099992752075
1683006633265482500,3.589482421875,-1.3725999593734741,-0.43050000071525574,-3.6649999618530273
1683006633285482500,3.609482421875,-1.2391999959945679,-0.45019999146461487,-3.5844998359680176
1683006633305484000,3.629484130859375,-1.0056999921798706,-0.2629999816417694,-3.4255998134613037
1683006633325482500,3.649482421875,-0.7824999690055847,-0.05289999768137932,-3.2764999866485596
1683006633345482500,3.669482421875,-0.6665999889373779,-0.043699998408555984,-3.0112998485565186
1683006633365482500,3.689482421875,-0.5034999847412109,-0.08999999612569809,-2.6510000228881836
1683006633385482500,3.709482421875,-0.2523999810218811,0.04019999876618385,-2.146699905395508
1683006633405482500,3.729482421875,0.1525999903678894,0.2700999975204468,-1.3194999694824219
1683006633425482500,3.749482421875,0.22819998860359192,0.5012999773025513,-0.30469998717308044
1683006633445485600,3.769485595703125,-0.022499999031424522,0.6851999759674072,0.07599999755620956
1683006633465482500,3.789482421875,-0.16369999945163727,0.9059000015258789,0.09789999574422836
1683006633485482500,3.809482421875,-0.33399999141693115,0.9583999514579773,0.042399998754262924
1683006633505485600,3.829485595703125,-0.37929999828338623,0.8763999938964844,0.22100000083446503
1683006633525485600,3.849485595703125,-0.22360000014305115,0.6811000108718872,1.044600009918213
1683006633545482500,3.869482421875,0.1680999994277954,0.5940999984741211,2.3264000415802
1683006633565482500,3.889482421875,0.3122999966144562,0.4380999803543091,3.370499849319458
1683006633585484000,3.909484130859375,0.3725999891757965,0.06629999727010727,3.8085999488830566
1683006633605482500,3.929482421875,0.5335999727249146,-0.6335999965667725,4.428199768066406
1683006633625482500,3.949482421875,0.5414999723434448,-0.898099958896637,4.734999656677246
1683006633645482500,3.969482421875,0.4032000005245209,-0.39569997787475586,3.436800003051758
1683006633665485600,3.989485595703125,0.4318999946117401,-0.45579999685287476,1.8212999105453491
1683006633685485600,4.009485595703125,0.3967999815940857,-1.3791999816894531,1.6274999380111694
1683006633705482500,4.029482421875,0.4244000017642975,-2.1210999488830566,2.6152000427246094
1683006633725482500,4.049482421875,0.23559999465942383,-2.5134999752044678,3.2863998413085938
1683006633745485600,4.069485595703125,-0.35599997639656067,-2.7200000286102295,2.2995998859405518
1683006633765482500,4.089482421875,-0.4982999861240387,-2.462899923324585,-0.08819999545812607
1683006633785482500,4.109482421875,-0.5579000115394592,-1.7762999534606934,-2.631899833679199
1683006633805482500,4.129482421875,-0.6972999572753906,-1.2077999114990234,-4.191499710083008
1683006633825482500,4.149482421875,-0.8256999850273132,-1.1294000148773193,-4.263999938964844
1683006633845482500,4.169482421875,-1.0681999921798706,-1.0377999544143677,-3.6191999912261963
1683006633865482500,4.189482421875,-1.3478999137878418,-0.7005999684333801,-2.855799913406372
1683006633885482500,4.209482421875,-1.3111000061035156,-0.37039998173713684,-2.2123000621795654
1683006633905482500,4.229482421875,-1.07260000705719,-0.2224999964237213,-1.878499984741211
1683006633925482500,4.249482421875,-0.7211999893188477,-0.17919999361038208,-1.629499912261963
1683006633945482500,4.269482421875,-0.02929999865591526,-0.1946999877691269,-1.3481999635696411
1683006633965482500,4.289482421875,0.49559998512268066,-0.23009999096393585,-0.9185000061988831
1683006633985482500,4.309482421875,0.8489999771118164,-0.07750000059604645,-0.4194999933242798
1683006634005484000,4.329484130859375,0.8727999925613403,0.017500000074505806,-0.027799999341368675
1683006634025485600,4.349485595703125,0.8696999549865723,0.20409999787807465,0.08009999990463257
1683006634045482500,4.369482421875,0.7028999924659729,0.12439999729394913,0.5898000001907349
1683006634065482500,4.389482421875,0.7335999608039856,-0.09489999711513519,1.9013999700546265
1683006634085484000,4.409484130859375,0.8159999847412109,-0.25929999351501465,3.3564999103546143
1683006634105484000,4.429484130859375,0.7829999923706055,-0.5009999871253967,4.065299987792969
1683006634125482500,4.449482421875,0.6545999646186829,-0.4306999742984772,3.0336999893188477
1683006634145485600,4.469485595703125,0.5812000036239624,-0.5516999959945679,2.333699941635132
1683006634165485600,4.489485595703125,0.3349999785423279,-0.9436999559402466,2.273599863052368
1683006634185482500,4.509482421875,0.16349999606609344,-0.4803999960422516,1.817199945449829
1683006634205482500,4.529482421875,-0.09319999814033508,-0.06839999556541443,0.9641000032424927
1683006634225482500,4.549482421875,-0.26330000162124634,0.08209999650716782,0.0414000004529953
1683006634245484000,4.569484130859375,0.018400000408291817,-0.08829999715089798,0.1891999989748001
1683006634265482500,4.589482421875,0.8822000026702881,-0.19569998979568481,1.4936000108718872
1683006634285482500,4.609482421875,1.0098999738693237,-0.33480000495910645,2.9026999473571777
1683006634305484000,4.629484130859375,0.274399995803833,-0.9059000015258789,3.1438000202178955
1683006634325482500,4.649482421875,-0.35830000042915344,-1.0132999420166016,1.2726999521255493
1683006634345485600,4.669485595703125,-0.9645999670028687,-0.6895999908447266,-1.1517999172210693
1683006634365482500,4.689482421875,-1.2314000129699707,-0.7021999955177307,-2.888200044631958
1683006634385485600,4.709485595703125,-1.3091999292373657,-0.5372999906539917,-3.7623000144958496
1683006634405482500,4.729482421875,-1.2869999408721924,-0.3862999975681305,-3.9038000106811523
1683006634425484000,4.749484130859375,-1.2516000270843506,-0.21379999816417694,-3.5789999961853027
1683006634445484000,4.769484130859375,-1.1531000137329102,0.034699998795986176,-3.159600019454956
1683006634465482500,4.789482421875,-1.0267000198364258,0.06960000097751617,-2.771699905395508
1683006634485482500,4.809482421875,-0.8732999563217163,0.11449999362230301,-2.5216000080108643
1683006634505484000,4.829484130859375,-0.6967999935150146,0.09039999544620514,-2.201900005340576
1683006634525482500,4.849482421875,-0.41349998116493225,0.2142999917268753,-1.8125
1683006634545482500,4.869482421875,-0.10429999977350235,0.45799997448921204,-1.2551000118255615
1683006634565482500,4.889482421875,0.04389999806880951,0.6679999828338623,-0.5892999768257141
1683006634585482500,4.909482421875,0.021900000050663948,0.7414999604225159,-0.0502999983727932
1683006634605485600,4.929485595703125,-0.18779999017715454,0.6746000051498413,0.20499999821186066
1683006634625482500,4.949482421875,-0.3910999894142151,0.5288999676704407,0.4306999742984772
1683006634645482500,4.969482421875,-0.30859997868537903,0.36739999055862427,0.7357999682426453
1683006634665485600,4.989485595703125,-0.06529999524354935,0.2483999878168106,1.4148999452590942
1683006634685482500,5.009482421875,0.12680000066757202,0.1688999980688095,2.299799919128418
1683006634705482500,5.029482421875,0.21789999306201935,-0.03849999979138374,2.9779999256134033
1683006634725482500,5.049482421875,0.4092999994754791,-0.5898000001907349,3.932299852371216
1683006634745482500,5.069482421875,0.5018999576568604,-0.8552999496459961,5.237099647521973
1683006634765482500,5.089482421875,0.35569998621940613,-0.6807999610900879,5.156499862670898
1683006634785482500,5.109482421875,0.21139998733997345,0.004299999680370092,2.856099843978882
1683006634805484000,5.129484130859375,0.0429999977350235,-0.202799990773201,0.2827000021934509
1683006634825482500,5.149482421875,0.12289999425411224,-1.1130999326705933,-0.13019999861717224
1683006634845482500,5.169482421875,0.35830000042915344,-1.6349999904632568,1.3950999975204468
1683006634865482500,5.189482421875,0.1793999969959259,-1.7950999736785889,3.072199821472168
1683006634885482500,5.209482421875,-0.1607999950647354,-2.0046000480651855,3.031100034713745
1683006634905482500,5.229482421875,-0.5834999680519104,-1.6008999347686768,1.0261999368667603
1683006634925485600,5.249485595703125,-0.9065999984741211,-1.1872999668121338,-1.4825999736785889
1683006634945482500,5.269482421875,-0.7200999855995178,-1.0382999181747437,-2.7481000423431396
1683006634965482500,5.289482421875,-0.614799976348877,-0.9824999570846558,-3.0195999145507812
1683006634985482500,5.309482421875,-0.7841999530792236,-0.9134999513626099,-2.913300037384033
1683006635005482500,5.329482421875,-1.000599980354309,-0.6323999762535095,-2.8822999000549316
1683006635025482500,5.349482421875,-1.2134000062942505,-0.307699978351593,-2.758699893951416
1683006635045482500,5.369482421875,-1.152400016784668,-0.09489999711513519,-2.2948999404907227
1683006635065482500,5.389482421875,-0.9287999868392944,0.05079999938607216,-1.6847000122070312
1683006635085482500,5.409482421875,-0.5916000008583069,0.15649999678134918,-1.2696999311447144
1683006635105484000,5.429484130859375,-0.13019999861717224,0.2766999900341034,-0.9603999853134155
1683006635125482500,5.449482421875,0.16200000047683716,0.3008999824523926,-0.8256999850273132
1683006635145482500,5.469482421875,0.29249998927116394,0.18479999899864197,-0.5151999592781067
1683006635165484000,5.489484130859375,0.5066999793052673,0.13840000331401825,-0.03869999945163727
1683006635185482500,5.509482421875,0.6657999753952026,0.09389999508857727,0.8084999918937683
1683006635205485600,5.529485595703125,0.9027999639511108,0.14339999854564667,2.045799970626831
1683006635225482500,5.549482421875,0.864799976348877,0.07339999824762344,3.183199882507324
1683006635245482500,5.569482421875,0.7533999681472778,0.033399999141693115,3.1743998527526855
1683006635265482500,5.589482421875,0.5568000078201294,0.17430000007152557,1.9856998920440674
1683006635285482500,5.609482421875,0.42980000376701355,0.18410000205039978,1.4101999998092651
1683006635305482500,5.629482421875,0.2475999891757965,0.0876999944448471,2.002699851989746
1683006635325482500,5.649482421875,-0.2231999933719635,0.3506999909877777,2.099900007247925
1683006635345482500,5.669482421875,-0.446399986743927,0.468099981546402,1.4601999521255493
1683006635365482500,5.689482421875,-0.5983999967575073,0.33079999685287476,0.9765999913215637
1683006635385482500,5.709482421875,0.08899999409914017,0.04580000042915344,1.6591999530792236
1683006635405482500,5.729482421875,1.150399923324585,-0.11229999363422394,2.7540998458862305
1683006635425482500,5.749482421875,1.4642999172210693,-0.3349999785423279,2.822000026702881
1683006635445482500,5.769482421875,0.9226999878883362,-0.5131999850273132,1.3250999450683594
1683006635465482500,5.789482421875,0.421999990940094,-0.6191999912261963,-0.40199998021125793
1683006635485482500,5.809482421875,-0.3771999776363373,-0.7881999611854553,-1.3553999662399292
1683006635505482500,5.829482421875,-0.9924999475479126,-1.240899920463562,-1.8136999607086182
1683006635525482500,5.849482421875,-1.2906999588012695,-1.1825000047683716,-2.500200033187866
1683006635545482500,5.869482421875,-1.2896000146865845,-0.8815999627113342,-2.9226999282836914
1683006635565482500,5.889482421875,-1.1175999641418457,-0.7099999785423279,-2.972299814224243
1683006635585482500,5.909482421875,-0.8725000023841858,-0.6275999546051025,-3.0399999618530273
1683006635605482500,5.929482421875,-0.545799970626831,-0.4875999987125397,-3.1459999084472656
1683006635625482500,5.949482421875,-0.24859999120235443,-0.26739999651908875,-2.8413000106811523
1683006635645482500,5.969482421875,-0.13419999182224274,-0.07530000060796738,-1.94159996509552
1683006635665484000,5.989484130859375,-0.2021999955177307,0.20520000159740448,-1.015299916267395
1683006635685482500,6.009482421875,-0.17960000038146973,0.4931999742984772,-0.5205000042915344
1683006635705482500,6.029482421875,-0.16489998996257782,0.6319999694824219,-0.37629997730255127
1683006635725482500,6.049482421875,-0.26499998569488525,0.6952999830245972,-0.5340999960899353
1683006635745484000,6.069484130859375,-0.11969999969005585,0.5918999910354614,-0.6211000084877014
1683006635765482500,6.089482421875,0.016300000250339508,0.604699969291687,-0.5694999694824219
1683006635785484000,6.109484130859375,0.07259999960660934,0.5776999592781067,0.23479999601840973
1683006635805484000,6.129484130859375,0.1727999895811081,0.6261999607086182,1.5952999591827393
1683006635825482500,6.149482421875,0.26600000262260437,0.732699990272522,3.0416998863220215
1683006635845485600,6.169485595703125,0.21949999034404755,0.876800000667572,3.282599925994873
1683006635865482500,6.189482421875,0.16699999570846558,0.25669997930526733,3.342099905014038
1683006635885482500,6.209482421875,0.6653000116348267,-0.29659998416900635,4.2978997230529785
1683006635905482500,6.229482421875,1.215399980545044,-0.07069999724626541,4.234999656677246
1683006635925482500,6.249482421875,0.765500009059906,0.014299999922513962,2.9110000133514404
1683006635945485600,6.269485595703125,0.3333999812602997,-0.6825000047683716,1.195199966430664
1683006635965482500,6.289482421875,0.12299999594688416,-1.1585999727249146,0.6764999628067017
1683006635985482500,6.309482421875,0.4311999976634979,-2.142699956893921,2.126800060272217
1683006636005482500,6.329482421875,0.40379998087882996,-2.8827998638153076,3.009199857711792
1683006636025482500,6.349482421875,-0.0802999958395958,-3.077899932861328,1.6900999546051025
1683006636045482500,6.369482421875,-0.5415999889373779,-1.621899962425232,-0.9202999472618103
1683006636065485600,6.389485595703125,-0.10099999606609344,-1.3246999979019165,-2.5085999965667725
1683006636085484000,6.409484130859375,-0.016300000250339508,-1.0089999437332153,-3.0188000202178955
1683006636105484000,6.429484130859375,-0.3199000060558319,-1.3061000108718872,-2.559799909591675
1683006636125482500,6.449482421875,-0.21869999170303345,0.14139999449253082,-2.0815999507904053
1683006636145482500,6.469482421875,-0.2554999887943268,-0.6467999815940857,-1.3005999326705933
1683006636165482500,6.489482421875,0.003599999938160181,-0.2705000042915344,-1.1832000017166138
1683006636185482500,6.509482421875,0.4926999807357788,0.10799999535083771,-1.7894999980926514
1683006636205484000,6.529484130859375,0.7028999924659729,0.755299985408783,-2.0851998329162598
1683006636225482500,6.549482421875,0.3756999969482422,-0.46719998121261597,-1.4031000137329102
1683006636245482500,6.569482421875,0.33069998025894165,0.413100004196167,-0.9467999935150146
1683006636265482500,6.589482421875,-0.34880000352859497,0.4770999848842621,-1.11899995803833
1683006636285482500,6.609482421875,0.6069999933242798,0.10669999569654465,-0.6416000127792358
1683006636305484000,6.629484130859375,0.4107999801635742,0.8836999535560608,-0.6847999691963196
1683006636325482500,6.649482421875,0.3409000039100647,0.3513999879360199,-0.49129998683929443
1683006636345482500,6.669482421875,0.4811999797821045,0.3783999979496002,0.3507999777793884
1683006636365482500,6.689482421875,0.4212999939918518,0.3588999807834625,1.4566999673843384
1683006636385482500,6.709482421875,0.25200000405311584,0.2701999843120575,3.267899990081787
1683006636405482500,6.729482421875,0.7224999666213989,0.2304999977350235,3.19569993019104
1683006636425482500,6.749482421875,0.6976999640464783,-0.10409999638795853,1.9390000104904175
1683006636445482500,6.769482421875,0.8739999532699585,-0.6301999688148499,1.968400001525879
1683006636465482500,6.789482421875,0.5363999605178833,-0.6663999557495117,3.0065999031066895
1683006636485482500,6.809482421875,-0.2685000002384186,-0.0835999995470047,2.935499906539917
1683006636505484000,6.829484130859375,-0.6083999872207642,0.38580000400543213,1.5018999576568604
1683006636525482500,6.849482421875,0.17289999127388,0.12680000066757202,-0.13589999079704285
1683006636545482500,6.869482421875,1.0476999282836914,-0.45170000195503235,-0.10559999942779541
1683006636565482500,6.889482421875,0.9407999515533447,-0.78329998254776,1.160099983215332
1683006636585482500,6.909482421875,-0.2556000053882599,-0.8544999957084656,1.993299961090088
1683006636605482500,6.929482421875,-1.0806999206542969,-0.8438999652862549,1.3844999074935913
1683006636625485600,6.949485595703125,-0.767300009727478,-1.0825999975204468,0.09929999709129333
1683006636645482500,6.969482421875,-0.23629999160766602,-1.1658999919891357,-1.0961999893188477
1683006636665482500,6.989482421875,-0.06229999661445618,-1.0721999406814575,-2.182999849319458
1683006636685482500,7.009482421875,-0.3854999840259552,-0.9498999714851379,-2.966099977493286
1683006636705482500,7.029482421875,-0.7617999911308289,-0.7908999919891357,-3.11299991607666
1683006636725482500,7.049482421875,-0.8194999694824219,-0.45559999346733093,-2.6919000148773193
1683006636745482500,7.069482421875,-0.6283999681472778,-0.24139998853206635,-2.4271998405456543
1683006636765482500,7.089482421875,-0.42399999499320984,0.013599999248981476,-2.3875999450683594
1683006636785482500,7.109482421875,-0.1297999918460846,0.17559999227523804,-2.0929999351501465
1683006636805485600,7.129485595703125,0.08590000122785568,0.33149999380111694,-1.6216999292373657
1683006636825485600,7.149485595703125,0.05819999799132347,0.4790000021457672,-1.3561999797821045
1683006636845484000,7.169484130859375,-0.16759999096393585,0.7044000029563904,-1.257200002670288
1683006636865484000,7.189484130859375,-0.5916000008583069,0.9079999923706055,-0.9422000050544739
1683006636885484000,7.209484130859375,-0.9818999767303467,1.0666999816894531,-0.8132999539375305
1683006636905484000,7.229484130859375,-0.9893999695777893,1.0791000127792358,-0.4982999861240387
1683006636925484000,7.249484130859375,-0.7450000047683716,1.1166999340057373,0.14949999749660492
1683006636945484000,7.269484130859375,-0.306799978017807,1.157099962234497,1.101699948310852
1683006636965484000,7.289484130859375,0.06859999895095825,1.1243000030517578,2.25
1683006636985484000,7.309484130859375,0.21329998970031738,1.2372000217437744,3.104300022125244
1683006637005484000,7.329484130859375,0.14429999887943268,1.027899980545044,2.978299856185913
1683006637025484000,7.349484130859375,0.5103999972343445,0.18599998950958252,3.411799907684326
1683006637045484000,7.369484130859375,0.7831000089645386,-0.3562999963760376,5.287600040435791
1683006637065484000,7.389484130859375,0.43359997868537903,0.04609999805688858,5.557199954986572
1683006637085484000,7.409484130859375,-0.23349998891353607,0.4098999798297882,3.033799886703491
1683006637105484000,7.429484130859375,-0.2938999831676483,-0.3944999873638153,0.3236999809741974
1683006637125484000,7.449484130859375,0.4245999753475189,-1.5763999223709106,0.09309999644756317
1683006637145484000,7.469484130859375,0.833299994468689,-1.9228999614715576,2.1838998794555664
1683006637165484000,7.489484130859375,-0.15760000050067902,-1.730199933052063,2.9582998752593994
1683006637185484000,7.509484130859375,-1.051900029182434,-1.483199954032898,1.279099941253662
1683006637205484000,7.529484130859375,-0.663599967956543,-1.4390000104904175,-1.30239999294281
1683006637225484000,7.549484130859375,0.13589999079704285,-1.423799991607666,-2.9183998107910156
1683006637245484000,7.569484130859375,0.14069999754428864,-1.44569993019104,-3.394899845123291
1683006637265484000,7.589484130859375,-0.370199978351593,-1.2939000129699707,-3.2572999000549316
1683006637285484000,7.609484130859375,-0.958299994468689,-1.1380000114440918,-2.781100034713745
1683006637305484000,7.629484130859375,-1.0396000146865845,-0.8641999959945679,-2.0988998413085938
1683006637325484000,7.649484130859375,-0.7218999862670898,-0.48919999599456787,-1.6593999862670898
1683006637345484000,7.669484130859375,-0.1597999930381775,-0.4056999981403351,-1.5907999277114868
1683006637365484000,7.689484130859375,0.23070000112056732,-0.36319997906684875,-1.670300006866455
1683006637385484000,7.709484130859375,0.4554999768733978,-0.26170000433921814,-1.4268999099731445
1683006637405484000,7.729484130859375,0.4860999882221222,0.032999999821186066,-1.163699984550476
1683006637425484000,7.749484130859375,0.3968999981880188,0.36239999532699585,-0.6938999891281128
1683006637445484000,7.769484130859375,0.1891999989748001,0.5475000143051147,-0.1354999989271164
1683006637465482500,7.789482421875,0.06759999692440033,0.7493000030517578,0.3247999846935272
1683006637485484000,7.809484130859375,0.1453000009059906,0.7856999635696411,1.461899995803833
1683006637505484000,7.829484130859375,0.28110000491142273,0.7708999514579773,2.6180999279022217
1683006637525482500,7.849482421875,0.20559999346733093,0.8169999718666077,2.8720998764038086
1683006637545484000,7.869484130859375,0.16920000314712524,0.6251999735832214,2.2537999153137207
1683006637565484000,7.889484130859375,0.26339998841285706,0.40939998626708984,1.6452999114990234
1683006637585484000,7.909484130859375,0.29989999532699585,0.07090000063180923,2.6938998699188232
1683006637605484000,7.929484130859375,0.14379999041557312,0.20499999821186066,4.104700088500977
1683006637625484000,7.949484130859375,0.05009999871253967,0.6649999618530273,3.39739990234375
1683006637645484000,7.969484130859375,0.6685999631881714,0.583899974822998,1.6003999710083008
1683006637665482500,7.989482421875,1.8118000030517578,-0.23600000143051147,0.25529998540878296
1683006637685481000,8.00948095703125,2.450199842453003,-0.8937000036239624,0.32409998774528503
1683006637705484000,8.029484130859375,1.274999976158142,-1.2994999885559082,0.8349999785423279
1683006637725484000,8.049484130859375,-0.8769999742507935,-1.437399983406067,0.2945999801158905
1683006637745484000,8.069484130859376,-1.8300999402999878,-1.3044999837875366,0.008100000210106373
1683006637765484000,8.089484130859375,-1.3119999170303345,-1.0430999994277954,-0.3262999951839447
1683006637785482500,8.109482421875,-0.4050000011920929,-0.7231000065803528,-1.4529999494552612
1683006637805484000,8.129484130859375,-0.025100000202655792,-0.682699978351593,-2.490299940109253
1683006637825484000,8.149484130859374,-0.018699999898672104,-0.569599986076355,-3.3409998416900635
1683006637845484000,8.169484130859376,-0.3244999945163727,-0.48429998755455017,-3.309999942779541
1683006637865484000,8.189484130859375,-0.47919997572898865,-0.2935999929904938,-2.9271998405456543
1683006637885484000,8.209484130859375,-0.6428999900817871,-0.06300000101327896,-2.5251998901367188
1683006637905482500,8.229482421875,-0.41349998116493225,0.259799987077713,-2.044600009918213
1683006637925482500,8.249482421875,-0.1370999962091446,0.49639999866485596,-1.6805999279022217
1683006637945482500,8.269482421875,0.02290000021457672,0.5791999697685242,-1.2965999841690063
1683006637965482500,8.289482421875,-0.10409999638795853,0.6244999766349792,-0.7368999719619751
1683006637985484000,8.309484130859374,-0.405599981546402,0.8253999948501587,-0.5597999691963196
1683006638005484000,8.329484130859376,-0.7281999588012695,0.9104999899864197,-0.45170000195503235
1683006638025484000,8.349484130859375,-0.7368999719619751,0.9695000052452087,-0.3634999990463257
1683006638045484000,8.369484130859375,-0.34700000286102295,0.9413999915122986,0.27410000562667847
1683006638065484000,8.389484130859374,-0.0072999997064471245,1.1377999782562256,1.480299949645996
1683006638085484000,8.409484130859376,-0.05199999734759331,1.3507000207901,2.783799886703491
1683006638105484000,8.429484130859375,-0.3334999978542328,1.3698999881744385,3.2533998489379883
1683006638125484000,8.449484130859375,-0.5473999977111816,1.073199987411499,2.683300018310547
1683006638145484000,8.469484130859374,-0.11299999803304672,0.32359999418258667,2.7407000064849854
1683006638165484000,8.489484130859376,0.48899999260902405,-0.06449999660253525,3.8973000049591064
1683006638185484000,8.509484130859375,0.3515999913215637,0.04429999738931656,4.516599655151367
1683006638205484000,8.529484130859375,0.0058999997563660145,0.32420000433921814,2.566999912261963
1683006638225482500,8.549482421875,0.26249998807907104,-0.43369999527931213,0.5390999913215637
1683006638245484000,8.569484130859376,0.6444000005722046,-1.489300012588501,0.9914999604225159
1683006638265484000,8.589484130859375,0.3449999988079071,-2.014400005340576,3.0394999980926514
1683006638285484000,8.609484130859375,-0.6333000063896179,-2.041599988937378,3.4579999446868896
1683006638305484000,8.629484130859375,-0.2930999994277954,-2.174999952316284,1.3761999607086182
1683006638325484000,8.649484130859374,0.8173999786376953,-2.316699981689453,-1.2207000255584717
1683006638345484000,8.669484130859376,1.1299999952316284,-2.1277999877929688,-3.207199811935425
1683006638365484000,8.689484130859375,0.33309999108314514,-1.782099962234497,-3.666100025177002
1683006638385482500,8.709482421875,-0.8075000047683716,-1.2003999948501587,-3.021199941635132
1683006638405484000,8.729484130859374,-1.4354000091552734,-0.5525999665260315,-2.33870005607605
1683006638425484000,8.749484130859376,-1.2258999347686768,-0.17809998989105225,-1.7728999853134155
1683006638445482500,8.769482421875,-0.34779998660087585,-0.09549999982118607,-1.7841999530792236
1683006638465481000,8.78948095703125,0.2483999878168106,-0.16040000319480896,-2.0100998878479004
1683006638485481000,8.80948095703125,0.6139999628067017,-0.13369999825954437,-1.9316999912261963
1683006638505482500,8.829482421875,0.8113999962806702,0.003399999812245369,-1.4510999917984009
1683006638525482500,8.849482421875,0.5033999681472778,0.2240999937057495,-1.0009000301361084
1683006638545482500,8.869482421875,0.17029999196529388,0.28849998116493225,-0.825499951839447
1683006638565484000,8.889484130859374,0.12759999930858612,0.4373999834060669,-0.6890999674797058
1683006638585482500,8.909482421875,0.12789998948574066,0.5460000038146973,-0.2775999903678894
1683006638605482500,8.929482421875,0.40959998965263367,0.4901999831199646,0.7615999579429626
1683006638625482500,8.949482421875,0.771399974822998,0.3878999948501587,2.231799840927124
1683006638645482500,8.969482421875,0.973099946975708,0.4456999897956848,3.455899953842163
1683006638665482500,8.989482421875,0.8930999636650085,0.5339999794960022,3.2681000232696533
1683006638685482500,9.009482421875,0.8093999624252319,0.36409997940063477,2.2383999824523926
1683006638705482500,9.029482421875,0.5702999830245972,-0.10509999841451645,2.3861000537872314
1683006638725482500,9.049482421875,-0.15439999103546143,-0.12960000336170197,3.3172998428344727
1683006638745482500,9.069482421875,-0.8536999821662903,0.058399997651576996,2.786799907684326
1683006638765482500,9.089482421875,-0.2935999929904938,-0.03019999898970127,1.1680999994277954
1683006638785482500,9.109482421875,1.2177000045776367,-0.40359997749328613,0.2969000041484833
1683006638805482500,9.129482421875,1.9625999927520752,-0.5009999871253967,1.2314000129699707
1683006638825482500,9.149482421875,0.9623000025749207,-0.30399999022483826,2.390699863433838
1683006638845484000,9.169484130859376,-0.5381999611854553,-0.3465999960899353,1.597000002861023
1683006638865484000,9.189484130859375,-1.3181999921798706,-0.7081999778747559,-0.020399998873472214
1683006638885482500,9.209482421875,-1.11080002784729,-1.0362999439239502,-1.2142999172210693
1683006638905482500,9.229482421875,-0.6801999807357788,-1.1023999452590942,-2.113499879837036
1683006638925482500,9.249482421875,-0.3361999988555908,-0.9962999820709229,-2.64139986038208
1683006638945482500,9.269482421875,-0.1378999948501587,-0.7579999566078186,-3.042799949645996
1683006638965482500,9.289482421875,-0.03669999912381172,-0.6150999665260315,-3.120699882507324
1683006638985484000,9.309484130859374,-0.035599999129772186,-0.46399998664855957,-2.9728000164031982
1683006639005482500,9.329482421875,-0.0429999977350235,-0.24699999392032623,-2.677999973297119
1683006639025482500,9.349482421875,-0.1615999937057495,-0.012799999676644802,-2.2955000400543213
1683006639045482500,9.369482421875,-0.20069999992847443,0.14800000190734863,-1.9619998931884766
1683006639065482500,9.389482421875,-0.22339999675750732,0.37700000405311584,-1.6282999515533447
1683006639085482500,9.409482421875,-0.38819998502731323,0.6119999885559082,-1.5
1683006639105482500,9.429482421875,-0.5885999798774719,0.7131999731063843,-1.4103000164031982
1683006639125482500,9.449482421875,-0.847000002861023,0.6589999794960022,-1.0952999591827393
1683006639145484000,9.469484130859374,-1.084999918937683,0.6036999821662903,-0.45659998059272766
1683006639165482500,9.489482421875,-1.167199969291687,0.5218999981880188,0.4075999855995178
1683006639185482500,9.509482421875,-0.699400007724762,0.6128999590873718,1.5062999725341797
1683006639205482500,9.529482421875,-0.2312999963760376,0.8371999859809875,2.2814998626708984
1683006639225482500,9.549482421875,-0.0892999991774559,1.0907999277114868,2.9392998218536377
1683006639245482500,9.569482421875,-0.2003999948501587,0.909500002861023,2.813199996948242
1683006639265482500,9.589482421875,-0.1559000015258789,0.1996999979019165,2.786799907684326
1683006639285482500,9.609482421875,0.24039998650550842,-0.250900000333786,3.96809983253479
1683006639305484000,9.629484130859375,0.2061000019311905,0.08349999785423279,4.83489990234375
1683006639325482500,9.649482421875,-0.2985000014305115,0.6430000066757202,3.9258999824523926
1683006639345484000,9.669484130859376,-0.46559998393058777,0.19280000030994415,1.4089999198913574
1683006639365484000,9.689484130859375,0.14389999210834503,-1.298200011253357,0.8145999908447266
1683006639385482500,9.709482421875,0.7317000031471252,-2.2781999111175537,2.296299934387207
1683006639405482500,9.729482421875,0.2897000014781952,-2.3794000148773193,3.322499990463257
1683006639425482500,9.749482421875,0.12619999051094055,-2.2642998695373535,2.042799949645996
1683006639445482500,9.769482421875,0.5550000071525574,-2.333199977874756,-0.3507999777793884
1683006639465484000,9.789484130859375,0.6401000022888184,-2.194000005722046,-2.3573999404907227
1683006639485484000,9.809484130859374,-0.15489999949932098,-2.1092000007629395,-3.021899938583374
1683006639505484000,9.829484130859376,-0.9979999661445618,-1.6721999645233154,-2.9064998626708984
1683006639525482500,9.849482421875,-1.1801999807357788,-1.0921000242233276,-2.4990999698638916
1683006639545482500,9.869482421875,-0.9688999652862549,-0.6837999820709229,-2.0118000507354736
1683006639565482500,9.889482421875,-0.31619998812675476,-0.4700999855995178,-1.953399896621704
1683006639585482500,9.909482421875,0.05260000005364418,-0.3407999873161316,-2.1589999198913574
1683006639605482500,9.929482421875,0.0032999999821186066,-0.2549999952316284,-2.2279000282287598
1683006639625482500,9.949482421875,-0.11029999703168869,-0.24219998717308044,-2.0815999507904053
1683006639645484000,9.969484130859374,-0.16839998960494995,0.007799999788403511,-1.7483999729156494
1683006639665484000,9.989484130859376,-0.24939998984336853,0.44029998779296875,-1.2587000131607056
1683006639685482500,10.009482421875,-0.24300000071525574,0.9002999663352966,-1.0149999856948853
1683006639705485600,10.029485595703125,0.06749999523162842,1.0892000198364258,-0.39879998564720154
1683006639725482500,10.049482421875,0.14749999344348907,1.2273999452590942,0.6973999738693237
1683006639745482500,10.069482421875,0.05929999798536301,1.1855000257492065,2.097100019454956
1683006639765482500,10.089482421875,0.21570000052452087,1.0052999258041382,3.0247998237609863
1683006639785485600,10.109485595703125,0.9287999868392944,0.8517000079154968,3.177799940109253
1683006639805484000,10.129484130859375,1.229699969291687,0.694599986076355,2.2627999782562256
1683006639825482500,10.149482421875,1.0881999731063843,0.34199997782707214,2.0650999546051025
1683006639845484000,10.169484130859376,0.5217999815940857,0.08999999612569809,3.925999879837036
1683006639865484000,10.189484130859375,-0.04319999739527702,0.7044999599456787,4.599100112915039
1683006639885482500,10.209482421875,-0.2449999898672104,1.094099998474121,3.2916998863220215
1683006639905482500,10.229482421875,0.7073999643325806,0.8503999710083008,0.6319999694824219
1683006639925482500,10.249482421875,1.9023998975753784,-0.0005999999702908099,-0.8687999844551086
1683006639945482500,10.269482421875,2.4639999866485596,-0.871999979019165,0.14149999618530273
1683006639965484000,10.289484130859375,1.5886999368667603,-1.1438000202178955,1.3566999435424805
1683006639985484000,10.309484130859374,0.1508999913930893,-1.232200026512146,1.257200002670288
1683006640005482500,10.329482421875,-0.4948999881744385,-1.3779000043869019,0.4041999876499176
1683006640025482500,10.349482421875,-0.2701999843120575,-1.4621999263763428,-0.4763000011444092
1683006640045482500,10.369482421875,0.02149999886751175,-1.3106999397277832,-1.3270999193191528
1683006640065482500,10.389482421875,0.09809999912977219,-0.9982999563217163,-2.0118000507354736
1683006640085484000,10.409484130859376,0.011299999430775642,-0.6827999949455261,-2.5790998935699463
1683006640105482500,10.429482421875,-0.2110999971628189,-0.5493999719619751,-3.195499897003174
1683006640125482500,10.449482421875,-0.38499999046325684,-0.538599967956543,-3.5665998458862305
1683006640145482500,10.469482421875,-0.36739999055862427,-0.49149999022483826,-3.673499822616577
1683006640165482500,10.489482421875,-0.2483999878168106,-0.3847000002861023,-3.634500026702881
1683006640185482500,10.509482421875,-0.18559999763965607,-0.2450999915599823,-3.370299816131592
1683006640205482500,10.529482421875,-0.36730000376701355,-0.09389999508857727,-2.713899850845337
1683006640225482500,10.549482421875,-0.5498999953269958,0.026599999517202377,-1.7237999439239502
1683006640245482500,10.569482421875,-0.6825000047683716,0.11249999701976776,-0.5767999887466431
1683006640265482500,10.589482421875,-0.5880999565124512,0.17669999599456787,0.21719999611377716
1683006640285482500,10.609482421875,-0.3227999806404114,0.3743000030517578,0.5216000080108643
1683006640305482500,10.629482421875,-0.06379999965429306,0.62909996509552,0.7881999611854553
1683006640325482500,10.649482421875,-0.005399999674409628,0.8766999840736389,1.3112000226974487
1683006640345484000,10.669484130859376,-0.27619999647140503,1.0937999486923218,2.1183998584747314
1683006640365482500,10.689482421875,-0.5260999798774719,1.1700999736785889,2.9433000087738037
1683006640385485600,10.709485595703125,-0.23569999635219574,0.9485999941825867,3.2771999835968018
1683006640405482500,10.729482421875,0.3919000029563904,0.3652999997138977,3.191699981689453
1683006640425482500,10.749482421875,1.1032999753952026,-0.3564999997615814,4.0117998123168945
1683006640445482500,10.769482421875,1.2384999990463257,-0.42989999055862427,4.5777997970581055
1683006640465482500,10.789482421875,0.5303999781608582,0.04959999769926071,3.730299949645996
1683006640485482500,10.809482421875,-0.028199998661875725,0.5889999866485596,1.2059999704360962
1683006640505482500,10.829482421875,-0.008899999782443047,0.07129999995231628,-0.10009999573230743
1683006640525482500,10.849482421875,0.2019999921321869,-1.160599946975708,1.1108999252319336
1683006640545482500,10.869482421875,0.09619999676942825,-1.800399899482727,2.9931998252868652
1683006640565482500,10.889482421875,-0.6150999665260315,-1.6913999319076538,3.3713998794555664
1683006640585482500,10.909482421875,-0.9838999509811401,-1.3782999515533447,1.5455999374389648
1683006640605482500,10.929482421875,-0.42829999327659607,-1.2466999292373657,-0.6570000052452087
1683006640625482500,10.949482421875,0.05549999698996544,-1.2350000143051147,-2.3145999908447266
1683006640645484000,10.969484130859374,-0.350600004196167,-1.3355000019073486,-3.1213998794555664
1683006640665482500,10.989482421875,-0.9657999873161316,-1.3350999355316162,-3.416100025177002
1683006640685482500,11.009482421875,-1.3150999546051025,-1.2288999557495117,-3.234299898147583
1683006640705482500,11.029482421875,-1.251099944114685,-0.9364999532699585,-2.8561999797821045
1683006640725482500,11.049482421875,-0.884399950504303,-0.7222999930381775,-2.447000026702881
1683006640745482500,11.069482421875,-0.5060999989509583,-0.5978999733924866,-2.3613998889923096
1683006640765482500,11.089482421875,-0.2831999957561493,-0.5401999950408936,-2.130199909210205
1683006640785485600,11.109485595703125,0.02329999953508377,-0.5616999864578247,-1.5952999591827393
1683006640805484000,11.129484130859375,0.12359999865293503,-0.38509997725486755,-1.3346999883651733
1683006640825482500,11.149482421875,0.29600000381469727,-0.11669999361038208,-1.1317999362945557
1683006640845485600,11.169485595703126,0.4334999918937683,0.14549998939037323,-0.8112999796867371
1683006640865484000,11.189484130859375,0.5593000054359436,0.38929998874664307,-0.05989999696612358
1683006640885482500,11.209482421875,0.5776000022888184,0.6150999665260315,1.3087999820709229
1683006640905482500,11.229482421875,0.8262999653816223,0.6261999607086182,2.922799825668335
1683006640925482500,11.249482421875,1.2201999425888062,0.7917999625205994,3.909299850463867
1683006640945482500,11.269482421875,1.569599986076355,0.876800000667572,3.572999954223633
1683006640965482500,11.289482421875,1.6841999292373657,0.4925999939441681,2.865799903869629
1683006640985482500,11.309482421875,1.616499900817871,-0.1615999937057495,3.610499858856201
1683006641005484000,11.329484130859376,1.243499994277954,-0.008200000040233135,4.031300067901611
1683006641025484000,11.349484130859375,0.5090000033378601,0.459199994802475,3.070199966430664
1683006641045482500,11.369482421875,0.12150000035762787,0.7008000016212463,1.0506999492645264
1683006641065482500,11.389482421875,0.5637999773025513,0.483599990606308,-0.7506999969482422
1683006641085482500,11.409482421875,1.1632999181747437,-0.1200999990105629,-0.46209999918937683
1683006641105482500,11.429482421875,1.0628999471664429,-0.6015999913215637,1.2167999744415283
1683006641125482500,11.449482421875,-0.11309999972581863,-0.6651999950408936,2.059000015258789
1683006641145482500,11.469482421875,-1.0607999563217163,-0.7383999824523926,1.3903999328613281
1683006641165482500,11.489482421875,-1.1414999961853027,-0.9932999610900879,0.03739999979734421
1683006641185484000,11.509484130859375,-0.7290999889373779,-1.1232999563217163,-1.2444000244140625
1683006641205485600,11.529485595703125,-0.5412999987602234,-0.8995999693870544,-2.486299991607666
1683006641225499600,11.549499755859374,-0.6067999601364136,-0.571399986743927,-3.1608998775482178
1683006641245482500,11.569482421875,-0.7470999956130981,-0.24560000002384186,-3.2490999698638916
1683006641265482500,11.589482421875,-0.976099967956543,-0.15569999814033508,-3.3479998111724854
1683006641285482500,11.609482421875,-0.9855999946594238,-0.09119999408721924,-3.25
1683006641305482500,11.629482421875,-0.8657999634742737,0.03989999741315842,-3.1618998050689697
1683006641325482500,11.649482421875,-0.7706999778747559,0.21539999544620514,-2.838899850845337
1683006641345485600,11.669485595703126,-0.6042999625205994,0.47669997811317444,-2.4277000427246094
1683006641365484000,11.689484130859375,-0.5012999773025513,0.6105999946594238,-1.9571999311447144
1683006641385485600,11.709485595703125,-0.32819998264312744,0.7127999663352966,-1.4661999940872192
1683006641405485600,11.729485595703125,-0.2903999984264374,0.7838000059127808,-1.0714999437332153
1683006641425482500,11.749482421875,-0.46629998087882996,0.9412999749183655,-0.5680999755859375
1683006641445482500,11.769482421875,-0.5447999835014343,0.9484999775886536,0.17099998891353607
1683006641465482500,11.789482421875,-0.3671000003814697,0.8310999870300293,1.00819993019104
1683006641485482500,11.809482421875,-0.14010000228881836,0.8068999648094177,2.09089994430542
1683006641505482500,11.829482421875,0.0357000008225441,0.8206999897956848,3.4672999382019043
1683006641525482500,11.849482421875,0.11189999431371689,0.6814999580383301,4.4028000831604
1683006641545482500,11.869482421875,0.4195999801158905,-0.11719999462366104,5.007199764251709
1683006641565482500,11.889482421875,1.1531000137329102,-0.7785999774932861,5.887399673461914
1683006641585484000,11.909484130859376,1.1334999799728394,-0.41259998083114624,5.5046000480651855
1683006641605484000,11.929484130859375,0.03929999843239784,0.0949999988079071,2.8794000148773193
1683006641625482500,11.949482421875,-0.49619999527931213,-0.6162999868392944,0.38279998302459717
1683006641645482500,11.969482421875,0.21660000085830688,-1.9983999729156494,0.2669000029563904
1683006641665482500,11.989482421875,1.2619999647140503,-2.17330002784729,1.6055999994277954
1683006641685482500,12.009482421875,0.16300000250339508,-1.57669997215271,2.390199899673462
1683006641705482500,12.029482421875,-1.3420000076293945,-1.003499984741211,1.357100009918213
1683006641725482500,12.049482421875,-1.511299967765808,-0.807699978351593,-0.1282999962568283
1683006641745482500,12.069482421875,-0.5432999730110168,-0.8155999779701233,-1.5575000047683716
1683006641765482500,12.089482421875,-0.4382999837398529,-0.8847999572753906,-2.7174999713897705
1683006641785484000,12.109484130859375,-0.9828999638557434,-0.9359999895095825,-3.1956000328063965
1683006641805484000,12.129484130859375,-1.3125,-0.8966999650001526,-3.238799810409546
1683006641825482500,12.149482421875,-0.9140999913215637,-0.7188000082969666,-3.085599899291992
1683006641845482500,12.169482421875,-0.33239999413490295,-0.5022000074386597,-2.6257998943328857
1683006641865484000,12.189484130859375,0.06030000001192093,-0.45159998536109924,-2.332200050354004
1683006641885482500,12.209482421875,0.21329998970031738,-0.5117999911308289,-2.2460999488830566
1683006641905484000,12.229484130859374,0.15760000050067902,-0.38839998841285706,-1.904599905014038
1683006641925484000,12.249484130859376,0.05289999768137932,-0.17919999361038208,-1.3076999187469482
1683006641945484000,12.269484130859375,-0.03759999945759773,0.0722000002861023,-0.9172999858856201
1683006641965482500,12.289482421875,0.03399999812245369,0.22339999675750732,-0.5473999977111816
1683006641985482500,12.309482421875,0.20789998769760132,0.32850000262260437,0.03779999911785126
1683006642005482500,12.329482421875,0.4306999742984772,0.3596999943256378,0.8294999599456787
1683006642025482500,12.349482421875,0.6509000062942505,0.38040000200271606,2.0327000617980957
1683006642045482500,12.369482421875,0.7448999881744385,0.4790000021457672,2.842900037765503
1683006642065482500,12.389482421875,0.7436999678611755,0.5468999743461609,2.6232998371124268
1683006642085485600,12.409485595703124,1.0016000270843506,0.35909998416900635,1.9149999618530273
1683006642105482500,12.429482421875,1.3740999698638916,0.04339999705553055,2.7493999004364014
1683006642125482500,12.449482421875,1.0976999998092651,0.21679998934268951,3.817999839782715
1683006642145482500,12.469482421875,0.3287000060081482,0.6717999577522278,3.4842000007629395
1683006642165482500,12.489482421875,0.08289999514818192,0.5917999744415283,2.0413999557495117
1683006642185482500,12.509482421875,1.1765999794006348,0.210099995136261,1.1092000007629395
1683006642205482500,12.529482421875,1.882099986076355,-0.12129999697208405,1.4149999618530273
1683006642225484000,12.549484130859375,0.7059999704360962,-0.3001999855041504,2.073199987411499
1683006642245482500,12.569482421875,-1.0851999521255493,-0.457099974155426,1.7364000082015991
1683006642265482500,12.589482421875,-1.6441999673843384,-0.8906999826431274,1.052899956703186
1683006642285482500,12.609482421875,-0.7234999537467957,-1.0871000289916992,0.07759999483823776
1683006642305482500,12.629482421875,0.1039000004529953,-1.0465999841690063,-1.2763999700546265
1683006642325482500,12.649482421875,0.24539999663829803,-0.880299985408783,-2.4529998302459717
1683006642345484000,12.669484130859376,0.04129999876022339,-0.5997999906539917,-3.139899969100952
1683006642365485600,12.689485595703125,-0.35169997811317444,-0.4185999929904938,-3.5224997997283936
1683006642385485600,12.709485595703125,-0.5127999782562256,-0.09699999541044235,-3.7567999362945557
1683006642405484000,12.729484130859374,-0.6922999620437622,-0.02719999849796295,-3.815199851989746
1683006642425482500,12.749482421875,-0.7134000062942505,0.15299999713897705,-3.78659987449646
1683006642445482500,12.769482421875,-0.5950999855995178,0.2689000070095062,-3.198499917984009
1683006642465482500,12.789482421875,-0.39399999380111694,0.5011000037193298,-2.5220999717712402
1683006642485482500,12.809482421875,-0.27149999141693115,0.6389999985694885,-1.6394000053405762
1683006642505482500,12.829482421875,-0.19169999659061432,0.8251000046730042,-1.0013999938964844
1683006642525482500,12.849482421875,-0.24889999628067017,0.8863999843597412,-0.6469999551773071
1683006642545482500,12.869482421875,-0.3366999924182892,0.8090999722480774,-0.46859997510910034
1683006642565482500,12.889482421875,-0.05069999769330025,0.7312999963760376,0.31769999861717224
1683006642585482500,12.909482421875,0.3247999846935272,0.899399995803833,1.212499976158142
1683006642605484000,12.929484130859375,0.35899999737739563,1.0082999467849731,2.333400011062622
1683006642625482500,12.949482421875,0.056599996984004974,1.1207000017166138,3.61080002784729
1683006642645484000,12.969484130859374,-0.251800000667572,0.8223999738693237,4.201900005340576
1683006642665482500,12.989482421875,0.2377999871969223,-0.20919999480247498,4.627799987792969
1683006642685482500,13.009482421875,0.8353999853134155,-0.6852999925613403,5.105799674987793
1683006642705482500,13.029482421875,0.32269999384880066,-0.15079998970031738,3.8036999702453613
1683006642725482500,13.049482421875,-0.7185999751091003,-0.03839999809861183,1.6857999563217163
1683006642745482500,13.069482421875,0.14159999787807465,-1.2131999731063843,0.9080999493598938
1683006642765482500,13.089482421875,1.8179999589920044,-2.267400026321411,1.6263999938964844
1683006642785482500,13.109482421875,2.1703999042510986,-2.619999885559082,3.0683000087738037
1683006642805482500,13.129482421875,0.9205999970436096,-2.2075998783111572,2.7517998218536377
1683006642825482500,13.149482421875,-0.148499995470047,-1.9298999309539795,1.3079999685287476
1683006642845490400,13.169490478515625,-0.4554999768733978,-1.8223999738693237,-0.258899986743927
1683006642865484000,13.189484130859375,-1.0799000263214111,-1.7272999286651611,-1.6554999351501465
1683006642885482500,13.209482421875,-1.7948999404907227,-1.7680000066757202,-2.485999822616577
1683006642905484000,13.229484130859374,-1.7202999591827393,-1.6245999336242676,-3.0553998947143555
1683006642925482500,13.249482421875,-1.2484999895095825,-1.3894000053405762,-3.1064000129699707
1683006642945482500,13.269482421875,-0.7773000001907349,-1.1491999626159668,-2.8242998123168945
1683006642965482500,13.289482421875,-0.6836999654769897,-0.8256999850273132,-2.6305999755859375
1683006642985482500,13.309482421875,-0.7203999757766724,-0.6262999773025513,-2.38919997215271
1683006643005482500,13.329482421875,-0.613099992275238,-0.436599999666214,-2.2572999000549316
1683006643025482500,13.349482421875,-0.30570000410079956,-0.41110000014305115,-2.03659987449646
1683006643045482500,13.369482421875,0.05979999899864197,-0.28119999170303345,-2.1689999103546143
1683006643065482500,13.389482421875,0.45329999923706055,0.08009999990463257,-1.9178999662399292
1683006643085482500,13.409482421875,0.67249995470047,0.5374999642372131,-1.0684000253677368
1683006643105482500,13.429482421875,0.6129999756813049,0.8944000005722046,-0.26739999651908875
1683006643125482500,13.449482421875,0.5508999824523926,1.1906999349594116,0.5634999871253967
1683006643145482500,13.469482421875,0.6692000031471252,1.1306999921798706,1.817099928855896
1683006643165482500,13.489482421875,0.8578999638557434,1.0454999208450317,3.227099895477295
1683006643185482500,13.509482421875,0.8279999494552612,0.9724999666213989,3.577899932861328
1683006643205482500,13.529482421875,0.7389000058174133,0.9629999995231628,2.428799867630005
1683006643225482500,13.549482421875,0.9375,0.7630999684333801,1.7709999084472656
1683006643245482500,13.569482421875,0.9305999875068665,0.8080999851226807,2.9089999198913574
1683006643265482500,13.589482421875,0.2556000053882599,1.174399971961975,3.5179998874664307
1683006643285482500,13.609482421875,-0.3596999943256378,1.2515000104904175,2.3603999614715576
1683006643305482500,13.629482421875,0.5758999586105347,0.7076999545097351,1.2393999099731445
1683006643325482500,13.649482421875,1.7250999212265015,0.218299999833107,1.5002999305725098
1683006643345482500,13.669482421875,1.4505999088287354,-0.014299999922513962,2.5277998447418213
1683006643365482500,13.689482421875,-0.26179999113082886,-0.31379997730255127,2.7795000076293945
1683006643385482500,13.709482421875,-1.4270999431610107,-0.8707000017166138,2.0464999675750732
1683006643405482500,13.729482421875,-1.0060999393463135,-1.4556999206542969,0.9199000000953674
1683006643425482500,13.749482421875,-0.2870999872684479,-1.8070999383926392,-0.6947000026702881
1683006643445482500,13.769482421875,0.22819998860359192,-1.7574999332427979,-2.1693999767303467
1683006643465482500,13.789482421875,0.502299964427948,-1.4067999124526978,-3.034600019454956
1683006643485482500,13.809482421875,0.34039998054504395,-0.8398000001907349,-3.2416999340057373
1683006643505484000,13.829484130859376,-0.1469999998807907,-0.5138999819755554,-3.38919997215271
1683006643525485600,13.849485595703126,-0.5550999641418457,-0.4494999945163727,-3.830699920654297
1683006643545481000,13.86948095703125,-0.8014999628067017,-0.31039997935295105,-4.066499710083008
1683006643565481000,13.88948095703125,-0.8876000046730042,-0.007599999662488699,-3.6160998344421387
1683006643585481000,13.90948095703125,-0.7817999720573425,0.2744999825954437,-2.9012999534606934
1683006643605481000,13.92948095703125,-0.38989999890327454,0.4438000023365021,-2.0195000171661377
1683006643625481000,13.94948095703125,0.1348000019788742,0.6007999777793884,-1.2745000123977661
1683006643645481000,13.96948095703125,0.21400000154972076,0.7675999999046326,-0.8818999528884888
1683006643665482500,13.989482421875,-0.1881999969482422,0.9366999864578247,-0.694599986076355
1683006643685481000,14.00948095703125,-0.49390000104904175,0.9096999764442444,-0.46869999170303345
1683006643705481000,14.02948095703125,-0.15029999613761902,0.9871999621391296,0.24699999392032623
1683006643725481000,14.04948095703125,0.14149999618530273,1.0643999576568604,1.404099941253662
1683006643745482500,14.069482421875,0.39809998869895935,1.3830000162124634,2.7279999256134033
1683006643765482500,14.089482421875,0.34919998049736023,1.3519999980926514,3.336699962615967
1683006643785482500,14.109482421875,0.38169997930526733,0.7112999558448792,2.807999849319458
1683006643805482500,14.129482421875,1.0952999591827393,-0.4867999851703644,3.6143999099731445
1683006643825482500,14.149482421875,1.420799970626831,-0.6172999739646912,5.430299758911133
1683006643845482500,14.169482421875,0.8815999627113342,-0.1021999940276146,4.393099784851074
1683006643865482500,14.189482421875,0.6621999740600586,-0.3212999999523163,1.8377000093460083
1683006643885482500,14.209482421875,1.5414999723434448,-1.559999942779541,1.7727999687194824
1683006643905482500,14.229482421875,1.9688999652862549,-2.3108999729156494,3.7623000144958496
1683006643925482500,14.249482421875,1.131500005722046,-2.2677998542785645,5.021899700164795
1683006643945482500,14.269482421875,0.22679999470710754,-2.2451999187469482,3.359499931335449
1683006643965484000,14.289484130859375,0.258899986743927,-2.2416000366210938,0.15279999375343323
1683006643985485600,14.309485595703125,0.38830000162124634,-2.3626999855041504,-2.360999822616577
1683006644005484000,14.329484130859376,-0.4486999809741974,-2.288599967956543,-3.8432998657226562
1683006644025482500,14.349482421875,-1.7387999296188354,-2.1297998428344727,-4.016600131988525
1683006644045482500,14.369482421875,-2.2860000133514404,-1.5923999547958374,-3.5409998893737793
1683006644065482500,14.389482421875,-1.9297999143600464,-0.9639999866485596,-3.0082998275756836
1683006644085482500,14.409482421875,-0.9871999621391296,-0.6474999785423279,-2.8327999114990234
1683006644105482500,14.429482421875,-0.1712999939918518,-0.4478999972343445,-2.946699857711792
1683006644125482500,14.449482421875,0.08779999613761902,-0.43709999322891235,-2.972899913787842
1683006644145482500,14.469482421875,-0.1695999950170517,-0.36980000138282776,-2.550999879837036
1683006644165482500,14.489482421875,-0.49859997630119324,-0.19820000231266022,-1.5913000106811523
1683006644185482500,14.509482421875,-0.43219998478889465,0.06689999997615814,-0.8669999837875366
1683006644205482500,14.529482421875,-0.09989999979734421,0.30559998750686646,-0.7692999839782715
1683006644225484000,14.549484130859375,0.2669999897480011,0.44759997725486755,-0.7892000079154968
1683006644245484000,14.569484130859376,0.6940000057220459,0.6578999757766724,-0.16200000047683716
1683006644265482500,14.589482421875,0.8737999796867371,0.8513000011444092,1.6212999820709229
1683006644285482500,14.609482421875,0.988099992275238,1.055400013923645,3.492499828338623
1683006644305482500,14.629482421875,0.8406999707221985,1.0556999444961548,3.8813998699188232
1683006644325482500,14.649482421875,0.9372999668121338,0.9042999744415283,2.398200035095215
1683006644345482500,14.669482421875,1.0606999397277832,0.6958000063896179,1.70169997215271
1683006644365482500,14.689482421875,0.5396999716758728,0.41589999198913574,3.6522998809814453
1683006644385482500,14.709482421875,-0.2547999918460846,0.536799967288971,5.118499755859375
1683006644405482500,14.729482421875,-0.6287999749183655,0.5224999785423279,4.150099754333496
1683006644425482500,14.749482421875,0.5977999567985535,0.30480000376701355,0.9954999685287476
1683006644445482500,14.769482421875,2.012500047683716,-0.39579999446868896,-0.770799994468689
1683006644465485600,14.789485595703125,2.075700044631958,-1.211899995803833,0.06279999762773514
1683006644485482500,14.809482421875,0.5584999918937683,-1.3538999557495117,1.8054999113082886
1683006644505482500,14.829482421875,-1.128000020980835,-1.3316999673843384,2.4184000492095947
1683006644525482500,14.849482421875,-1.532099962234497,-1.5335999727249146,1.4139999151229858
1683006644545482500,14.869482421875,-0.37359997630119324,-1.6507999897003174,-0.2719999849796295
1683006644565482500,14.889482421875,0.3021000027656555,-1.5851999521255493,-2.0140998363494873
1683006644585482500,14.909482421875,0.2759999930858612,-1.3596999645233154,-2.816200017929077
1683006644605482500,14.929482421875,-0.17309999465942383,-0.9062999486923218,-3.1401000022888184
1683006644625482500,14.949482421875,-0.6218000054359436,-0.42659997940063477,-3.0715999603271484
1683006644645482500,14.969482421875,-0.6588000059127808,-0.09919999539852142,-2.913800001144409
1683006644665482500,14.989482421875,-0.6251999735832214,0.09519999474287033,-2.9413998126983643
1683006644685482500,15.009482421875,-0.7335999608039856,0.20009998977184296,-2.8910000324249268
1683006644705482500,15.029482421875,-0.7556999921798706,0.31679999828338623,-2.596099853515625
1683006644725482500,15.049482421875,-0.583299994468689,0.517799973487854,-2.0271999835968018
1683006644745482500,15.069482421875,-0.5123000144958496,0.7315999865531921,-1.5755000114440918
1683006644765482500,15.089482421875,-0.689300000667572,0.8810999989509583,-1.2803999185562134
1683006644785482500,15.109482421875,-0.9857999682426453,1.0399999618530273,-1.1715999841690063
1683006644805482500,15.129482421875,-1.0370999574661255,1.1134999990463257,-1.1110999584197998
1683006644825482500,15.149482421875,-0.6017999649047852,1.1699999570846558,-0.4423999786376953
1683006644845482500,15.169482421875,-0.11800000071525574,1.2775999307632446,0.5685999989509583
1683006644865482500,15.189482421875,0.25270000100135803,1.437600016593933,1.5988999605178833
1683006644885482500,15.209482421875,0.4497999846935272,1.4175999164581299,2.589599847793579
1683006644905482500,15.229482421875,0.6703000068664551,1.1663999557495117,3.2381999492645264
1683006644925482500,15.249482421875,0.8554999828338623,0.4802999794483185,3.447499990463257
1683006644945482500,15.269482421875,1.0755000114440918,-0.16449999809265137,4.717400074005127
1683006644965482500,15.289482421875,0.9539999961853027,-0.14059999585151672,5.9182000160217285
1683006644985485600,15.309485595703125,0.2402999997138977,0.12229999899864197,4.825399875640869
1683006645005485600,15.329485595703124,-0.10319999605417252,0.0640999972820282,1.6756999492645264
1683006645025482500,15.349482421875,0.382099986076355,-1.0871000289916992,-0.13519999384880066
1683006645045482500,15.369482421875,0.932699978351593,-1.9239999055862427,0.8757999539375305
1683006645065482500,15.389482421875,0.559499979019165,-1.730699896812439,3.3357999324798584
1683006645085482500,15.409482421875,-0.3944999873638153,-1.285099983215332,3.6694998741149902
1683006645105482500,15.429482421875,-0.2629999816417694,-1.4711999893188477,1.525399923324585
1683006645125482500,15.449482421875,0.5795999765396118,-1.8245999813079834,-1.2259999513626099
1683006645145482500,15.469482421875,0.6200000047683716,-1.984299898147583,-3.1773998737335205
1683006645165485600,15.489485595703124,-0.6072999835014343,-2.1405999660491943,-3.8982999324798584
1683006645185482500,15.509482421875,-1.8459999561309814,-2.043799877166748,-3.7651000022888184
1683006645205482500,15.529482421875,-2.0902998447418213,-1.6080999374389648,-3.3115999698638916
1683006645225482500,15.549482421875,-1.566100001335144,-1.0543999671936035,-2.884899854660034
1683006645245482500,15.569482421875,-1.0262999534606934,-0.6121999621391296,-2.740299940109253
1683006645265482500,15.589482421875,-0.6079999804496765,-0.25119999051094055,-2.6647000312805176
1683006645285482500,15.609482421875,-0.36469998955726624,-0.0005999999702908099,-2.1390998363494873
1683006645305482500,15.629482421875,-0.1517999917268753,0.14800000190734863,-1.5260999202728271
1683006645325482500,15.649482421875,-0.03680000081658363,0.24199999868869781,-1.1088999509811401
1683006645345482500,15.669482421875,0.25669997930526733,0.3693999946117401,-0.8965999484062195
1683006645365482500,15.689482421875,0.47259998321533203,0.6304999589920044,-0.08549999445676804
1683006645385482500,15.709482421875,0.6699000000953674,0.7202000021934509,0.9514999985694885
1683006645405482500,15.729482421875,0.998699963092804,0.7573999762535095,2.037400007247925
1683006645425482500,15.749482421875,1.2592999935150146,0.8093999624252319,2.91759991645813
1683006645445482500,15.769482421875,1.2228999137878418,0.5561000108718872,3.4544999599456787
1683006645465482500,15.789482421875,0.9997999668121338,0.33640000224113464,2.6098999977111816
1683006645485482500,15.809482421875,0.9679999947547913,-0.1582999974489212,2.6701998710632324
1683006645505482500,15.829482421875,0.5860999822616577,-0.20989999175071716,4.395899772644043
1683006645525482500,15.849482421875,-0.2604999840259552,0.32189998030662537,4.443900108337402
1683006645545482500,15.869482421875,-0.5069999694824219,0.7135999798774719,2.78439998626709
1683006645565482500,15.889482421875,0.8159999847412109,0.5885999798774719,0.7040999531745911
1683006645585482500,15.909482421875,2.137399911880493,0.029600000008940697,0.3805999755859375
1683006645605484000,15.929484130859375,2.094099998474121,-0.3026999831199646,1.80239999294281
1683006645625484000,15.949484130859375,0.10849999636411667,-0.5446000099182129,2.477299928665161
1683006645645482500,15.969482421875,-1.8148999214172363,-0.9140999913215637,1.5507999658584595
1683006645665482500,15.989482421875,-1.8636999130249023,-1.546299934387207,-0.23739999532699585
1683006645685482500,16.009482421875,-0.861799955368042,-1.7383999824523926,-1.9816999435424805
1683006645705482500,16.029482421875,-0.46949997544288635,-1.5994999408721924,-3.077399969100952
1683006645725482500,16.049482421875,-0.5048999786376953,-1.2122999429702759,-3.4111998081207275
1683006645745482500,16.069482421875,-0.5130000114440918,-0.7584999799728394,-3.4233999252319336
1683006645765482500,16.089482421875,-0.32189998030662537,-0.39649999141693115,-3.365999937057495
1683006645785484000,16.109484130859375,-0.24799999594688416,-0.1818999946117401,-3.1211998462677
1683006645805484000,16.129484130859375,-0.4145999848842621,-0.06260000169277191,-2.9845998287200928
1683006645825482500,16.149482421875,-0.40549999475479126,0.11669999361038208,-2.6919000148773193
1683006645845482500,16.169482421875,-0.16329999268054962,0.37219998240470886,-2.213399887084961
1683006645865482500,16.189482421875,-0.06359999626874924,0.613099992275238,-1.7242999076843262
1683006645885482500,16.209482421875,-0.040699999779462814,0.6942999958992004,-1.1365000009536743
1683006645905482500,16.229482421875,-0.06480000168085098,0.7902999520301819,-0.8822999596595764
1683006645925482500,16.249482421875,-0.14729999005794525,0.8793999552726746,-0.7745999693870544
1683006645945482500,16.269482421875,0.05739999935030937,0.9371999502182007,-0.3034999966621399
1683006645965482500,16.289482421875,0.2578999996185303,0.8878999948501587,0.432699978351593
1683006645985482500,16.309482421875,0.3211999833583832,0.8628000020980835,1.1102999448776245
1683006646005482500,16.329482421875,0.5033999681472778,1.087899923324585,2.160599946975708
1683006646025482500,16.349482421875,0.49480000138282776,1.2990000247955322,3.0448999404907227
1683006646045482500,16.369482421875,0.3587999939918518,1.0591999292373657,3.2632999420166016
1683006646065482500,16.389482421875,0.8560999631881714,0.3270999789237976,3.1895999908447266
1683006646085482500,16.409482421875,1.195099949836731,-0.1386999934911728,3.628199815750122
1683006646105482500,16.429482421875,0.48240000009536743,0.029600000008940697,3.0476999282836914
1683006646125482500,16.449482421875,-0.2019999921321869,0.13930000364780426,2.133699893951416
1683006646145482500,16.469482421875,0.12459999322891235,-0.4052000045776367,1.6990998983383179
1683006646165482500,16.489482421875,0.5932999849319458,-1.1503000259399414,2.702699899673462
1683006646185482500,16.509482421875,0.5094000101089478,-1.5115000009536743,4.378799915313721
1683006646205482500,16.529482421875,0.04429999738931656,-1.6395999193191528,4.424699783325195
1683006646225482500,16.549482421875,0.06689999997615814,-1.772499918937683,2.2660999298095703
1683006646245482500,16.569482421875,0.32179999351501465,-2.0444998741149902,-0.25040000677108765
1683006646265482500,16.589482421875,0.05929999798536301,-2.296599864959717,-2.7616000175476074
1683006646285482500,16.609482421875,-0.972599983215332,-2.2177999019622803,-4.154399871826172
1683006646305482500,16.629482421875,-2.0980000495910645,-1.799899935722351,-3.975299835205078
1683006646325482500,16.649482421875,-2.572700023651123,-1.1251999139785767,-3.4700000286102295
1683006646345485600,16.669485595703126,-2.0195000171661377,-0.49379998445510864,-2.846099853515625
1683006646365484000,16.689484130859373,-1.0443999767303467,-0.00039999998989515007,-2.513399839401245
1683006646385482500,16.709482421875,-0.37880000472068787,0.16920000314712524,-2.386199951171875
1683006646405484000,16.729484130859376,-0.07129999995231628,0.155799999833107,-2.1129000186920166
1683006646425482500,16.749482421875,0.15850000083446503,0.16409999132156372,-1.6830999851226807
1683006646445482500,16.769482421875,0.2919999957084656,0.27719998359680176,-1.5378999710083008
1683006646465482500,16.789482421875,0.3328999876976013,0.468099981546402,-1.2757999897003174
1683006646485482500,16.809482421875,0.39479997754096985,0.6355999708175659,-0.661799967288971
1683006646505482500,16.829482421875,0.45619997382164,0.7853999733924866,0.3237999975681305
1683006646525482500,16.849482421875,0.6944999694824219,0.8741999864578247,1.8183999061584473
1683006646545482500,16.869482421875,0.8629999756813049,0.7649999856948853,3.4592998027801514
1683006646565482500,16.889482421875,1.0184999704360962,0.43309998512268066,4.0513997077941895
1683006646585482500,16.909482421875,1.236199975013733,0.2599000036716461,2.8409998416900635
1683006646605482500,16.929482421875,1.2425999641418457,-0.15869998931884766,1.6847000122070312
1683006646625482500,16.949482421875,0.8032000064849854,-0.6539999842643738,2.3838999271392822
1683006646645482500,16.969482421875,-0.15619999170303345,-0.4731999933719635,3.244799852371216
1683006646665484000,16.989484130859374,-1.261199951171875,0.08410000056028366,2.4559998512268066
1683006646685482500,17.009482421875,-1.4090999364852905,0.11710000038146973,0.5794999599456787
1683006646705482500,17.029482421875,0.23629999160766602,-0.323199987411499,-0.2818000018596649
1683006646725484000,17.049484130859376,1.9655998945236206,-0.59579998254776,0.6240999698638916
1683006646745484000,17.069484130859376,2.080199956893921,-0.8227999806404114,2.449399948120117
1683006646765482500,17.089482421875,0.2797999978065491,-0.8055999875068665,2.4265999794006348
1683006646785482500,17.109482421875,-1.1115999221801758,-1.0405999422073364,1.3050999641418457
1683006646805482500,17.129482421875,-0.6679999828338623,-1.2443000078201294,0.2565999925136566
1683006646825482500,17.149482421875,-0.3967999815940857,-1.169600009918213,-1.0625
1683006646845482500,17.169482421875,-0.7141000032424927,-0.9151999950408936,-2.4213998317718506
1683006646865482500,17.189482421875,-0.9369999766349792,-0.6166999936103821,-3.1159000396728516
1683006646885482500,17.209482421875,-0.7865999937057495,-0.28459998965263367,-3.448499917984009
1683006646905482500,17.229482421875,-0.5483999848365784,-0.07270000129938126,-3.545499801635742
1683006646925482500,17.249482421875,-0.3919999897480011,0.06529999524354935,-3.4567999839782715
1683006646945482500,17.269482421875,-0.2978000044822693,0.19990000128746033,-3.2214999198913574
1683006646965484000,17.289484130859375,-0.1793999969959259,0.35109999775886536,-2.741299867630005
1683006646985484000,17.309484130859374,-0.08789999783039093,0.5282999873161316,-2.13349986076355
1683006647005482500,17.329482421875,-0.11669999361038208,0.7925999760627747,-1.7901999950408936
1683006647025484000,17.349484130859373,-0.18069998919963837,1.0830999612808228,-1.416700005531311
1683006647045482500,17.369482421875,-0.24709999561309814,1.2409999370574951,-0.9449999928474426
1683006647065482500,17.389482421875,-0.28939998149871826,1.3306000232696533,-0.384799987077713
1683006647085482500,17.409482421875,-0.29600000381469727,1.256600022315979,0.21570000052452087
1683006647105482500,17.429482421875,0.08060000091791153,1.2274999618530273,0.9850999712944031
1683006647125482500,17.449482421875,0.5205999612808228,1.3040000200271606,1.9707999229431152
1683006647145482500,17.469482421875,0.4603999853134155,1.2803999185562134,3.2005999088287354
1683006647165482500,17.489482421875,0.3427000045776367,1.107100009918213,3.9871997833251953
1683006647185485600,17.509485595703126,0.5665000081062317,0.28689998388290405,4.7841997146606445
1683006647205482500,17.529482421875,0.9684999585151672,-0.4406999945640564,5.5941996574401855
1683006647225482500,17.549482421875,0.7475000023841858,-0.42559999227523804,5.054199695587158
1683006647245482500,17.569482421875,0.03669999912381172,0.13359999656677246,3.182999849319458
1683006647265484000,17.589484130859375,-0.42229998111724854,0.09619999676942825,0.9188999533653259
1683006647285484000,17.609484130859375,-0.24699999392032623,-1.0230000019073486,0.18479999899864197
1683006647305482500,17.629482421875,0.6240000128746033,-2.049099922180176,1.855699896812439
1683006647325482500,17.649482421875,0.5005999803543091,-2.2035000324249268,3.4905998706817627
1683006647345482500,17.669482421875,-0.41609999537467957,-2.0825998783111572,2.708699941635132
1683006647365482500,17.689482421875,-0.5827000141143799,-2.212100028991699,0.6047999858856201
1683006647385482500,17.709482421875,-0.03359999880194664,-2.088899850845337,-1.7755999565124512
1683006647405482500,17.729482421875,-0.06870000064373016,-2.0190000534057617,-3.1201999187469482
1683006647425482500,17.749482421875,-0.6559000015258789,-1.9556999206542969,-3.5762999057769775
1683006647445482500,17.769482421875,-1.5198999643325806,-1.6058999300003052,-3.755499839782715
1683006647465482500,17.789482421875,-1.8476999998092651,-1.04830002784729,-3.4398999214172363
1683006647485482500,17.809482421875,-1.4835000038146973,-0.43949997425079346,-2.8101999759674072
1683006647505482500,17.829482421875,-0.8057999610900879,-0.044499997049570084,-2.490299940109253
1683006647525482500,17.849482421875,-0.3959999978542328,0.17979998886585236,-2.3645999431610107
1683006647545482500,17.869482421875,-0.07009999454021454,0.321399986743927,-1.8966000080108643
1683006647565482500,17.889482421875,-0.04580000042915344,0.4730999767780304,-1.4107999801635742
1683006647585482500,17.909482421875,0.06419999897480011,0.5478000044822693,-1.05239999294281
1683006647605484000,17.929484130859375,0.2651999890804291,0.5444999933242798,-0.781499981880188
1683006647625482500,17.949482421875,0.6022999882698059,0.520799994468689,-0.5097000002861023
1683006647645482500,17.969482421875,0.7206000089645386,0.4721999764442444,0.01719999872148037
1683006647665482500,17.989482421875,0.9048999547958374,0.3464999794960022,1.1022999286651611
1683006647685482500,18.009482421875,1.0850999355316162,0.32839998602867126,2.5490000247955322
1683006647705485600,18.029485595703125,1.0197999477386475,0.3871999979019165,3.2009999752044678
1683006647725484000,18.049484130859376,0.8765999674797058,0.5403000116348267,2.7764999866485596
1683006647745482500,18.069482421875,1.0914000272750854,0.1648000031709671,2.697999954223633
1683006647765482500,18.089482421875,1.2116999626159668,-0.18889999389648438,4.071700096130371
1683006647785482500,18.109482421875,0.6211000084877014,0.03749999776482582,4.41379976272583
1683006647805482500,18.129482421875,-0.375900000333786,0.613099992275238,2.8810999393463135
1683006647825482500,18.149482421875,-0.10849999636411667,0.6502000093460083,0.7799999713897705
1683006647845482500,18.169482421875,1.0929999351501465,0.18219999969005585,0.16439999639987946
1683006647865482500,18.189482421875,2.200700044631958,0.0016999999061226845,1.698799967765808
1683006647885482500,18.209482421875,1.0078999996185303,-0.24629999697208405,3.348599910736084
1683006647905482500,18.229482421875,-0.9695999622344971,-0.3050000071525574,2.9312000274658203
1683006647925485600,18.249485595703124,-1.9362999200820923,-0.8277999758720398,1.4708999395370483
1683006647945482500,18.269482421875,-0.9449999928474426,-1.1861000061035156,-0.2466999888420105
1683006647965482500,18.289482421875,-0.24409998953342438,-1.3953999280929565,-2.0729000568389893
1683006647985482500,18.309482421875,-0.16169999539852142,-1.2857999801635742,-3.563199996948242
1683006648005482500,18.329482421875,-0.5376999974250793,-1.1069999933242798,-4.0204997062683105
1683006648025484000,18.349484130859373,-0.9044999480247498,-0.760699987411499,-3.9148998260498047
1683006648045482500,18.369482421875,-0.6836999654769897,-0.4575999975204468,-3.553999900817871
1683006648065482500,18.389482421875,-0.2709999978542328,-0.3098999857902527,-3.2010998725891113
1683006648085484000,18.409484130859376,-0.1096000000834465,-0.3173999786376953,-2.868299961090088
1683006648105482500,18.429482421875,-0.1727999895811081,-0.21719999611377716,-2.517199993133545
1683006648125482500,18.449482421875,-0.17139999568462372,-0.06729999929666519,-1.9706999063491821
1683006648145482500,18.469482421875,-0.06189999729394913,0.14180000126361847,-1.4436999559402466
1683006648165482500,18.489482421875,-0.054899998009204865,0.3836999833583832,-1.1023999452590942
1683006648185482500,18.509482421875,-0.26100000739097595,0.6105999946594238,-0.9757999777793884
1683006648205482500,18.529482421875,-0.4761999845504761,0.6421999931335449,-0.9168999791145325
1683006648225482500,18.549482421875,-0.484499990940094,0.5913000106811523,-0.699999988079071
1683006648245482500,18.569482421875,-0.352400004863739,0.5371999740600586,-0.16839998960494995
1683006648265482500,18.589482421875,-0.13939999043941498,0.5742999911308289,0.98089998960495
1683006648285482500,18.609482421875,-0.07769999653100967,0.8313999772071838,2.226799964904785
1683006648305485600,18.629485595703127,-0.45819997787475586,0.9197999835014343,2.8538999557495117
1683006648325482500,18.649482421875,-0.6189000010490417,0.40289998054504395,3.1895999908447266
1683006648345482500,18.669482421875,0.094200000166893,-0.3441999852657318,4.136399745941162
1683006648365482500,18.689482421875,0.5113999843597412,-0.646399974822998,4.6240997314453125
1683006648385482500,18.709482421875,0.19439999759197235,-0.483599990606308,3.935499906539917
1683006648405482500,18.729482421875,0.1046999990940094,-0.4348999857902527,2.8027000427246094
1683006648425482500,18.749482421875,0.7310000061988831,-1.1225999593734741,2.825000047683716
1683006648445482500,18.769482421875,1.5267999172210693,-1.8108999729156494,4.177499771118164
1683006648465482500,18.789482421875,1.611799955368042,-1.935499906539917,4.831999778747559
1683006648485482500,18.809482421875,0.8438000082969666,-1.8592000007629395,2.9953999519348145
1683006648505482500,18.829482421875,0.5449000000953674,-1.938499927520752,0.6525999903678894
1683006648525482500,18.849482421875,0.654699981212616,-1.9728999137878418,-1.5856000185012817
1683006648545482500,18.869482421875,0.38659998774528503,-1.9327999353408813,-3.417099952697754
1683006648565482500,18.889482421875,-0.26170000433921814,-1.6473000049591064,-4.16409969329834
1683006648585482500,18.909482421875,-1.1505999565124512,-1.2519999742507935,-3.8242998123168945
1683006648605482500,18.929482421875,-1.4630999565124512,-0.6642999649047852,-3.3327999114990234
1683006648625482500,18.949482421875,-1.46999990940094,-0.1078999936580658,-3.0042998790740967
1683006648645485600,18.969485595703127,-1.1431999206542969,0.11869999766349792,-2.6626999378204346
1683006648665482500,18.989482421875,-0.6696999669075012,0.23439998924732208,-2.545300006866455
1683006648685482500,19.009482421875,-0.37469998002052307,0.28779998421669006,-2.2821998596191406
1683006648705482500,19.029482421875,-0.16329999268054962,0.40829998254776,-1.6581999063491821
1683006648725482500,19.049482421875,-0.014699999243021011,0.5200999975204468,-1.0152000188827515
1683006648745482500,19.069482421875,0.08899999409914017,0.6635000109672546,-0.696399986743927
1683006648765482500,19.089482421875,0.09359999746084213,0.6477000117301941,-0.5444999933242798
1683006648785482500,19.109482421875,0.32420000433921814,0.5248000025749207,-0.21519999206066132
1683006648805482500,19.129482421875,0.6743999719619751,0.3872999846935272,0.438400000333786
1683006648825482500,19.149482421875,0.8815999627113342,0.21359999477863312,1.592099905014038
1683006648845482500,19.169482421875,0.8435999751091003,0.09679999947547913,2.9205000400543213
1683006648865482500,19.189482421875,0.5055999755859375,0.11099999397993088,3.159299850463867
1683006648885482500,19.209482421875,0.5141000151634216,0.02329999953508377,2.007999897003174
1683006648905482500,19.229482421875,0.9061999917030334,-0.2863999903202057,1.0666999816894531
1683006648925482500,19.249482421875,1.0618000030517578,-0.5643999576568604,2.0787999629974365
1683006648945482500,19.269482421875,0.32170000672340393,-0.40789997577667236,3.2540998458862305
1683006648965482500,19.289482421875,-0.4699999988079071,0.07249999791383743,3.1240999698638916
1683006648985482500,19.309482421875,-0.8209999799728394,0.3789999783039093,2.2874999046325684
1683006649005485600,19.329485595703126,0.5090000033378601,0.24869999289512634,1.4431999921798706
1683006649025484000,19.349484130859373,1.8229999542236328,-0.27410000562667847,1.5702999830245972
1683006649045482500,19.369482421875,2.3705999851226807,-0.6387999653816223,2.580699920654297
1683006649065482500,19.389482421875,0.8374999761581421,-0.7754999995231628,2.676800012588501
1683006649085482500,19.409482421875,-0.8402999639511108,-0.9444999694824219,1.5743999481201172
1683006649105482500,19.429482421875,-1.4622999429702759,-1.2267999649047852,0.05169999971985817
1683006649125482500,19.449482421875,-1.0468999147415161,-1.402400016784668,-1.8487999439239502
1683006649145482500,19.469482421875,-0.763700008392334,-1.3525999784469604,-3.53059983253479
1683006649165485600,19.489485595703126,-0.4900999963283539,-0.9521999955177307,-4.027299880981445
1683006649185485600,19.509485595703126,-0.4909999966621399,-0.44859999418258667,-3.74399995803833
1683006649205482500,19.529482421875,-0.4794999957084656,-0.010999999940395355,-3.3940999507904053
1683006649225482500,19.549482421875,-0.2502000033855438,0.20839999616146088,-3.1313998699188232
1683006649245482500,19.569482421875,-0.07490000128746033,0.28769999742507935,-3.0827999114990234
1683006649265482500,19.589482421875,-0.019099999219179153,0.22599999606609344,-2.7398998737335205
1683006649285482500,19.609482421875,-0.052799999713897705,0.10009999573230743,-2.0936999320983887
1683006649305482500,19.629482421875,-0.1533999890089035,0.1078999936580658,-1.6926000118255615
1683006649325482500,19.649482421875,-0.21869999170303345,0.22659999132156372,-1.3006999492645264
1683006649345482500,19.669482421875,-0.17790000140666962,0.36809998750686646,-1.0642999410629272
1683006649365484000,19.689484130859373,-0.10159999877214432,0.49699997901916504,-0.914900004863739
1683006649385482500,19.709482421875,-0.02149999886751175,0.48409998416900635,-0.6473000049591064
1683006649405482500,19.729482421875,-0.03139999881386757,0.43039998412132263,-0.2224999964237213
1683006649425482500,19.749482421875,0.09640000015497208,0.4497999846935272,0.46719998121261597
1683006649445482500,19.769482421875,0.2628999948501587,0.5027999877929688,1.7365999221801758
1683006649465482500,19.789482421875,0.1826999932527542,0.727400004863739,3.0844998359680176
1683006649485482500,19.809482421875,-0.013599999248981476,0.640999972820282,4.128799915313721
1683006649505482500,19.829482421875,0.20649999380111694,0.03269999846816063,5.447099685668945
1683006649525482500,19.849482421875,0.7353000044822693,-0.1298999935388565,6.3441996574401855
1683006649545482500,19.869482421875,0.4822999835014343,0.44999998807907104,5.361000061035156
1683006649565482500,19.889482421875,-0.24859999120235443,0.8793999552726746,2.593600034713745
1683006649585482500,19.909482421875,0.20829999446868896,0.015199999324977398,0.9542999863624573
1683006649605482500,19.929482421875,1.063499927520752,-1.1539000272750854,2.055999994277954
1683006649625482500,19.949482421875,1.2098000049591064,-1.57260000705719,3.378999948501587
1683006649645482500,19.969482421875,-0.2751999795436859,-1.6204999685287476,3.0996999740600586
1683006649665482500,19.989482421875,-0.7938999533653259,-1.69569993019104,1.6028000116348267
1683006649685482500,20.009482421875,-0.010400000028312206,-1.645799994468689,-0.42879998683929443
1683006649705482500,20.029482421875,0.38029998540878296,-1.7352999448776245,-2.286799907684326
1683006649725482500,20.049482421875,0.19189999997615814,-1.7843999862670898,-3.3000998497009277
1683006649745482500,20.069482421875,-0.6643999814987183,-1.5645999908447266,-3.5932998657226562
1683006649765482500,20.089482421875,-1.1646000146865845,-1.135200023651123,-3.177500009536743
1683006649785484000,20.109484130859375,-1.2109999656677246,-0.6663999557495117,-2.6250998973846436
1683006649805485600,20.129485595703127,-0.9418999552726746,-0.37379997968673706,-2.4524998664855957
1683006649825482500,20.149482421875,-0.45819997787475586,-0.19779999554157257,-2.355799913406372
1683006649845482500,20.169482421875,-0.07019999623298645,-0.18859998881816864,-2.122499942779541
1683006649865482500,20.189482421875,0.2214999943971634,-0.1647000014781952,-1.8222999572753906
1683006649885482500,20.209482421875,0.39819997549057007,-0.19829998910427094,-1.4240999221801758
1683006649905482500,20.229482421875,0.48259997367858887,-0.22369998693466187,-1.4079999923706055
1683006649925482500,20.249482421875,0.5202999711036682,-0.1996999979019165,-1.3907999992370605
1683006649945482500,20.269482421875,0.6021999716758728,-0.25779998302459717,-1.1483999490737915
1683006649965485600,20.289485595703123,0.7718999981880188,-0.2574000060558319,-0.406499981880188
1683006649985485600,20.309485595703126,0.9429000020027161,-0.3361999988555908,0.7566999793052673
1683006650005482500,20.329482421875,1.1047999858856201,-0.44519999623298645,1.9097999334335327
1683006650025484000,20.349484130859373,1.2811999320983887,-0.3782999813556671,2.671099901199341
1683006650045482500,20.369482421875,1.1454999446868896,-0.055799998342990875,2.4343998432159424
1683006650065482500,20.389482421875,0.7922999858856201,0.057999998331069946,1.6904000043869019
1683006650085482500,20.409482421875,0.8819999694824219,-0.29330000281333923,2.3501999378204346
1683006650105484000,20.429484130859375,0.7142999768257141,-0.23309999704360962,3.577699899673462
1683006650125482500,20.449482421875,-0.10489999502897263,0.19359999895095825,3.560499906539917
1683006650145482500,20.469482421875,-1.0734999179840088,0.711899995803833,2.4336998462677
1683006650165482500,20.489482421875,-0.847000002861023,0.7293999791145325,1.0024999380111694
1683006650185482500,20.509482421875,0.362199991941452,0.3822999894618988,0.19939999282360077
1683006650205485600,20.529485595703125,1.5638999938964844,-0.07169999927282333,0.857699990272522
1683006650225485600,20.549485595703125,1.563099980354309,-0.36730000376701355,1.8687999248504639
1683006650245484000,20.569484130859376,-0.09919999539852142,-0.4845999777317047,1.7197999954223633
1683006650265482500,20.589482421875,-1.3013999462127686,-0.726099967956543,1.2050999402999878
1683006650285482500,20.609482421875,-1.4378999471664429,-1.0094000101089478,0.06359999626874924
1683006650305482500,20.629482421875,-0.7565999627113342,-1.070599913597107,-1.6335999965667725
1683006650325482500,20.649482421875,-0.21169999241828918,-1.0160999298095703,-2.662899971008301
1683006650345482500,20.669482421875,-0.16529999673366547,-0.7251999974250793,-3.054999828338623
1683006650365482500,20.689482421875,-0.6606000065803528,-0.4204999804496765,-3.095599889755249
1683006650385482500,20.709482421875,-0.901699960231781,-0.12600000202655792,-2.861599922180176
1683006650405485600,20.729485595703125,-0.7008000016212463,0.26319998502731323,-2.4788999557495117
1683006650425484000,20.749484130859376,-0.4514999985694885,0.48339998722076416,-2.0172998905181885
1683006650445482500,20.769482421875,-0.4292999804019928,0.5827000141143799,-1.8703999519348145
1683006650465496600,20.78949658203125,-0.39159998297691345,0.5428000092506409,-1.7637999057769775
1683006650485482500,20.809482421875,-0.1784999966621399,0.5982999801635742,-1.5787999629974365
1683006650505482500,20.829482421875,-0.12690000236034393,0.6459999680519104,-1.4226999282836914
1683006650525482500,20.849482421875,-0.24709999561309814,0.6818999648094177,-1.2660999298095703
1683006650545482500,20.869482421875,-0.38580000400543213,0.5737999677658081,-1.1776999235153198
1683006650565482500,20.889482421875,-0.2602999806404114,0.5227000117301941,-0.8726999759674072
1683006650585482500,20.909482421875,-0.10449999570846558,0.4706999957561493,-0.2721000015735626
1683006650605484000,20.929484130859375,-0.018400000408291817,0.42549997568130493,0.5054000020027161
1683006650625485600,20.949485595703123,0.12789998948574066,0.4603999853134155,1.6562999486923218
1683006650645482500,20.969482421875,0.08749999850988388,0.4958999752998352,2.6696999073028564
1683006650665482500,20.989482421875,-0.05199999734759331,0.5083999633789062,3.261399984359741
1683006650685482500,21.009482421875,0.08569999784231186,-0.19249999523162842,4.187299728393555
1683006650705482500,21.029482421875,0.7616999745368958,-0.6696999669075012,5.11299991607666
1683006650725482500,21.049482421875,1.0405999422073364,-0.487199991941452,4.590199947357178
1683006650745482500,21.069482421875,0.6209999918937683,0.1014999970793724,2.793299913406372
1683006650765482500,21.089482421875,0.2987000048160553,0.04519999772310257,0.8682000041007996
1683006650785482500,21.109482421875,0.5577999949455261,-1.0003999471664429,0.6096999645233154
1683006650805482500,21.129482421875,1.3666999340057373,-1.642799973487854,1.8086999654769897
1683006650825482500,21.149482421875,1.3853999376296997,-1.5324000120162964,2.683799982070923
1683006650845485600,21.169485595703126,0.1785999983549118,-1.2983999252319336,2.426499843597412
1683006650865482500,21.189482421875,-0.502299964427948,-1.161199927330017,1.027899980545044
1683006650885482500,21.209482421875,-0.26739999651908875,-0.9787999987602234,-0.7105000019073486
1683006650905482500,21.229482421875,-0.12459999322891235,-0.9873999953269958,-1.9909999370574951
1683006650925482500,21.249482421875,-0.28129997849464417,-1.0568000078201294,-2.61299991607666
1683006650945482500,21.269482421875,-0.9226999878883362,-0.9465999603271484,-3.0526998043060303
1683006650965482500,21.289482421875,-1.3632999658584595,-0.7042999863624573,-3.046799898147583
1683006650985482500,21.309482421875,-1.083899974822998,-0.2793999910354614,-2.7279999256134033
1683006651005482500,21.329482421875,-0.41429999470710754,-0.0010999999940395355,-2.3673999309539795
1683006651025482500,21.349482421875,0.13439999520778656,0.0885000005364418,-2.142400026321411
1683006651045482500,21.369482421875,0.3400000035762787,0.131400004029274,-1.9569998979568481
1683006651065482500,21.389482421875,0.4057999849319458,0.20160000026226044,-1.5764999389648438
1683006651085482500,21.409482421875,0.505299985408783,0.3951999843120575,-1.184899926185608
1683006651105484000,21.429484130859375,0.4810999929904938,0.6161999702453613,-1.0476000308990479
1683006651125482500,21.449482421875,0.28129997849464417,0.7526999711990356,-0.8127999901771545
1683006651145482500,21.469482421875,0.08190000057220459,0.6990999579429626,-0.40359997749328613
1683006651165482500,21.489482421875,0.2230999916791916,0.29339998960494995,0.54339998960495
1683006651185482500,21.509482421875,0.6959999799728394,-0.07189999520778656,1.823199987411499
1683006651205482500,21.529482421875,1.0223000049591064,-0.4324999749660492,2.750499963760376
1683006651225482500,21.549482421875,1.1625999212265015,-0.5400999784469604,2.6196999549865723
1683006651245482500,21.569482421875,1.1924999952316284,-0.6488999724388123,1.6959999799728394
1683006651265482500,21.589482421875,1.4157999753952026,-1.2050999402999878,2.0114998817443848
1683006651285482500,21.609482421875,1.4723999500274658,-1.1713999509811401,3.347299814224243
1683006651305485600,21.629485595703127,0.6473999619483948,-0.7261999845504761,3.860299825668335
1683006651325485600,21.649485595703126,-0.17309999465942383,0.23600000143051147,2.8914999961853027
1683006651345482500,21.669482421875,-0.5554999709129333,0.9451999664306641,1.108799934387207
1683006651365482500,21.689482421875,0.34129998087882996,0.8122999668121338,0.25939998030662537
1683006651385482500,21.709482421875,1.0526000261306763,0.2296999990940094,1.3208999633789062
1683006651405482500,21.729482421875,0.6340000033378601,-0.1370999962091446,2.3320999145507812
1683006651425482500,21.749482421875,-0.6859999895095825,-0.3880999982357025,2.407599925994873
1683006651445482500,21.769482421875,-1.5410999059677124,-0.8453999757766724,1.7136999368667603
1683006651465482500,21.789482421875,-1.2813999652862549,-1.1171000003814697,0.1876000016927719
1683006651485482500,21.809482421875,-0.5345999598503113,-1.198199987411499,-1.4990999698638916
1683006651505482500,21.829482421875,-0.1613999903202057,-1.2350000143051147,-2.623199939727783
1683006651525482500,21.849482421875,-0.03610000014305115,-0.9962999820709229,-3.2075998783111572
1683006651545485600,21.869485595703125,-0.30309998989105225,-0.676099956035614,-3.324899911880493
1683006651565485600,21.889485595703125,-0.47099998593330383,-0.41119998693466187,-2.9845998287200928
1683006651585482500,21.909482421875,-0.46320000290870667,-0.31610000133514404,-2.8397998809814453
1683006651605482500,21.929482421875,-0.2759000062942505,-0.1673000007867813,-2.8790998458862305
1683006651625482500,21.949482421875,-0.07449999451637268,-0.06759999692440033,-2.6245999336242676
1683006651645482500,21.969482421875,-0.03929999843239784,-0.09749999642372131,-2.3710999488830566
1683006651665482500,21.989482421875,0.05040000006556511,0.055299997329711914,-2.018699884414673
1683006651685482500,22.009482421875,0.08659999817609787,0.24039998650550842,-1.527999997138977
1683006651705482500,22.029482421875,-0.1623999923467636,0.49149999022483826,-1.125
1683006651725482500,22.049482421875,-0.39489999413490295,0.6998999714851379,-0.8981999754905701
1683006651745482500,22.069482421875,-0.471699982881546,0.7128999829292297,-0.5439000129699707
1683006651765482500,22.089482421875,-0.29909998178482056,0.6911999583244324,-0.14000000059604645
1683006651785482500,22.109482421875,-0.08540000021457672,0.7301999926567078,0.3630000054836273
1683006651805482500,22.129482421875,-0.10700000077486038,0.7471999526023865,1.27839994430542
1683006651825482500,22.149482421875,-0.17309999465942383,0.8270999789237976,2.2525999546051025
1683006651845482500,22.169482421875,-0.46869999170303345,0.9287999868392944,2.833400011062622
1683006651865482500,22.189482421875,-1.020300030708313,0.6232999563217163,3.3736000061035156
1683006651885482500,22.209482421875,-1.0066999197006226,-0.1712999939918518,4.180999755859375
1683006651905482500,22.229482421875,-0.3651999831199646,-0.22939999401569366,4.687399864196777
1683006651925482500,22.249482421875,-0.11989999562501907,0.15969999134540558,3.8309998512268066
1683006651945482500,22.269482421875,-0.07279999554157257,0.22059999406337738,2.265399932861328
1683006651965482500,22.289482421875,0.47360000014305115,-0.5521999597549438,1.882099986076355
1683006651985482500,22.309482421875,1.3802999258041382,-1.3152999877929688,2.7709999084472656
1683006652005482500,22.329482421875,1.6686999797821045,-1.6556999683380127,3.8852999210357666
1683006652025484000,22.349484130859373,0.7400999665260315,-1.7282999753952026,3.6148998737335205
1683006652045482500,22.369482421875,-0.06199999898672104,-1.6398999691009521,1.9708999395370483
1683006652065482500,22.389482421875,-0.12559999525547028,-1.4634000062942505,-0.33379998803138733
1683006652085482500,22.409482421875,-0.10979999601840973,-1.480199933052063,-2.4238998889923096
1683006652105484000,22.429484130859375,-0.1825999915599823,-1.4402999877929688,-3.901700019836426
1683006652125482500,22.449482421875,-0.5094999670982361,-1.3555999994277954,-4.521599769592285
1683006652145482500,22.469482421875,-0.939799964427948,-1.184000015258789,-4.142499923706055
1683006652165482500,22.489482421875,-0.9941999912261963,-0.8607999682426453,-3.562199831008911
1683006652185482500,22.509482421875,-0.699999988079071,-0.4599999785423279,-3.1359000205993652
1683006652205482500,22.529482421875,-0.22100000083446503,-0.2441999912261963,-2.55049991607666
1683006652225482500,22.549482421875,0.1550000011920929,-0.14869999885559082,-1.965399980545044
1683006652245482500,22.569482421875,0.3422999978065491,-0.16040000319480896,-1.4301999807357788
1683006652265482500,22.589482421875,0.5245000123977661,0.001500000013038516,-1.0216000080108643
1683006652285482500,22.609482421875,0.5340999960899353,0.20019999146461487,-0.7590000033378601
1683006652305482500,22.629482421875,0.568399965763092,0.3148999810218811,-0.6710999608039856
1683006652325485600,22.649485595703126,0.5092999935150146,0.17260000109672546,-0.6502999663352966
1683006652345482500,22.669482421875,0.6367999911308289,0.04749999940395355,-0.3156999945640564
1683006652365482500,22.689482421875,0.8263999819755554,-0.04039999842643738,0.7142999768257141
1683006652385482500,22.709482421875,0.9432999491691589,-0.07319999486207962,1.9199999570846558
1683006652405482500,22.729482421875,0.7405999898910522,0.05289999768137932,2.7918999195098877
1683006652425482500,22.749482421875,0.47529998421669006,0.3702999949455261,2.782599925994873
1683006652445482500,22.769482421875,0.10999999940395355,0.32199999690055847,2.3940999507904053
1683006652465482500,22.789482421875,0.08839999884366989,-0.21469999849796295,2.910099983215332
1683006652485482500,22.809482421875,-0.19689999520778656,-0.24300000071525574,3.38539981842041
1683006652505482500,22.829482421875,-0.9733999967575073,0.17080000042915344,3.016199827194214
1683006652525482500,22.849482421875,-1.583400011062622,0.5429999828338623,2.1928999423980713
1683006652545482500,22.869482421875,-0.9924999475479126,0.6039999723434448,0.9375
1683006652565482500,22.889482421875,0.43459999561309814,0.3714999854564667,0.5645999908447266
1683006652585482500,22.909482421875,1.6114999055862427,-0.09439999610185623,1.612399935722351
1683006652605482500,22.929482421875,1.4941999912261963,-0.45389997959136963,2.668799877166748
1683006652625482500,22.949482421875,-0.05460000038146973,-0.6881999969482422,2.525399923324585
1683006652645482500,22.969482421875,-1.0383999347686768,-1.0130000114440918,1.4972000122070312
1683006652665482500,22.989482421875,-0.901699960231781,-1.254599928855896,-0.2443999946117401
1683006652685482500,23.009482421875,-0.6380000114440918,-1.2354999780654907,-2.098599910736084
1683006652705482500,23.029482421875,-0.5454999804496765,-1.0276999473571777,-3.302299976348877
1683006652725482500,23.049482421875,-0.7579999566078186,-0.6650999784469604,-3.585899829864502
1683006652745482500,23.069482421875,-1.059499979019165,-0.2547999918460846,-3.245499849319458
1683006652765482500,23.089482421875,-1.1217999458312988,0.09339999407529831,-2.9644999504089355
1683006652785482500,23.109482421875,-0.7224000096321106,0.3247999846935272,-2.7214999198913574
1683006652805485600,23.129485595703127,-0.23119999468326569,0.4165000021457672,-2.5072999000549316
1683006652825482500,23.149482421875,-0.03909999877214432,0.42100000381469727,-2.34309983253479
1683006652845482500,23.169482421875,0.12119999527931213,0.35339999198913574,-1.983799934387207
1683006652865482500,23.189482421875,0.3163999915122986,0.38920000195503235,-1.4175999164581299
1683006652885482500,23.209482421875,0.32999998331069946,0.45009997487068176,-1.0858999490737915
1683006652905482500,23.229482421875,0.2149999886751175,0.6459000110626221,-1.07669997215271
1683006652925482500,23.249482421875,0.10049999505281448,0.7091000080108643,-1.1649999618530273
1683006652945482500,23.269482421875,0.04429999738931656,0.7922999858856201,-0.9285999536514282
1683006652965482500,23.289482421875,0.22259999811649323,0.8574000000953674,-0.014699999243021011
1683006652985482500,23.309482421875,0.3111000061035156,0.8369999527931213,1.017899990081787
1683006653005482500,23.329482421875,0.1460999995470047,0.8495000004768372,2.001800060272217
1683006653025482500,23.349482421875,-0.13449999690055847,0.9883999824523926,2.8580000400543213
1683006653045482500,23.369482421875,-0.21660000085830688,0.8644999861717224,3.626199960708618
1683006653065485600,23.389485595703125,0.23229999840259552,0.13210000097751617,5.041999816894531
1683006653085482500,23.409482421875,0.7139999866485596,-0.30410000681877136,5.900099754333496
1683006653105484000,23.429484130859375,0.46779999136924744,-0.2401999980211258,4.9664998054504395
1683006653125482500,23.449482421875,-0.055399999022483826,0.13019999861717224,2.4535000324249268
1683006653145482500,23.469482421875,0.07149999588727951,-0.3385999798774719,0.6069999933242798
1683006653165482500,23.489482421875,0.5812999606132507,-1.5957999229431152,1.3066999912261963
1683006653185482500,23.509482421875,0.9564999938011169,-2.1073999404907227,2.4552998542785645
1683006653205482500,23.529482421875,0.22059999406337738,-1.899399995803833,2.9163999557495117
1683006653225482500,23.549482421875,-0.76419997215271,-1.5666999816894531,1.854200005531311
1683006653245482500,23.569482421875,-0.8143999576568604,-1.25,-0.32499998807907104
1683006653265482500,23.589482421875,-0.20189999043941498,-1.1114000082015991,-2.310999870300293
1683006653285485600,23.609485595703124,0.1621999889612198,-1.1456999778747559,-3.3432998657226562
1683006653305485600,23.629485595703127,-0.09299999475479126,-1.0954999923706055,-3.6053998470306396
1683006653325482500,23.649482421875,-0.8007999658584595,-0.9287999868392944,-3.4046998023986816
1683006653345482500,23.669482421875,-0.9265999794006348,-0.5511000156402588,-2.942999839782715
1683006653365482500,23.689482421875,-0.7530999779701233,-0.2971999943256378,-2.5772998332977295
1683006653385482500,23.709482421875,-0.45799997448921204,-0.15079998970031738,-2.3252999782562256
1683006653405482500,23.729482421875,-0.050999999046325684,0.017099998891353607,-2.089099884033203
1683006653425482500,23.749482421875,0.30719998478889465,0.19339999556541443,-1.6272999048233032
1683006653445482500,23.769482421875,0.5401999950408936,0.35109999775886536,-1.1275999546051025
1683006653465482500,23.789482421875,0.6326999664306641,0.5699999928474426,-0.8055999875068665
1683006653485482500,23.809482421875,0.7656999826431274,0.8163999915122986,-0.6990000009536743
1683006653505482500,23.829482421875,0.7955999970436096,0.7355999946594238,-0.4348999857902527
1683006653525482500,23.849482421875,1.0401999950408936,0.5893999934196472,0.3398999869823456
1683006653545482500,23.869482421875,1.0436999797821045,0.37119999527931213,1.507099986076355
1683006653565482500,23.889482421875,0.6901999711990356,0.1955999881029129,2.3588998317718506
1683006653585482500,23.909482421875,0.4205999970436096,0.08150000125169754,2.072000026702881
1683006653605482500,23.929482421875,0.4462999999523163,-0.0714000016450882,1.2775999307632446
1683006653625482500,23.949482421875,0.5663999915122986,-0.5460000038146973,1.417699933052063
1683006653645482500,23.969482421875,0.34109997749328613,-1.0978000164031982,3.1952998638153076
1683006653665482500,23.989482421875,-0.22659999132156372,-0.9761999845504761,4.7555999755859375
1683006653685485600,24.009485595703126,-0.9711999893188477,-0.42809998989105225,4.423099994659424
1683006653705485600,24.029485595703125,-1.2832999229431152,-0.24819999933242798,2.1185998916625977
1683006653725482500,24.049482421875,0.22059999406337738,-0.344899982213974,0.24849998950958252
1683006653745482500,24.069482421875,1.6713999509811401,-0.6342999935150146,-0.1858000010251999
1683006653765482500,24.089482421875,2.1712000370025635,-0.8215000033378601,0.5479999780654907
1683006653785482500,24.109482421875,0.5248000025749207,-0.9465999603271484,0.9802999496459961
1683006653805482500,24.129482421875,-1.274899959564209,-1.0562999248504639,0.5720999836921692
1683006653825482500,24.149482421875,-1.8969999551773071,-1.1004999876022339,-0.2574000060558319
1683006653845482500,24.169482421875,-1.1704000234603882,-0.9003999829292297,-1.1806999444961548
1683006653865482500,24.189482421875,-0.564799964427948,-0.557200014591217,-2.013700008392334
1683006653885482500,24.209482421875,-0.44669997692108154,-0.23179998993873596,-2.5839998722076416
1683006653905482500,24.229482421875,-0.39169999957084656,0.1151999980211258,-2.8021998405456543
1683006653925485600,24.249485595703124,-0.32739999890327454,0.38609999418258667,-2.8919999599456787
1683006653945482500,24.269482421875,-0.210099995136261,0.5383999943733215,-2.5978000164031982
1683006653965482500,24.289482421875,-0.2450999915599823,0.7233999967575073,-2.3431999683380127
1683006653985482500,24.309482421875,-0.2645999789237976,0.8062999844551086,-2.0012998580932617
1683006654005482500,24.329482421875,-0.29809999465942383,0.9075999855995178,-1.5227999687194824
1683006654025482500,24.349482421875,-0.2378999888896942,0.9236999750137329,-1.1226999759674072
1683006654045482500,24.369482421875,-0.09699999541044235,0.9109999537467957,-0.8793999552726746
1683006654065482500,24.389482421875,0.01549999974668026,0.9093999862670898,-0.8023999929428101
1683006654085482500,24.409482421875,-0.025299999862909317,0.7818999886512756,-0.8822999596595764
1683006654105482500,24.429482421875,-0.04439999908208847,0.6310999989509583,-1.0094000101089478
1683006654125482500,24.449482421875,-0.14309999346733093,0.3342999815940857,-0.5268999934196472
1683006654145482500,24.469482421875,-0.10819999873638153,0.09999999403953552,0.48659998178482056
1683006654165482500,24.489482421875,-0.0892999991774559,-0.05859999731183052,2.0020999908447266
1683006654185482500,24.509482421875,-0.05700000002980232,0.044999998062849045,3.416599988937378
1683006654205482500,24.529482421875,-0.33249998092651367,-0.3001999855041504,4.075599670410156
1683006654225482500,24.549482421875,0.18159998953342438,-0.8883000016212463,4.6066999435424805
1683006654245482500,24.569482421875,1.1588000059127808,-1.1205999851226807,5.051300048828125
1683006654265482500,24.589482421875,1.4235999584197998,-0.664900004863739,4.215699672698975
1683006654285482500,24.609482421875,0.5036999583244324,0.11829999834299088,2.1552000045776367
1683006654305482500,24.629482421875,0.11099999397993088,-0.0989999994635582,0.8011999726295471
1683006654325482500,24.649482421875,0.7866999506950378,-1.0413999557495117,1.5815999507904053
1683006654345482500,24.669482421875,1.4180999994277954,-1.4548999071121216,2.3422000408172607
1683006654365482500,24.689482421875,0.7817999720573425,-1.2731000185012817,1.9744999408721924
1683006654385482500,24.709482421875,-0.25540000200271606,-1.104599952697754,0.7876999974250793
1683006654405482500,24.729482421875,-0.6212999820709229,-1.121999979019165,-0.4502999782562256
1683006654425482500,24.749482421875,-0.375,-1.030900001525879,-1.5649999380111694
1683006654445482500,24.769482421875,-0.2928999960422516,-0.8833999633789062,-2.4210000038146973
1683006654465482500,24.789482421875,-0.44020000100135803,-0.7961999773979187,-2.8001999855041504
1683006654485482500,24.809482421875,-0.8725000023841858,-0.753600001335144,-3.1267998218536377
1683006654505482500,24.829482421875,-1.0449999570846558,-0.6396999955177307,-3.2201998233795166
1683006654525482500,24.849482421875,-0.7599999904632568,-0.4668999910354614,-3.037600040435791
1683006654545482500,24.869482421875,-0.20409999787807465,-0.30889999866485596,-2.539299964904785
1683006654565482500,24.889482421875,0.16769999265670776,-0.17509999871253967,-2.0211000442504883
1683006654585482500,24.909482421875,0.4318999946117401,0.05909999832510948,-1.4254999160766602
1683006654605482500,24.929482421875,0.43799999356269836,0.2888000011444092,-0.9380999803543091
1683006654625482500,24.949482421875,0.2514999806880951,0.4528999924659729,-0.9304999709129333
1683006654645482500,24.969482421875,0.2612999975681305,0.5782999992370605,-0.8829999566078186
1683006654665482500,24.989482421875,0.4537999927997589,0.613599956035614,-0.4034999907016754
1683006654685482500,25.009482421875,0.7197999954223633,0.628600001335144,0.536300003528595
1683006654705482500,25.029482421875,0.8810999989509583,0.4659999907016754,1.680299997329712
1683006654725482500,25.049482421875,0.958899974822998,0.31679999828338623,2.4114999771118164
1683006654745482500,25.069482421875,0.7678999900817871,0.14989998936653137,2.5051000118255615
1683006654765482500,25.089482421875,0.6865999698638916,0.17989999055862427,1.8449000120162964
1683006654785482500,25.109482421875,0.8613999485969543,-0.031599998474121094,1.4031999111175537
1683006654805482500,25.129482421875,1.2177000045776367,-0.30869999527931213,2.256899833679199
1683006654825482500,25.149482421875,1.0769000053405762,-0.0050999997183680534,2.9826998710632324
1683006654845482500,25.169482421875,0.45989999175071716,0.343099981546402,2.9243998527526855
1683006654865482500,25.189482421875,-0.04609999805688858,0.6624999642372131,2.1087000370025635
1683006654885482500,25.209482421875,0.5835999846458435,0.4625999927520752,1.3528999090194702
1683006654905482500,25.229482421875,1.5116000175476074,-0.05639999732375145,1.7038999795913696
1683006654925482500,25.249482421875,1.5262999534606934,-0.39469999074935913,2.6921000480651855
1683006654945482500,25.269482421875,0.0364999994635582,-0.6222000122070312,2.5894999504089355
1683006654965482500,25.289482421875,-1.2520999908447266,-0.8817999958992004,1.2193999290466309
