time,seconds_elapsed,z,y,x
1683006629725484000,0.049484130859375,0.9396999478340149,-0.25689998269081116,9.758099555969238
1683006629745485600,0.069485595703125,0.9396999478340149,-0.25689998269081116,9.758099555969238
1683006629765487000,0.089487060546875,0.9396999478340149,-0.25689998269081116,9.758099555969238
1683006629785482500,0.109482421875,2.1270999908447266,-0.3398999869823456,9.567099571228027
1683006629805484000,0.129484130859375,2.128000020980835,-0.3407999873161316,9.566899299621582
1683006629825482500,0.149482421875,2.133699893951416,-0.34579998254776,9.565400123596191
1683006629845484000,0.169484130859375,2.1526999473571777,-0.35659998655319214,9.560699462890625
1683006629865484000,0.189484130859375,2.1945998668670654,-0.34389999508857727,9.5516996383667
1683006629885482500,0.209482421875,2.4380998611450195,-0.3660999834537506,9.491600036621094
1683006629905482500,0.229482421875,2.3997998237609863,-0.3926999866962433,9.500299453735352
1683006629925482500,0.249482421875,2.3504998683929443,-0.4025000035762787,9.512199401855469
1683006629945482500,0.269482421875,2.4612998962402344,-0.30390000343322754,9.487799644470215
1683006629965482500,0.289482421875,2.408799886703491,-0.19679999351501465,9.50409984588623
1683006629985482500,0.309482421875,2.40910005569458,-0.11629999428987503,9.505399703979492
1683006630005482500,0.329482421875,2.4410998821258545,-0.026499999687075615,9.497900009155273
1683006630025484000,0.349484130859375,2.465399980545044,-0.007899999618530273,9.491600036621094
1683006630045482500,0.369482421875,2.4772000312805176,-0.008799999952316284,9.48859977722168
1683006630065482500,0.389482421875,2.4967000484466553,-0.017799999564886093,9.483399391174316
1683006630085484000,0.409484130859375,2.522199869155884,-0.03480000048875809,9.47659969329834
1683006630105484000,0.429484130859375,2.5516998767852783,-0.04910000041127205,9.46869945526123
1683006630125484000,0.449484130859375,2.5872998237609863,-0.042799998074769974,9.458999633789062
1683006630145484000,0.469484130859375,2.5836000442504883,-0.019299998879432678,9.460100173950195
1683006630165482500,0.489482421875,2.557999849319458,0.007199999876320362,9.467100143432617
1683006630185485600,0.509485595703125,2.533799886703491,0.01809999905526638,9.473599433898926
1683006630205482500,0.529482421875,2.6033999919891357,0.0018999999156221747,9.454699516296387
1683006630225484000,0.549484130859375,2.5730998516082764,-0.0632999986410141,9.462800025939941
1683006630245482500,0.569482421875,2.534899950027466,-0.14649999141693115,9.472199440002441
1683006630265482500,0.589482421875,2.4587998390197754,-0.22849999368190765,9.490599632263184
1683006630285482500,0.609482421875,2.356099843978882,-0.295199990272522,9.514800071716309
1683006630305484000,0.629484130859375,2.2695999145507812,-0.3482999801635742,9.5339994430542
1683006630325485600,0.649485595703125,2.194700002670288,-0.37849998474121094,9.550399780273438
1683006630345484000,0.669484130859375,2.1217000484466553,-0.368399977684021,9.56719970703125
1683006630365484000,0.689484130859375,2.073899984359741,-0.3246999979019165,9.579299926757812
1683006630385482500,0.709482421875,2.0360000133514404,-0.2401999980211258,9.589900016784668
1683006630405484000,0.729484130859375,2.0139999389648438,-0.14880000054836273,9.596399307250977
1683006630425485600,0.749485595703125,2.0271999835968018,-0.07169999927282333,9.594499588012695
1683006630445484000,0.769484130859375,2.037099838256836,-0.0024999999441206455,9.592700004577637
1683006630465482500,0.789482421875,2.038800001144409,0.07119999825954437,9.592100143432617
1683006630485482500,0.809482421875,2.037099838256836,0.1436000019311905,9.591599464416504
1683006630505484000,0.829484130859375,2.036799907684326,0.19949999451637268,9.590700149536133
1683006630525482500,0.849482421875,2.034899950027466,0.243599995970726,9.59000015258789
1683006630545484000,0.869484130859375,2.0455000400543213,0.27399998903274536,9.586999893188477
1683006630565482500,0.889482421875,2.0539000034332275,0.28279998898506165,9.58489990234375
1683006630585484000,0.909484130859375,2.06850004196167,0.28029999136924744,9.581899642944336
1683006630605484000,0.929484130859375,2.082399845123291,0.2683999836444855,9.57919979095459
1683006630625482500,0.949482421875,2.100399971008301,0.2500999867916107,9.575799942016602
1683006630645482500,0.969482421875,2.1166000366210938,0.2442999929189682,9.57229995727539
1683006630665484000,0.989484130859375,2.1041998863220215,0.24129998683929443,9.57509994506836
1683006630685484000,1.009484130859375,2.060299873352051,0.21709999442100525,9.585299491882324
1683006630705485600,1.029485595703125,2.0147998332977295,0.17260000109672546,9.595799446105957
1683006630725485600,1.049485595703125,1.9838999509811401,0.11419999599456787,9.603099822998047
1683006630745485600,1.069485595703125,1.9707999229431152,0.0478999987244606,9.606399536132812
1683006630765484000,1.089484130859375,1.9948999881744385,-0.00029999998514540493,9.601499557495117
1683006630785482500,1.109482421875,2.026900053024292,-0.0284000001847744,9.594799995422363
1683006630805484000,1.129484130859375,2.013200044631958,-0.019600000232458115,9.597700119018555
1683006630825484000,1.149484130859375,1.972499966621399,0.020099999383091927,9.606200218200684
1683006630845482500,1.169482421875,1.9429999589920044,0.06319999694824219,9.61199951171875
1683006630865482500,1.189482421875,1.9287999868392944,0.10949999839067459,9.614399909973145
1683006630885482500,1.209482421875,1.9197999238967896,0.15189999341964722,9.615599632263184
1683006630905482500,1.229482421875,1.9117000102996826,0.16539999842643738,9.616999626159668
1683006630925482500,1.249482421875,1.8980000019073486,0.1412999927997589,9.620100021362305
1683006630945482500,1.269482421875,1.882200002670288,0.09999999403953552,9.623700141906738
1683006630965482500,1.289482421875,1.8767999410629272,0.08079999685287476,9.625
1683006630985482500,1.309482421875,1.871399998664856,0.10700000077486038,9.625800132751465
1683006631005482500,1.329482421875,1.8550999164581299,0.1598999947309494,9.628199577331543
1683006631025482500,1.349482421875,1.8393999338150024,0.20170000195503235,9.630399703979492
1683006631045482500,1.369482421875,1.8280999660491943,0.22190000116825104,9.632100105285645
1683006631065482500,1.389482421875,1.8255999088287354,0.22609999775886536,9.632499694824219
1683006631085482500,1.409482421875,1.8194999694824219,0.2360999882221222,9.633399963378906
1683006631105482500,1.429482421875,1.8107999563217163,0.26260000467300415,9.6343994140625
1683006631125482500,1.449482421875,1.83079993724823,0.28599998354911804,9.629899978637695
1683006631145482500,1.469482421875,1.879699945449829,0.28290000557899475,9.620599746704102
1683006631165482500,1.489482421875,1.889699935913086,0.29580000042915344,9.618199348449707
1683006631185482500,1.509482421875,1.858699917793274,0.3294000029563904,9.623199462890625
1683006631205482500,1.529482421875,1.806899905204773,0.34950000047683716,9.632399559020996
1683006631225482500,1.549482421875,1.7660999298095703,0.3472999930381775,9.639999389648438
1683006631245482500,1.569482421875,1.7350000143051147,0.3190000057220459,9.646599769592285
1683006631265482500,1.589482421875,1.7066999673843384,0.2902999818325043,9.652599334716797
1683006631285482500,1.609482421875,1.7049999237060547,0.29350000619888306,9.652799606323242
1683006631305482500,1.629482421875,1.754499912261963,0.321399986743927,9.642999649047852
1683006631325482500,1.649482421875,1.8359999656677246,0.32339999079704285,9.627699851989746
1683006631345482500,1.669482421875,1.9151999950408936,0.2874999940395355,9.613499641418457
1683006631365482500,1.689482421875,1.973599910736084,0.24449999630451202,9.602799415588379
1683006631385482500,1.709482421875,2.039599895477295,0.23959998786449432,9.589099884033203
1683006631405482500,1.729482421875,2.0954999923706055,0.2840999960899353,9.575900077819824
1683006631425482500,1.749482421875,2.091399908065796,0.3132999837398529,9.575900077819824
1683006631445482500,1.769482421875,2.0409998893737793,0.27639999985694885,9.587900161743164
1683006631465482500,1.789482421875,1.9864000082015991,0.20329999923706055,9.601099967956543
1683006631485482500,1.809482421875,1.9600999355316162,0.15150000154972076,9.607500076293945
1683006631505482500,1.829482421875,1.9610999822616577,0.140299990773201,9.607500076293945
1683006631525482500,1.849482421875,1.9847999811172485,0.12960000336170197,9.602799415588379
1683006631545482500,1.869482421875,1.9967999458312988,0.08399999886751175,9.600799560546875
1683006631565482500,1.889482421875,1.9965999126434326,0.03399999812245369,9.601099967956543
1683006631585482500,1.909482421875,1.9822999238967896,0.0058999997563660145,9.604199409484863
1683006631605482500,1.929482421875,1.9540998935699463,-0.02669999934732914,9.609899520874023
1683006631625482500,1.949482421875,1.9106999635696411,-0.06849999725818634,9.618399620056152
1683006631645482500,1.969482421875,1.8399999141693115,-0.12680000066757202,9.631599426269531
1683006631665485600,1.989485595703125,1.7526999711990356,-0.19689999520778656,9.646699905395508
1683006631685482500,2.009482421875,1.6584999561309814,-0.26260000467300415,9.661799430847168
1683006631705482500,2.029482421875,1.5781999826431274,-0.3138999938964844,9.673699378967285
1683006631725482500,2.049482421875,1.5305999517440796,-0.3495999872684479,9.680099487304688
1683006631745482500,2.069482421875,1.5203999280929565,-0.3671000003814697,9.681099891662598
1683006631765482500,2.089482421875,1.521899938583374,-0.3726999759674072,9.6806001663208
1683006631785482500,2.109482421875,1.5268999338150024,-0.37869998812675476,9.67959976196289
1683006631805482500,2.129482421875,1.5206999778747559,-0.38119998574256897,9.680500030517578
1683006631825482500,2.149482421875,1.4704999923706055,-0.36949998140335083,9.688699722290039
1683006631845482500,2.169482421875,1.4154999256134033,-0.3553999960422516,9.697400093078613
1683006631865482500,2.189482421875,1.4035999774932861,-0.34209999442100525,9.699600219726562
1683006631885482500,2.209482421875,1.4333999156951904,-0.33640000224113464,9.695399284362793
1683006631905482500,2.229482421875,1.4378999471664429,-0.3633999824523926,9.69379997253418
1683006631925482500,2.249482421875,1.4048999547958374,-0.44279998540878296,9.695300102233887
1683006631945482500,2.269482421875,1.351699948310852,-0.5449000000953674,9.697699546813965
1683006631965482500,2.289482421875,1.3443999290466309,-0.5965999960899353,9.695699691772461
1683006631985482500,2.309482421875,1.3845999240875244,-0.5751000046730042,9.691299438476562
1683006632005482500,2.329482421875,1.386299967765808,-0.534500002861023,9.693399429321289
1683006632025482500,2.349482421875,1.334999918937683,-0.5328999757766724,9.700699806213379
1683006632045482500,2.369482421875,1.2865999937057495,-0.5370000004768372,9.706999778747559
1683006632065482500,2.389482421875,1.287500023841858,-0.48319998383522034,9.709699630737305
1683006632085482500,2.409482421875,1.3285999298095703,-0.3562999963760376,9.709599494934082
1683006632105482500,2.429482421875,1.3809999227523804,-0.21389999985694885,9.706500053405762
1683006632125482500,2.449482421875,1.4305999279022217,-0.11339999735355377,9.701000213623047
1683006632145482500,2.469482421875,1.4589999914169312,-0.0705999955534935,9.697199821472168
1683006632165482500,2.489482421875,1.4666999578475952,-0.06439999490976334,9.696099281311035
1683006632185482500,2.509482421875,1.479200005531311,-0.06319999694824219,9.694199562072754
1683006632205482500,2.529482421875,1.4914000034332275,-0.055299997329711914,9.692399978637695
1683006632225482500,2.549482421875,1.493399977684021,-0.035599999129772186,9.692099571228027
1683006632245482500,2.569482421875,1.4794999361038208,-0.009499999694526196,9.694299697875977
1683006632265482500,2.589482421875,1.4636999368667603,0.013499999418854713,9.696700096130371
1683006632285482500,2.609482421875,1.4393999576568604,0.02159999869763851,9.700399398803711
1683006632305482500,2.629482421875,1.399399995803833,0.0015999999595806003,9.706199645996094
1683006632325482500,2.649482421875,1.3696999549865723,-0.031199999153614044,9.710399627685547
1683006632345482500,2.669482421875,1.3737999200820923,-0.05649999901652336,9.709699630737305
1683006632365485600,2.689485595703125,1.4118999242782593,-0.06269999593496323,9.70419979095459
1683006632385482500,2.709482421875,1.4430999755859375,-0.06039999797940254,9.699699401855469
1683006632405482500,2.729482421875,1.441100001335144,-0.06509999930858612,9.699899673461914
1683006632425482500,2.749482421875,1.4204000234603882,-0.08959999680519104,9.702799797058105
1683006632445484000,2.769484130859375,1.4074000120162964,-0.11909999698400497,9.704299926757812
1683006632465482500,2.789482421875,1.4543999433517456,-0.13759998977184296,9.697199821472168
1683006632485482500,2.809482421875,1.5677999258041382,-0.13979999721050262,9.679399490356445
1683006632505482500,2.829482421875,1.6680999994277954,-0.14949999749660492,9.66249942779541
1683006632525484000,2.849484130859375,1.7441999912261963,-0.17970000207424164,9.648599624633789
1683006632545482500,2.869482421875,1.82479989528656,-0.2175999879837036,9.632899284362793
1683006632565482500,2.889482421875,1.9050999879837036,-0.21409998834133148,9.617400169372559
1683006632585482500,2.909482421875,1.8882999420166016,-0.1614999920129776,9.621699333190918
1683006632605482500,2.929482421875,1.8000999689102173,-0.13099999725818634,9.639100074768066
1683006632625482500,2.949482421875,1.727199912071228,-0.1419999897480011,9.652199745178223
1683006632645482500,2.969482421875,1.7421000003814697,-0.14739999175071716,9.649499893188477
1683006632665484000,2.989484130859375,1.826799988746643,-0.11419999599456787,9.634300231933594
1683006632685482500,3.009482421875,1.934999942779541,-0.07419999688863754,9.613499641418457
1683006632705482500,3.029482421875,2.0246999263763428,-0.07109999656677246,9.594999313354492
1683006632725482500,3.049482421875,2.0560998916625977,-0.08309999853372574,9.588299751281738
1683006632745482500,3.069482421875,2.0202999114990234,-0.08389999717473984,9.59589958190918
1683006632765482500,3.089482421875,1.9299999475479126,-0.09389999508857727,9.614299774169922
1683006632785482500,3.109482421875,1.8257999420166016,-0.1354999989271164,9.634200096130371
1683006632805484000,3.129484130859375,1.7587000131607056,-0.19599999487400055,9.645599365234375
1683006632825482500,3.149482421875,1.730299949645996,-0.24639999866485596,9.6496000289917
1683006632845482500,3.169482421875,1.6999999284744263,-0.2840999960899353,9.653900146484375
1683006632865482500,3.189482421875,1.6527999639511108,-0.3163999915122986,9.661099433898926
1683006632885482500,3.209482421875,1.6000999212265015,-0.34289997816085815,9.669099807739258
1683006632905482500,3.229482421875,1.5541999340057373,-0.3619000017642975,9.675899505615234
1683006632925482500,3.249482421875,1.5164999961853027,-0.3707999885082245,9.681499481201172
1683006632945484000,3.269484130859375,1.4814999103546143,-0.3791999816894531,9.686599731445312
1683006632965485600,3.289485595703125,1.427899956703186,-0.39649999141693115,9.693999290466309
1683006632985482500,3.309482421875,1.376599907875061,-0.40639999508857727,9.701000213623047
1683006633005482500,3.329482421875,1.3758999109268188,-0.39089998602867126,9.701700210571289
1683006633025484000,3.349484130859375,1.4265999794006348,-0.35899999737739563,9.695599555969238
1683006633045482500,3.369482421875,1.4848999977111816,-0.3310999870300293,9.687899589538574
1683006633065485600,3.389485595703125,1.4814000129699707,-0.32819998264312744,9.688499450683594
1683006633085482500,3.409482421875,1.4189999103546143,-0.3564999997615814,9.696799278259277
1683006633105485600,3.429485595703125,1.364799976348877,-0.37199997901916504,9.703999519348145
1683006633125482500,3.449482421875,1.3675999641418457,-0.34610000252723694,9.704599380493164
1683006633145482500,3.469482421875,1.4009000062942505,-0.32099997997283936,9.700699806213379
1683006633165484000,3.489484130859375,1.4258999824523926,-0.34039998054504395,9.696399688720703
1683006633185484000,3.509484130859375,1.423200011253357,-0.3771999776363373,9.695399284362793
1683006633205482500,3.529482421875,1.444100022315979,-0.3651999831199646,9.69279956817627
1683006633225482500,3.549482421875,1.475600004196167,-0.27559998631477356,9.690999984741211
1683006633245482500,3.569482421875,1.5069999694824219,-0.15799999237060547,9.688799858093262
1683006633265482500,3.589482421875,1.5295000076293945,-0.07930000126361847,9.686299324035645
1683006633285482500,3.609482421875,1.5432000160217285,-0.059699997305870056,9.684199333190918
1683006633305484000,3.629484130859375,1.5548999309539795,-0.07029999792575836,9.682299613952637
1683006633325482500,3.649482421875,1.566999912261963,-0.08429999649524689,9.68019962310791
1683006633345482500,3.669482421875,1.5687999725341797,-0.09349999576807022,9.679800033569336
1683006633365482500,3.689482421875,1.552799940109253,-0.09619999676942825,9.68239974975586
1683006633385482500,3.709482421875,1.5173999071121216,-0.09910000115633011,9.687999725341797
1683006633405482500,3.729482421875,1.4751999378204346,-0.11319999396800995,9.694299697875977
1683006633425482500,3.749482421875,1.4388999938964844,-0.13849999010562897,9.69950008392334
1683006633445485600,3.769485595703125,1.424899935722351,-0.1655000001192093,9.701099395751953
1683006633465482500,3.789482421875,1.438499927520752,-0.18019999563694,9.698800086975098
1683006633485482500,3.809482421875,1.4617999792099,-0.17389999330043793,9.695499420166016
1683006633505485600,3.829485595703125,1.4775999784469604,-0.15070000290870667,9.693499565124512
1683006633525485600,3.849485595703125,1.4787999391555786,-0.13189999759197235,9.693599700927734
1683006633545482500,3.869482421875,1.4596999883651733,-0.13319998979568481,9.696399688720703
1683006633565482500,3.889482421875,1.4232999086380005,-0.14389999210834503,9.701700210571289
1683006633585484000,3.909484130859375,1.4023000001907349,-0.13499999046325684,9.704899787902832
1683006633605482500,3.929482421875,1.417799949645996,-0.09200000017881393,9.703100204467773
1683006633625482500,3.949482421875,1.4392999410629272,-0.05299999937415123,9.700200080871582
1683006633645482500,3.969482421875,1.479599952697754,-0.045499999076128006,9.694199562072754
1683006633665485600,3.989485595703125,1.5586999654769897,-0.044199999421834946,9.68179988861084
1683006633685485600,4.009485595703125,1.633099913597107,-0.003399999812245369,9.669699668884277
1683006633705482500,4.029482421875,1.6151999235153198,0.0616999976336956,9.672499656677246
1683006633725482500,4.049482421875,1.5196999311447144,0.09129999577999115,9.687699317932129
1683006633745485600,4.069485595703125,1.4150999784469604,0.0819999948143959,9.70359992980957
1683006633765482500,4.089482421875,1.3808999061584473,0.07989999651908875,9.708600044250488
1683006633785482500,4.109482421875,1.4208999872207642,0.10909999907016754,9.702499389648438
1683006633805482500,4.129482421875,1.4817999601364136,0.1388999968767166,9.692999839782715
1683006633825482500,4.149482421875,1.521899938583374,0.1193000003695488,9.686999320983887
1683006633845482500,4.169482421875,1.5094999074935913,0.05719999969005585,9.689599990844727
1683006633865482500,4.189482421875,1.4362000226974487,-0.005399999674409628,9.700900077819824
1683006633885482500,4.209482421875,1.340499997138977,-0.05119999870657921,9.714399337768555
1683006633905482500,4.229482421875,1.2687000036239624,-0.08139999955892563,9.723799705505371
1683006633925482500,4.249482421875,1.2213000059127808,-0.09529999643564224,9.7298002243042
1683006633945482500,4.269482421875,1.1962999105453491,-0.09939999878406525,9.732799530029297
1683006633965482500,4.289482421875,1.1812000274658203,-0.10329999774694443,9.734600067138672
1683006633985482500,4.309482421875,1.1710000038146973,-0.10869999974966049,9.735799789428711
1683006634005484000,4.329484130859375,1.1668999195098877,-0.10579999536275864,9.736299514770508
1683006634025485600,4.349485595703125,1.1698999404907227,-0.07660000026226044,9.736299514770508
1683006634045482500,4.369482421875,1.1700999736785889,-0.02630000002682209,9.736499786376953
1683006634065482500,4.389482421875,1.1490999460220337,0.01640000008046627,9.738999366760254
1683006634085484000,4.409484130859375,1.0961999893188477,0.03370000049471855,9.745100021362305
1683006634105484000,4.429484130859375,1.0311999320983887,0.030299998819828033,9.75220012664795
1683006634125482500,4.449482421875,1.0124999284744263,0.03839999809861183,9.75409984588623
1683006634145485600,4.469485595703125,1.0662999153137207,0.09079999476671219,9.748000144958496
1683006634165485600,4.489485595703125,1.1359000205993652,0.149399995803833,9.739399909973145
1683006634185482500,4.509482421875,1.1700999736785889,0.17629998922348022,9.734899520874023
1683006634205482500,4.529482421875,1.1718999147415161,0.1665000021457672,9.734899520874023
1683006634225482500,4.549482421875,1.1654999256134033,0.16300000250339508,9.735699653625488
1683006634245484000,4.569484130859375,1.1680999994277954,0.18639999628067017,9.734999656677246
1683006634265482500,4.589482421875,1.1672999858856201,0.19569998979568481,9.734899520874023
1683006634285482500,4.609482421875,1.147499918937683,0.1582999974489212,9.737899780273438
1683006634305484000,4.629484130859375,1.1180999279022217,0.11159999668598175,9.741999626159668
1683006634325482500,4.649482421875,1.1330000162124634,0.1306999921798706,9.739999771118164
1683006634345485600,4.669485595703125,1.180299997329712,0.22869999706745148,9.732600212097168
1683006634365482500,4.689482421875,1.2314000129699707,0.3294999897480011,9.723400115966797
1683006634385485600,4.709485595703125,1.2797999382019043,0.3901999890804291,9.714900016784668
1683006634405482500,4.729482421875,1.3163999319076538,0.4059000015258789,9.709400177001953
1683006634425484000,4.749484130859375,1.3300999402999878,0.3902999758720398,9.708099365234375
1683006634445484000,4.769484130859375,1.3198000192642212,0.36730000376701355,9.710399627685547
1683006634465482500,4.789482421875,1.2914999723434448,0.35199999809265137,9.714799880981445
1683006634485482500,4.809482421875,1.2558000087738037,0.34630000591278076,9.71969985961914
1683006634505484000,4.829484130859375,1.2264000177383423,0.3409999907016754,9.723599433898926
1683006634525482500,4.849482421875,1.2078999280929565,0.32499998807907104,9.726499557495117
1683006634545482500,4.869482421875,1.2026000022888184,0.296999990940094,9.727999687194824
1683006634565482500,4.889482421875,1.2014999389648438,0.26350000500679016,9.729100227355957
1683006634585482500,4.909482421875,1.2037999629974365,0.23899999260902405,9.729499816894531
1683006634605485600,4.929485595703125,1.2077000141143799,0.23729999363422394,9.729000091552734
1683006634625482500,4.949482421875,1.2050999402999878,0.2556000053882599,9.728899955749512
1683006634645482500,4.969482421875,1.2108999490737915,0.26989999413490295,9.727799415588379
1683006634665485600,4.989485595703125,1.2322999238967896,0.2613999843597412,9.725299835205078
1683006634685482500,5.009482421875,1.2558000087738037,0.23309999704360962,9.723099708557129
1683006634705482500,5.029482421875,1.2726999521255493,0.20520000159740448,9.7214994430542
1683006634725482500,5.049482421875,1.2968999147415161,0.19759999215602875,9.718400001525879
1683006634745482500,5.069482421875,1.30239999294281,0.188400000333786,9.717899322509766
1683006634765482500,5.089482421875,1.291700005531311,0.14139999449253082,9.720099449157715
1683006634785482500,5.109482421875,1.3280999660491943,0.08389999717473984,9.715899467468262
1683006634805484000,5.129484130859375,1.4377999305725098,0.07530000060796738,9.700300216674805
1683006634825482500,5.149482421875,1.5539000034332275,0.12269999831914902,9.681900024414062
1683006634845482500,5.169482421875,1.583299994468689,0.1639999896287918,9.676499366760254
1683006634865482500,5.189482421875,1.5268999338150024,0.12799999117851257,9.686100006103516
1683006634885482500,5.209482421875,1.455199956893921,0.05309999734163284,9.69789981842041
1683006634905482500,5.229482421875,1.4268999099731445,0.03179999813437462,9.702199935913086
1683006634925485600,5.249485595703125,1.4361000061035156,0.07919999957084656,9.700499534606934
1683006634945482500,5.269482421875,1.4947999715805054,0.12629999220371246,9.69119930267334
1683006634965482500,5.289482421875,1.5757999420166016,0.12929999828338623,9.678299903869629
1683006634985482500,5.309482421875,1.6274999380111694,0.09950000047683716,9.670100212097168
1683006635005482500,5.329482421875,1.6380000114440918,0.07339999824762344,9.668499946594238
1683006635025482500,5.349482421875,1.6154999732971191,0.06260000169277191,9.672399520874023
1683006635045482500,5.369482421875,1.5741000175476074,0.045899998396635056,9.679299354553223
1683006635065482500,5.389482421875,1.5269999504089355,0.017799999564886093,9.686999320983887
1683006635085482500,5.409482421875,1.4839999675750732,-0.009399999864399433,9.693599700927734
1683006635105484000,5.429484130859375,1.4541000127792358,-0.03150000050663948,9.698100090026855
1683006635125482500,5.449482421875,1.4363999366760254,-0.045899998396635056,9.700699806213379
1683006635145482500,5.469482421875,1.413699984550476,-0.04749999940395355,9.703999519348145
1683006635165484000,5.489484130859375,1.3858000040054321,-0.040300000458955765,9.708099365234375
1683006635185482500,5.509482421875,1.3443999290466309,-0.03500000014901161,9.713899612426758
1683006635205485600,5.529485595703125,1.2839000225067139,-0.04529999941587448,9.722099304199219
1683006635225482500,5.549482421875,1.2042999267578125,-0.07339999824762344,9.732099533081055
1683006635245482500,5.569482421875,1.1294000148773193,-0.10199999809265137,9.740799903869629
1683006635265482500,5.589482421875,1.1101999282836914,-0.10569999366998672,9.743000030517578
1683006635285482500,5.609482421875,1.13919997215271,-0.08609999716281891,9.739799499511719
1683006635305482500,5.629482421875,1.1741999387741089,-0.0778999999165535,9.735699653625488
1683006635325482500,5.649482421875,1.1646000146865845,-0.1054999977350235,9.736599922180176
1683006635345482500,5.669482421875,1.1425999402999878,-0.1347000002861023,9.738900184631348
1683006635365482500,5.689482421875,1.1181999444961548,-0.11509999632835388,9.741999626159668
1683006635385482500,5.709482421875,1.0877000093460083,-0.07519999891519547,9.745800018310547
1683006635405482500,5.729482421875,1.055999994277954,-0.0738999992609024,9.749300003051758
1683006635425482500,5.749482421875,1.0461000204086304,-0.10619999468326569,9.750100135803223
1683006635445482500,5.769482421875,1.0777000188827515,-0.1143999993801117,9.746500015258789
1683006635465482500,5.789482421875,1.1567999124526978,-0.05729999765753746,9.73799991607666
1683006635485482500,5.809482421875,1.2204999923706055,0.03309999778866768,9.730299949645996
1683006635505482500,5.829482421875,1.2376999855041504,0.10329999774694443,9.72760009765625
1683006635525482500,5.849482421875,1.2318999767303467,0.15279999375343323,9.727699279785156
1683006635545482500,5.869482421875,1.2209999561309814,0.18529999256134033,9.728499412536621
1683006635565482500,5.889482421875,1.2156999111175537,0.19029998779296875,9.729100227355957
1683006635585482500,5.909482421875,1.2254999876022339,0.17649999260902405,9.728099822998047
1683006635605482500,5.929482421875,1.2421000003814697,0.1639999896287918,9.726200103759766
1683006635625482500,5.949482421875,1.2487999200820923,0.14970000088214874,9.72559928894043
1683006635645482500,5.969482421875,1.2325999736785889,0.12429999560117722,9.727999687194824
1683006635665484000,5.989484130859375,1.1926000118255615,0.08889999985694885,9.733399391174316
1683006635685482500,6.009482421875,1.150499939918518,0.05590000003576279,9.738699913024902
1683006635705482500,6.029482421875,1.125999927520752,0.03480000048875809,9.741700172424316
1683006635725482500,6.049482421875,1.1181999444961548,0.030299998819828033,9.742599487304688
1683006635745484000,6.069484130859375,1.129699945449829,0.0357000008225441,9.741199493408203
1683006635765482500,6.089482421875,1.1505999565124512,0.042500000447034836,9.738800048828125
1683006635785484000,6.109484130859375,1.1531000137329102,0.03999999910593033,9.738499641418457
1683006635805484000,6.129484130859375,1.1313999891281128,0.011099999770522118,9.74109935760498
1683006635825482500,6.149482421875,1.0871999263763428,-0.0364999994635582,9.746099472045898
1683006635845485600,6.169485595703125,1.0454999208450317,-0.08240000158548355,9.750399589538574
1683006635865482500,6.189482421875,1.0490000247955322,-0.1096000000834465,9.749699592590332
1683006635885482500,6.209482421875,1.0899999141693115,-0.1151999980211258,9.745100021362305
1683006635905482500,6.229482421875,1.138100028038025,-0.13519999384880066,9.739399909973145
1683006635925482500,6.249482421875,1.2056000232696533,-0.22019998729228973,9.729700088500977
1683006635945485600,6.269485595703125,1.2649999856948853,-0.31769999861717224,9.719499588012695
1683006635965482500,6.289482421875,1.2695000171661377,-0.3319000005722046,9.718400001525879
1683006635985482500,6.309482421875,1.1868000030517578,-0.31859999895095825,9.729299545288086
1683006636005482500,6.329482421875,1.0964999198913574,-0.3337000012397766,9.739399909973145
1683006636025482500,6.349482421875,1.051200032234192,-0.33480000495910645,9.74429988861084
1683006636045482500,6.369482421875,1.0514999628067017,-0.27070000767707825,9.746299743652344
1683006636065485600,6.389485595703125,1.0719000101089478,-0.19529999792575836,9.74590015411377
1683006636085484000,6.409484130859375,1.0753999948501587,-0.15779998898506165,9.746199607849121
1683006636105484000,6.429484130859375,1.055400013923645,-0.17459999024868011,9.748099327087402
1683006636125482500,6.449482421875,1.0228999853134155,-0.2295999974012375,9.750399589538574
1683006636145482500,6.469482421875,0.9713999629020691,-0.2945999801158905,9.753899574279785
1683006636165482500,6.489482421875,0.9474999904632568,-0.3570999801158905,9.754199981689453
1683006636185482500,6.509482421875,0.9585999846458435,-0.37279999256134033,9.7524995803833
1683006636205484000,6.529484130859375,0.9542999863624573,-0.3434000015258789,9.753999710083008
1683006636225482500,6.549482421875,0.9185999631881714,-0.3172000050544739,9.758299827575684
1683006636245482500,6.569482421875,0.8754000067710876,-0.2953999936580658,9.762999534606934
1683006636265482500,6.589482421875,0.8294000029563904,-0.24169999361038208,9.768499374389648
1683006636285482500,6.609482421875,0.8050999641418457,-0.19499999284744263,9.771499633789062
1683006636305484000,6.629484130859375,0.7657999992370605,-0.14819999039173126,9.77549934387207
1683006636325482500,6.649482421875,0.7376999855041504,-0.10619999468326569,9.778200149536133
1683006636345482500,6.669482421875,0.7249000072479248,-0.08419999480247498,9.779399871826172
1683006636365482500,6.689482421875,0.6965000033378601,-0.06469999998807907,9.781599998474121
1683006636385482500,6.709482421875,0.6500999927520752,-0.08389999717473984,9.784699440002441
1683006636405482500,6.729482421875,0.5913999676704407,-0.10300000011920929,9.788199424743652
1683006636425482500,6.749482421875,0.5672000050544739,-0.10179999470710754,9.78969955444336
1683006636445482500,6.769482421875,0.5673999786376953,-0.09539999812841415,9.78969955444336
1683006636465482500,6.789482421875,0.5422999858856201,-0.10819999873638153,9.790999412536621
1683006636485482500,6.809482421875,0.48420000076293945,-0.15160000324249268,9.793499946594238
1683006636505484000,6.829484130859375,0.4318999946117401,-0.18959999084472656,9.795199394226074
1683006636525482500,6.849482421875,0.4251999855041504,-0.19550000131130219,9.79539966583252
1683006636545482500,6.869482421875,0.45260000228881836,-0.17579999566078186,9.794599533081055
1683006636565482500,6.889482421875,0.47119998931884766,-0.16779999434947968,9.79379940032959
1683006636585482500,6.909482421875,0.4615999758243561,-0.17509999871253967,9.79419994354248
1683006636605482500,6.929482421875,0.4432999789714813,-0.17589999735355377,9.795000076293945
1683006636625485600,6.949485595703125,0.44359999895095825,-0.14309999346733093,9.795499801635742
1683006636645482500,6.969482421875,0.471699982881546,-0.09910000115633011,9.794699668884277
1683006636665482500,6.989482421875,0.5133999586105347,-0.06529999524354935,9.792900085449219
1683006636685482500,7.009482421875,0.5424000024795532,-0.04039999842643738,9.791500091552734
1683006636705482500,7.029482421875,0.5460000038146973,-0.03280000016093254,9.791299819946289
1683006636725482500,7.049482421875,0.535099983215332,-0.044499997049570084,9.791899681091309
1683006636745482500,7.069482421875,0.5303999781608582,-0.07229999452829361,9.791999816894531
1683006636765482500,7.089482421875,0.5318999886512756,-0.10189999639987946,9.791600227355957
1683006636785482500,7.109482421875,0.5317999720573425,-0.1363999992609024,9.791199684143066
1683006636805485600,7.129485595703125,0.5318999886512756,-0.17459999024868011,9.790599822998047
1683006636825485600,7.149485595703125,0.5300999879837036,-0.2141999900341034,9.789899826049805
1683006636845484000,7.169484130859375,0.5303999781608582,-0.2532999813556671,9.788999557495117
1683006636865484000,7.189484130859375,0.5327000021934509,-0.29019999504089355,9.787799835205078
1683006636885484000,7.209484130859375,0.5406000018119812,-0.321399986743927,9.786399841308594
1683006636905484000,7.229484130859375,0.5480999946594238,-0.34360000491142273,9.785200119018555
1683006636925484000,7.249484130859375,0.5489000082015991,-0.36159998178482056,9.784500122070312
1683006636945484000,7.269484130859375,0.5518999695777893,-0.3822999894618988,9.783599853515625
1683006636965484000,7.289484130859375,0.5490999817848206,-0.40849998593330383,9.782699584960938
1683006636985484000,7.309484130859375,0.5514999628067017,-0.43299999833106995,9.781499862670898
1683006637005484000,7.329484130859375,0.571399986743927,-0.43949997425079346,9.780099868774414
1683006637025484000,7.349484130859375,0.6172999739646912,-0.4212999939918518,9.77810001373291
1683006637045484000,7.369484130859375,0.6681999564170837,-0.40849998593330383,9.775300025939941
1683006637065484000,7.389484130859375,0.7233999967575073,-0.4284999966621399,9.770500183105469
1683006637085484000,7.409484130859375,0.7924999594688416,-0.45899999141693115,9.763699531555176
1683006637105484000,7.429484130859375,0.8725000023841858,-0.4487999975681305,9.757399559020996
1683006637125484000,7.449484130859375,0.9483000040054321,-0.39469999074935913,9.752699851989746
1683006637145484000,7.469484130859375,0.9807999730110168,-0.3619000017642975,9.750699996948242
1683006637165484000,7.489484130859375,0.9715999960899353,-0.3780999779701233,9.750999450683594
1683006637185484000,7.509484130859375,0.9440000057220459,-0.3896999955177307,9.753299713134766
1683006637205484000,7.529484130859375,0.9282999634742737,-0.3652999997138977,9.75570011138916
1683006637225484000,7.549484130859375,0.9623000025749207,-0.33149999380111694,9.753600120544434
1683006637245484000,7.569484130859375,1.006500005722046,-0.31939998269081116,9.74959945678711
1683006637265484000,7.589484130859375,1.007599949836731,-0.32409998774528503,9.749300003051758
1683006637285484000,7.609484130859375,0.958299994468689,-0.3427000045776367,9.753600120544434
1683006637305484000,7.629484130859375,0.9023000001907349,-0.37139999866485596,9.757899284362793
1683006637325484000,7.649484130859375,0.8689999580383301,-0.40309998393058777,9.759699821472168
1683006637345484000,7.669484130859375,0.8560999631881714,-0.4277999997138977,9.75979995727539
1683006637365484000,7.689484130859375,0.8380999565124512,-0.4407999813556671,9.760799407958984
1683006637385484000,7.709484130859375,0.809499979019165,-0.45399999618530273,9.76259994506836
1683006637405484000,7.729484130859375,0.7788999676704407,-0.47429999709129333,9.764100074768066
1683006637425484000,7.749484130859375,0.7502999901771545,-0.49969998002052307,9.76509952545166
1683006637445484000,7.769484130859375,0.7226999998092651,-0.527899980545044,9.76569938659668
1683006637465482500,7.789482421875,0.6972000002861023,-0.5532000064849854,9.76609992980957
1683006637485484000,7.809484130859375,0.6685999631881714,-0.579800009727478,9.766599655151367
1683006637505484000,7.829484130859375,0.630899965763092,-0.604200005531311,9.767600059509277
1683006637525482500,7.849482421875,0.5983999967575073,-0.6208999752998352,9.768599510192871
1683006637545484000,7.869484130859375,0.5857999920845032,-0.6251999735832214,9.769100189208984
1683006637565484000,7.889484130859375,0.5895999670028687,-0.6152999997138977,9.769499778747559
1683006637585484000,7.909484130859375,0.5924000144004822,-0.6004999876022339,9.7701997756958
1683006637605484000,7.929484130859375,0.5622000098228455,-0.6069999933242798,9.771599769592285
1683006637625484000,7.949484130859375,0.5185999870300293,-0.6258000135421753,9.772899627685547
1683006637645484000,7.969484130859375,0.4884999990463257,-0.6132999658584595,9.775199890136719
1683006637665482500,7.989482421875,0.5220999717712402,-0.5582000017166138,9.776800155639648
1683006637685481000,8.00948095703125,0.5898000001907349,-0.48889997601509094,9.776599884033203
1683006637705484000,8.029484130859375,0.6371999979019165,-0.44599997997283936,9.775699615478516
1683006637725484000,8.049484130859375,0.6416999697685242,-0.41599997878074646,9.776700019836426
1683006637745484000,8.069484130859376,0.6237999796867371,-0.3919000029563904,9.778900146484375
1683006637765484000,8.089484130859375,0.6157999634742737,-0.37880000472068787,9.779899597167969
1683006637785482500,8.109482421875,0.6403999924659729,-0.3652999997138977,9.778800010681152
1683006637805484000,8.129484130859375,0.6820999979972839,-0.34689998626708984,9.776700019836426
1683006637825484000,8.149484130859374,0.7247999906539917,-0.3325999975204468,9.774099349975586
1683006637845484000,8.169484130859376,0.7461999654769897,-0.3294999897480011,9.772600173950195
1683006637865484000,8.189484130859375,0.7439999580383301,-0.34369999170303345,9.772299766540527
1683006637885484000,8.209484130859375,0.7311999797821045,-0.368399977684021,9.77239990234375
1683006637905482500,8.229482421875,0.7174999713897705,-0.3971000015735626,9.772199630737305
1683006637925482500,8.249482421875,0.7156999707221985,-0.4276999831199646,9.771100044250488
1683006637945482500,8.269482421875,0.7222999930381775,-0.45170000195503235,9.769499778747559
1683006637965482500,8.289482421875,0.7218999862670898,-0.4675999879837036,9.768799781799316
1683006637985484000,8.309484130859374,0.7193999886512756,-0.4821999967098236,9.76830005645752
1683006638005484000,8.329484130859376,0.7184000015258789,-0.4887999892234802,9.767999649047852
1683006638025484000,8.349484130859375,0.7172999978065491,-0.48899999260902405,9.768099784851074
1683006638045484000,8.369484130859375,0.7195999622344971,-0.4902999997138977,9.767899513244629
1683006638065484000,8.389484130859374,0.7134000062942505,-0.5004000067710876,9.767799377441406
1683006638085484000,8.409484130859376,0.6893999576568604,-0.5170999765396118,9.768699645996094
1683006638105484000,8.429484130859375,0.6668999791145325,-0.5264999866485596,9.769700050354004
1683006638125484000,8.449484130859375,0.6650999784469604,-0.5044999718666077,9.770999908447266
1683006638145484000,8.469484130859374,0.6818000078201294,-0.4510999917984009,9.772500038146973
1683006638165484000,8.489484130859376,0.7073000073432922,-0.39629998803138733,9.77299976348877
1683006638185484000,8.509484130859375,0.736799955368042,-0.37770000100135803,9.771599769592285
1683006638205484000,8.529484130859375,0.7687999606132507,-0.3633999824523926,9.769700050354004
1683006638225482500,8.549482421875,0.816100001335144,-0.3114999830722809,9.767600059509277
1683006638245484000,8.569484130859376,0.85589998960495,-0.23649999499320984,9.766300201416016
1683006638265484000,8.589484130859375,0.8513000011444092,-0.18219999969005585,9.767899513244629
1683006638285484000,8.609484130859375,0.819599986076355,-0.1550000011920929,9.771100044250488
1683006638305484000,8.629484130859375,0.7932999730110168,-0.10979999601840973,9.773799896240234
1683006638325484000,8.649484130859374,0.8201999664306641,-0.04659999907016754,9.772099494934082
1683006638345484000,8.669484130859376,0.8703999519348145,-0.00009999999747378752,9.767899513244629
1683006638365484000,8.689484130859375,0.8926999568939209,0.0071000000461936,9.765899658203125
1683006638385482500,8.709482421875,0.8664000034332275,-0.025299999862909317,9.768199920654297
1683006638405484000,8.729484130859374,0.8175999522209167,-0.07490000128746033,9.772199630737305
1683006638425484000,8.749484130859376,0.7748000025749207,-0.1257999986410141,9.775099754333496
1683006638445482500,8.769482421875,0.7498999834060669,-0.15940000116825104,9.776599884033203
1683006638465481000,8.78948095703125,0.7418999671936035,-0.17299999296665192,9.776999473571777
1683006638485481000,8.80948095703125,0.7392999529838562,-0.17999999225139618,9.776999473571777
1683006638505482500,8.829482421875,0.7378999590873718,-0.18979999423027039,9.776999473571777
1683006638525482500,8.849482421875,0.7222999930381775,-0.2044999897480011,9.777799606323242
1683006638545482500,8.869482421875,0.7023999691009521,-0.2198999971151352,9.778900146484375
1683006638565484000,8.889484130859374,0.686199963092804,-0.23149999976158142,9.779799461364746
1683006638585482500,8.909482421875,0.676099956035614,-0.24199999868869781,9.78030014038086
1683006638605482500,8.929482421875,0.668999969959259,-0.2547999918460846,9.780399322509766
1683006638625482500,8.949482421875,0.6503999829292297,-0.2701999843120575,9.781299591064453
1683006638645482500,8.969482421875,0.6154999732971191,-0.2888000011444092,9.782999992370605
1683006638665482500,8.989482421875,0.5875999927520752,-0.2987000048160553,9.78439998626709
1683006638685482500,9.009482421875,0.5928999781608582,-0.2856000065803528,9.784500122070312
1683006638705482500,9.029482421875,0.6162999868392944,-0.25769999623298645,9.78380012512207
1683006638725482500,9.049482421875,0.6152999997138977,-0.24300000071525574,9.784299850463867
1683006638745482500,9.069482421875,0.5986999869346619,-0.24469999969005585,9.785200119018555
1683006638765482500,9.089482421875,0.597599983215332,-0.2246999889612198,9.785799980163574
1683006638785482500,9.109482421875,0.635699987411499,-0.18469999730587006,9.784199714660645
1683006638805482500,9.129482421875,0.6850999593734741,-0.1559000015258789,9.781399726867676
1683006638825482500,9.149482421875,0.7145999670028687,-0.15680000185966492,9.77929973602295
1683006638845484000,9.169484130859376,0.7245999574661255,-0.15349999070167542,9.778599739074707
1683006638865484000,9.189484130859375,0.7396000027656555,-0.11539999395608902,9.777999877929688
1683006638885482500,9.209482421875,0.7773999571800232,-0.06189999729394913,9.77549934387207
1683006638905482500,9.229482421875,0.8174999952316284,-0.015399999916553497,9.77239990234375
1683006638925482500,9.249482421875,0.8363999724388123,0.015599999576807022,9.770899772644043
1683006638945482500,9.269482421875,0.8438999652862549,0.03229999914765358,9.7701997756958
1683006638965482500,9.289482421875,0.8506999611854553,0.0364999994635582,9.769599914550781
1683006638985484000,9.309484130859374,0.8593999743461609,0.032499998807907104,9.768799781799316
1683006639005482500,9.329482421875,0.8666999936103821,0.02149999886751175,9.768199920654297
1683006639025482500,9.349482421875,0.8676999807357788,0.003000000026077032,9.768099784851074
1683006639045482500,9.369482421875,0.8675000071525574,-0.020499998703598976,9.768099784851074
1683006639065482500,9.389482421875,0.8705999851226807,-0.04360000044107437,9.767799377441406
1683006639085482500,9.409482421875,0.8784999847412109,-0.06279999762773514,9.767000198364258
1683006639105482500,9.429482421875,0.8925999999046326,-0.07580000162124634,9.765600204467773
1683006639125482500,9.449482421875,0.9057999849319458,-0.0803999975323677,9.764299392700195
1683006639145484000,9.469484130859374,0.9182999730110168,-0.08399999886751175,9.763099670410156
1683006639165482500,9.489482421875,0.9318999648094177,-0.09049999713897705,9.761799812316895
1683006639185482500,9.509482421875,0.9347999691963196,-0.10289999842643738,9.76140022277832
1683006639205482500,9.529482421875,0.9373999834060669,-0.12129999697208405,9.760899543762207
1683006639225482500,9.549482421875,0.9423999786376953,-0.1394999921321869,9.760199546813965
1683006639245482500,9.569482421875,0.9554999470710754,-0.14459998905658722,9.758899688720703
1683006639265482500,9.589482421875,0.9894999861717224,-0.12129999697208405,9.755799293518066
1683006639285482500,9.609482421875,1.0343999862670898,-0.10209999978542328,9.751399993896484
1683006639305484000,9.629484130859375,1.0686999559402466,-0.11289999634027481,9.747499465942383
1683006639325482500,9.649482421875,1.0928000211715698,-0.1428999900817871,9.744500160217285
1683006639345484000,9.669484130859376,1.1225999593734741,-0.1437000036239624,9.74109935760498
1683006639365484000,9.689484130859375,1.1603000164031982,-0.094200000166893,9.737299919128418
1683006639385482500,9.709482421875,1.170699954032898,-0.04580000042915344,9.73639965057373
1683006639405482500,9.729482421875,1.1419999599456787,-0.032899998128414154,9.739799499511719
1683006639425482500,9.749482421875,1.0994999408721924,-0.030299998819828033,9.744699478149414
1683006639445482500,9.769482421875,1.0923999547958374,-0.010400000028312206,9.745599746704102
1683006639465484000,9.789484130859375,1.125,0.0071000000461936,9.741899490356445
1683006639485484000,9.809484130859374,1.1452999114990234,0.0007999999797903001,9.739500045776367
1683006639505484000,9.829484130859376,1.125499963760376,-0.03399999812245369,9.741700172424316
1683006639525482500,9.849482421875,1.0820999145507812,-0.09439999610185623,9.746299743652344
1683006639545482500,9.869482421875,1.0472999811172485,-0.15950000286102295,9.749199867248535
1683006639565482500,9.889482421875,1.032099962234497,-0.21629999577999115,9.749699592590332
1683006639585482500,9.909482421875,1.0260000228881836,-0.2572999894618988,9.74940013885498
1683006639605482500,9.929482421875,1.0164999961853027,-0.2842999994754791,9.74959945678711
1683006639625482500,9.949482421875,1.0026999711990356,-0.3068999946117401,9.750399589538574
1683006639645484000,9.969484130859374,0.9921999573707581,-0.33139997720718384,9.75059986114502
1683006639665484000,9.989484130859376,0.9750999808311462,-0.3617999851703644,9.751299858093262
1683006639685482500,10.009482421875,0.9490999579429626,-0.3903999924659729,9.752799987792969
1683006639705485600,10.029485595703125,0.9228999614715576,-0.4124999940395355,9.754399299621582
1683006639725482500,10.049482421875,0.8919000029563904,-0.43299999833106995,9.75629997253418
1683006639745482500,10.069482421875,0.8526999950408936,-0.44999998807907104,9.759099960327148
1683006639765482500,10.089482421875,0.804099977016449,-0.4560999870300293,9.762899398803711
1683006639785485600,10.109485595703125,0.7577999830245972,-0.4495999813079834,9.766900062561035
1683006639805484000,10.129484130859375,0.731499969959259,-0.42989999055862427,9.769800186157227
1683006639825482500,10.149482421875,0.7258999943733215,-0.4007999897003174,9.771499633789062
1683006639845484000,10.169484130859376,0.7038999795913696,-0.38419997692108154,9.773799896240234
1683006639865484000,10.189484130859375,0.6413999795913696,-0.40049999952316284,9.777400016784668
1683006639885482500,10.209482421875,0.5881999731063843,-0.4077000021934509,9.780399322509766
1683006639905482500,10.229482421875,0.5770999789237976,-0.3698999881744385,9.782599449157715
1683006639925482500,10.249482421875,0.617900013923645,-0.28369998931884766,9.782999992370605
1683006639945482500,10.269482421875,0.6543999910354614,-0.19679999351501465,9.78279972076416
1683006639965484000,10.289484130859375,0.6568999886512756,-0.14069999754428864,9.783599853515625
1683006639985484000,10.309484130859374,0.6432999968528748,-0.1013999953866005,9.784899711608887
1683006640005482500,10.329482421875,0.6518999934196472,-0.05379999801516533,9.784799575805664
1683006640025482500,10.349482421875,0.6820999979972839,0.0009999999310821295,9.78279972076416
1683006640045482500,10.369482421875,0.7138999700546265,0.04569999873638153,9.780499458312988
1683006640065482500,10.389482421875,0.7353999614715576,0.07649999856948853,9.77869987487793
1683006640085484000,10.409484130859376,0.7534999847412109,0.09439999610185623,9.777099609375
1683006640105482500,10.429482421875,0.7699999809265137,0.10809999704360962,9.775699615478516
1683006640125482500,10.449482421875,0.7870999574661255,0.1168999969959259,9.774299621582031
1683006640145482500,10.469482421875,0.7989000082015991,0.11879999935626984,9.773300170898438
1683006640165482500,10.489482421875,0.7975999712944031,0.11009999364614487,9.773499488830566
1683006640185482500,10.509482421875,0.7935999631881714,0.08819999545812607,9.77400016784668
1683006640205482500,10.529482421875,0.7889999747276306,0.05469999834895134,9.774700164794922
1683006640225482500,10.549482421875,0.7852999567985535,0.012600000016391277,9.775099754333496
1683006640245482500,10.569482421875,0.7805999517440796,-0.03399999812245369,9.775400161743164
1683006640265482500,10.589482421875,0.774399995803833,-0.07859999686479568,9.775699615478516
1683006640285482500,10.609482421875,0.7738999724388123,-0.11939999461174011,9.775300025939941
1683006640305482500,10.629482421875,0.7894999980926514,-0.15839999914169312,9.773499488830566
1683006640325482500,10.649482421875,0.8192999958992004,-0.19999998807907104,9.770299911499023
1683006640345484000,10.669484130859376,0.8448999524116516,-0.24069999158382416,9.767199516296387
1683006640365482500,10.689482421875,0.8497999906539917,-0.2678999900817871,9.765999794006348
1683006640385485600,10.709485595703125,0.8534999489784241,-0.2719999849796295,9.765600204467773
1683006640405482500,10.729482421875,0.8925999999046326,-0.2475999891757965,9.762700080871582
1683006640425482500,10.749482421875,0.9657999873161316,-0.21220000088214874,9.756599426269531
1683006640445482500,10.769482421875,1.0364999771118164,-0.19769999384880066,9.749699592590332
1683006640465482500,10.789482421875,1.0875999927520752,-0.20649999380111694,9.74389934539795
1683006640485482500,10.809482421875,1.1363999843597412,-0.21639999747276306,9.738100051879883
1683006640505482500,10.829482421875,1.205299973487854,-0.1987999975681305,9.730199813842773
1683006640525482500,10.849482421875,1.2493000030517578,-0.1631999909877777,9.725299835205078
1683006640545482500,10.869482421875,1.2472000122070312,-0.1412999927997589,9.725899696350098
1683006640565482500,10.889482421875,1.2132999897003174,-0.14229999482631683,9.730199813842773
1683006640585482500,10.909482421875,1.1995999813079834,-0.14159999787807465,9.731900215148926
1683006640605482500,10.929482421875,1.2323999404907227,-0.11639999598264694,9.72819995880127
1683006640625482500,10.949482421875,1.3075000047683716,-0.08879999816417694,9.718599319458008
1683006640645484000,10.969484130859374,1.3605999946594238,-0.06679999828338623,9.71150016784668
1683006640665482500,10.989482421875,1.3580999374389648,-0.05739999935030937,9.711899757385254
1683006640685482500,11.009482421875,1.3248999118804932,-0.06549999862909317,9.716499328613281
1683006640705482500,11.029482421875,1.2903000116348267,-0.09309999644756317,9.72089958190918
1683006640725482500,11.049482421875,1.2668999433517456,-0.13079999387264252,9.723499298095703
1683006640745482500,11.069482421875,1.2415999174118042,-0.16689999401569366,9.726200103759766
1683006640765482500,11.089482421875,1.2049999237060547,-0.19519999623298645,9.730299949645996
1683006640785485600,11.109485595703125,1.1632000207901,-0.22269999980926514,9.7347993850708
1683006640805484000,11.129484130859375,1.1217999458312988,-0.25220000743865967,9.738999366760254
1683006640825482500,11.149482421875,1.0866999626159668,-0.28519999980926514,9.741999626159668
1683006640845485600,11.169485595703126,1.0471999645233154,-0.32199999690055847,9.745200157165527
1683006640865484000,11.189484130859375,0.9998999834060669,-0.35989999771118164,9.748799324035645
1683006640885482500,11.209482421875,0.9422999620437622,-0.399399995803833,9.752999305725098
1683006640905482500,11.229482421875,0.8799999952316284,-0.4398999810218811,9.757100105285645
1683006640925482500,11.249482421875,0.8194999694824219,-0.4681999981403351,9.761099815368652
1683006640945482500,11.269482421875,0.7741000056266785,-0.4845999777317047,9.763999938964844
1683006640965482500,11.289482421875,0.7673999667167664,-0.4729999899864197,9.76509952545166
1683006640985482500,11.309482421875,0.7762999534606934,-0.4462999999523163,9.765600204467773
1683006641005484000,11.329484130859376,0.7666999697685242,-0.44279998540878296,9.766499519348145
1683006641025484000,11.349484130859375,0.7559999823570251,-0.459199994802475,9.766599655151367
1683006641045482500,11.369482421875,0.7609999775886536,-0.46549999713897705,9.765899658203125
1683006641065482500,11.389482421875,0.8089999556541443,-0.44439998269081116,9.763099670410156
1683006641085482500,11.409482421875,0.8763999938964844,-0.4092999994754791,9.75879955291748
1683006641105482500,11.429482421875,0.9080999493598938,-0.3887999951839447,9.756699562072754
1683006641125482500,11.449482421875,0.897599995136261,-0.3840999901294708,9.757899284362793
1683006641145482500,11.469482421875,0.8842999935150146,-0.36969998478889465,9.759599685668945
1683006641165482500,11.489482421875,0.9060999751091003,-0.3206999897956848,9.7593994140625
1683006641185484000,11.509484130859375,0.9545999765396118,-0.25929999351501465,9.756599426269531
1683006641205485600,11.529485595703125,1.0022000074386597,-0.20839999616146088,9.752999305725098
1683006641225499600,11.549499755859374,1.028499960899353,-0.17379999160766602,9.750999450683594
1683006641245482500,11.569482421875,1.031499981880188,-0.15629999339580536,9.750899314880371
1683006641265482500,11.589482421875,1.0252000093460083,-0.14819999039173126,9.751699447631836
1683006641285482500,11.609482421875,1.0247999429702759,-0.14409999549388885,9.751799583435059
1683006641305482500,11.629482421875,1.0226999521255493,-0.1477999985218048,9.751999855041504
1683006641325482500,11.649482421875,1.0159000158309937,-0.1565999984741211,9.752599716186523
1683006641345485600,11.669485595703126,1.0063999891281128,-0.17270000278949738,9.753299713134766
1683006641365484000,11.689484130859375,1.0013999938964844,-0.18889999389648438,9.753499984741211
1683006641385485600,11.709485595703125,1.0048999786376953,-0.202799990773201,9.752900123596191
1683006641405485600,11.729485595703125,1.0259000062942505,-0.2150999903678894,9.750399589538574
1683006641425482500,11.749482421875,1.0547000169754028,-0.22540000081062317,9.747099876403809
1683006641445482500,11.769482421875,1.0842000246047974,-0.24239999055862427,9.743499755859375
1683006641465482500,11.789482421875,1.112399935722351,-0.2622999846935272,9.739799499511719
1683006641485482500,11.809482421875,1.1403999328613281,-0.2870999872684479,9.735799789428711
1683006641505482500,11.829482421875,1.160599946975708,-0.320499986410141,9.732399940490723
1683006641525482500,11.849482421875,1.1825000047683716,-0.3578999936580658,9.728499412536621
1683006641545482500,11.869482421875,1.2278000116348267,-0.37299999594688416,9.722299575805664
1683006641565482500,11.889482421875,1.288599967956543,-0.3588999807834625,9.714900016784668
1683006641585484000,11.909484130859376,1.3572999238967896,-0.3621000051498413,9.705499649047852
1683006641605484000,11.929484130859375,1.4413999319076538,-0.37939998507499695,9.692699432373047
1683006641625482500,11.949482421875,1.5356999635696411,-0.3642999827861786,9.678699493408203
1683006641645482500,11.969482421875,1.6172000169754028,-0.3158999979496002,9.667200088500977
1683006641665482500,11.989482421875,1.650399923324585,-0.2978000044822693,9.662099838256836
1683006641685482500,12.009482421875,1.6412999629974365,-0.34529998898506165,9.662099838256836
1683006641705482500,12.029482421875,1.6067999601364136,-0.40860000252723694,9.665399551391602
1683006641725482500,12.049482421875,1.570099949836731,-0.4375999867916107,9.670199394226074
1683006641745482500,12.069482421875,1.5827999114990234,-0.44929999113082886,9.66759967803955
1683006641765482500,12.089482421875,1.624899983406067,-0.4487999975681305,9.660599708557129
1683006641785484000,12.109484130859375,1.6399999856948853,-0.4465999901294708,9.658199310302734
1683006641805484000,12.129484130859375,1.616499900817871,-0.44669997692108154,9.662099838256836
1683006641825482500,12.149482421875,1.5907999277114868,-0.4578999876976013,9.665900230407715
1683006641845482500,12.169482421875,1.5778999328613281,-0.47839999198913574,9.666999816894531
1683006641865484000,12.189484130859375,1.5674999952316284,-0.49949997663497925,9.66759967803955
1683006641885482500,12.209482421875,1.551800012588501,-0.5080000162124634,9.669699668884277
1683006641905484000,12.229484130859374,1.5389000177383423,-0.513700008392334,9.671500205993652
1683006641925484000,12.249484130859376,1.5259000062942505,-0.5267999768257141,9.672800064086914
1683006641945484000,12.269484130859375,1.5085999965667725,-0.5428999662399292,9.674599647521973
1683006641965482500,12.289482421875,1.4858999252319336,-0.5568000078201294,9.677399635314941
1683006641985482500,12.309482421875,1.4591000080108643,-0.5735999941825867,9.680500030517578
1683006642005482500,12.329482421875,1.4323999881744385,-0.5949999690055847,9.683099746704102
1683006642025482500,12.349482421875,1.3985999822616577,-0.6255999803543091,9.686200141906738
1683006642045482500,12.369482421875,1.353600025177002,-0.6653000116348267,9.689899444580078
1683006642065482500,12.389482421875,1.305799961090088,-0.7037999629974365,9.693699836730957
1683006642085485600,12.409485595703124,1.2733999490737915,-0.7317999601364136,9.696000099182129
1683006642105482500,12.429482421875,1.263800024986267,-0.7592999935150146,9.695099830627441
1683006642125482500,12.449482421875,1.2263000011444092,-0.8149999976158142,9.695399284362793
1683006642145482500,12.469482421875,1.1715999841690063,-0.887499988079071,9.695799827575684
1683006642165482500,12.489482421875,1.1231999397277832,-0.9350999593734741,9.697099685668945
1683006642185482500,12.509482421875,1.1180000305175781,-0.935699999332428,9.697599411010742
1683006642205482500,12.529482421875,1.1480000019073486,-0.9180999994277954,9.695799827575684
1683006642225484000,12.549484130859375,1.1668999195098877,-0.9059000015258789,9.69469928741455
1683006642245482500,12.569482421875,1.1538000106811523,-0.8862999677658081,9.698100090026855
1683006642265482500,12.589482421875,1.1342999935150146,-0.8351999521255493,9.704899787902832
1683006642285482500,12.609482421875,1.1452000141143799,-0.7662999629974365,9.70930004119873
1683006642305482500,12.629482421875,1.1805999279022217,-0.6988999843597412,9.710100173950195
1683006642325482500,12.649482421875,1.2156999111175537,-0.6395999789237976,9.70989990234375
1683006642345484000,12.669484130859376,1.2335000038146973,-0.5964999794960022,9.710399627685547
1683006642365485600,12.689485595703125,1.2440999746322632,-0.5717999935150146,9.71049976348877
1683006642385485600,12.709485595703125,1.258099913597107,-0.5598999857902527,9.709400177001953
1683006642405484000,12.729484130859374,1.261099934577942,-0.5611000061035156,9.708999633789062
1683006642425482500,12.749482421875,1.2527999877929688,-0.5648999810218811,9.709799766540527
1683006642445482500,12.769482421875,1.2422999143600464,-0.5827000141143799,9.710100173950195
1683006642465482500,12.789482421875,1.2275999784469604,-0.6089999675750732,9.710399627685547
1683006642485482500,12.809482421875,1.212999939918518,-0.6389999985694885,9.710299491882324
1683006642505482500,12.829482421875,1.201799988746643,-0.6681999564170837,9.709699630737305
1683006642525482500,12.849482421875,1.2000999450683594,-0.6902999877929688,9.708399772644043
1683006642545482500,12.869482421875,1.2094999551773071,-0.701200008392334,9.706399917602539
1683006642565482500,12.889482421875,1.2177000045776367,-0.7116999626159668,9.704599380493164
1683006642585482500,12.909482421875,1.2245999574661255,-0.732699990272522,9.702199935913086
1683006642605484000,12.929484130859375,1.2294999361038208,-0.7630999684333801,9.699199676513672
1683006642625482500,12.949482421875,1.2279999256134033,-0.7971000075340271,9.696700096130371
1683006642645484000,12.969484130859374,1.2324999570846558,-0.8223999738693237,9.693999290466309
1683006642665482500,12.989482421875,1.2723000049591064,-0.8105999827384949,9.689899444580078
1683006642685482500,13.009482421875,1.341599941253662,-0.7856000065803528,9.682600021362305
1683006642705482500,13.029482421875,1.4227999448776245,-0.7906000018119812,9.670599937438965
1683006642725482500,13.049482421875,1.493299961090088,-0.7851999998092651,9.660399436950684
1683006642745482500,13.069482421875,1.5548999309539795,-0.7479999661445618,9.653599739074707
1683006642765482500,13.089482421875,1.594599962234497,-0.6940999627113342,9.651100158691406
1683006642785482500,13.109482421875,1.6049998998641968,-0.6748999953269958,9.650799751281738
1683006642805482500,13.129482421875,1.5799999237060547,-0.6949999928474426,9.653499603271484
1683006642825482500,13.149482421875,1.56059992313385,-0.7078999876976013,9.655699729919434
1683006642845490400,13.169490478515625,1.5733999013900757,-0.7075999975204468,9.653599739074707
1683006642865484000,13.189484130859375,1.6094999313354492,-0.7045999765396118,9.647899627685547
1683006642885482500,13.209482421875,1.6281999349594116,-0.7031999826431274,9.644899368286133
1683006642905484000,13.229484130859374,1.6222999095916748,-0.7092999815940857,9.645400047302246
1683006642925482500,13.249482421875,1.6014999151229858,-0.7286999821662903,9.64739990234375
1683006642945482500,13.269482421875,1.5715999603271484,-0.762999951839447,9.649700164794922
1683006642965482500,13.289482421875,1.5368999242782593,-0.8021000027656555,9.652099609375
1683006642985482500,13.309482421875,1.4951000213623047,-0.8348000049591064,9.655900001525879
1683006643005482500,13.329482421875,1.4466999769210815,-0.8578000068664551,9.661299705505371
1683006643025482500,13.349482421875,1.404099941253662,-0.8734999895095825,9.666199684143066
1683006643045482500,13.369482421875,1.3619999885559082,-0.885699987411499,9.671099662780762
1683006643065482500,13.389482421875,1.3215999603271484,-0.9038999676704407,9.675000190734863
1683006643085482500,13.409482421875,1.2690999507904053,-0.9395999908447266,9.67859935760498
1683006643105482500,13.429482421875,1.2108999490737915,-0.982699990272522,9.68179988861084
1683006643125482500,13.449482421875,1.1553999185562134,-1.0239999294281006,9.68429946899414
1683006643145482500,13.469482421875,1.1057000160217285,-1.0620999336242676,9.685999870300293
1683006643165482500,13.489482421875,1.0542999505996704,-1.094499945640564,9.68809986114502
1683006643185482500,13.509482421875,1.0056999921798706,-1.1195999383926392,9.690400123596191
1683006643205482500,13.529482421875,0.9771999716758728,-1.1297999620437622,9.69219970703125
1683006643225482500,13.549482421875,0.9745999574661255,-1.1259000301361084,9.692899703979492
1683006643245482500,13.569482421875,0.9716999530792236,-1.1317999362945557,9.692500114440918
1683006643265482500,13.589482421875,0.930899977684021,-1.174399971961975,9.691399574279785
1683006643285482500,13.609482421875,0.88919997215271,-1.2024999856948853,9.691899299621582
1683006643305482500,13.629482421875,0.8754000067710876,-1.1883000135421753,9.694899559020996
1683006643325482500,13.649482421875,0.8833000063896179,-1.149999976158142,9.698800086975098
1683006643345482500,13.669482421875,0.8930999636650085,-1.1231999397277832,9.701000213623047
1683006643365482500,13.689482421875,0.8894999623298645,-1.0981999635696411,9.70419979095459
1683006643385482500,13.709482421875,0.8779000043869019,-1.0414999723434448,9.71150016784668
1683006643405482500,13.729482421875,0.8883999586105347,-0.9467999935150146,9.72029972076416
1683006643425482500,13.749482421875,0.9244999885559082,-0.8405999541282654,9.726699829101562
1683006643445482500,13.769482421875,0.9680999517440796,-0.7430999875068665,9.730400085449219
1683006643465482500,13.789482421875,0.9979999661445618,-0.6721000075340271,9.732500076293945
1683006643485482500,13.809482421875,1.0127999782562256,-0.6310999989509583,9.733699798583984
1683006643505484000,13.829484130859376,1.0197999477386475,-0.6136999726295471,9.734099388122559
1683006643525485600,13.849485595703126,1.0257999897003174,-0.5996999740600586,9.734299659729004
1683006643545481000,13.86948095703125,1.0269999504089355,-0.5916999578475952,9.734700202941895
1683006643565481000,13.88948095703125,1.0151000022888184,-0.6003000140190125,9.735400199890137
1683006643585481000,13.90948095703125,0.9876999855041504,-0.6274999976158142,9.736499786376953
1683006643605481000,13.92948095703125,0.9587000012397766,-0.6595999598503113,9.737299919128418
1683006643625481000,13.94948095703125,0.9340999722480774,-0.6890999674797058,9.737699508666992
1683006643645481000,13.96948095703125,0.9233999848365784,-0.7087000012397766,9.737299919128418
1683006643665482500,13.989482421875,0.9236999750137329,-0.7209999561309814,9.736299514770508
1683006643685481000,14.00948095703125,0.9253999590873718,-0.7232999801635742,9.736000061035156
1683006643705481000,14.02948095703125,0.9249999523162842,-0.7224999666213989,9.736100196838379
1683006643725481000,14.04948095703125,0.9174999594688416,-0.73089998960495,9.736199378967285
1683006643745482500,14.069482421875,0.9060999751091003,-0.7455999851226807,9.736100196838379
1683006643765482500,14.089482421875,0.9059000015258789,-0.7537999749183655,9.735499382019043
1683006643785482500,14.109482421875,0.9420999884605408,-0.7210999727249146,9.734600067138672
1683006643805482500,14.129482421875,1.0130000114440918,-0.6506999731063843,9.732399940490723
1683006643825482500,14.149482421875,1.0600999593734741,-0.5985999703407288,9.73069953918457
1683006643845482500,14.169482421875,1.0894999504089355,-0.5841999650001526,9.728400230407715
1683006643865482500,14.189482421875,1.1420999765396118,-0.5514000058174133,9.724199295043945
1683006643885482500,14.209482421875,1.2042999267578125,-0.4796999990940094,9.720499992370605
1683006643905482500,14.229482421875,1.2180999517440796,-0.41519999504089355,9.721799850463867
1683006643925482500,14.249482421875,1.1826999187469482,-0.3896999955177307,9.72719955444336
1683006643945482500,14.269482421875,1.1460999250411987,-0.3730999827384949,9.732199668884277
1683006643965484000,14.289484130859375,1.1629999876022339,-0.31779998540878296,9.732199668884277
1683006643985485600,14.309485595703125,1.229699969291687,-0.2556000053882599,9.725799560546875
1683006644005484000,14.329484130859376,1.3018999099731445,-0.21199999749660492,9.717499732971191
1683006644025482500,14.349482421875,1.3269000053405762,-0.20409999787807465,9.714300155639648
1683006644045482500,14.369482421875,1.2857999801635742,-0.23160000145435333,9.719200134277344
1683006644065482500,14.389482421875,1.2237999439239502,-0.28139999508857727,9.725899696350098
1683006644085482500,14.409482421875,1.2028999328613281,-0.3330000042915344,9.726799964904785
1683006644105482500,14.429482421875,1.2207000255584717,-0.3757999837398529,9.723099708557129
1683006644125482500,14.449482421875,1.2359999418258667,-0.40619999170303345,9.719900131225586
1683006644145482500,14.469482421875,1.2287999391555786,-0.4341999888420105,9.719599723815918
1683006644165482500,14.489482421875,1.204699993133545,-0.46859997510910034,9.720999717712402
1683006644185482500,14.509482421875,1.1775000095367432,-0.5081999897956848,9.722399711608887
1683006644205482500,14.529482421875,1.1590999364852905,-0.5408999919891357,9.722799301147461
1683006644225484000,14.549484130859375,1.1449999809265137,-0.5652999877929688,9.723099708557129
1683006644245484000,14.569484130859376,1.1298999786376953,-0.589199960231781,9.723400115966797
1683006644265482500,14.589482421875,1.0971999168395996,-0.6258000135421753,9.724899291992188
1683006644285482500,14.609482421875,1.0514999628067017,-0.6728999614715576,9.726799964904785
1683006644305482500,14.629482421875,0.9929999709129333,-0.7124999761581421,9.73009967803955
1683006644325482500,14.649482421875,0.9650999903678894,-0.7179999947547913,9.732500076293945
1683006644345482500,14.669482421875,0.9789999723434448,-0.6958000063896179,9.732799530029297
1683006644365482500,14.689482421875,0.9802999496459961,-0.6807000041007996,9.733699798583984
1683006644385482500,14.709482421875,0.9215999841690063,-0.6937999725341797,9.738499641418457
1683006644405482500,14.729482421875,0.8445999622344971,-0.689300000667572,9.745800018310547
1683006644425482500,14.749482421875,0.8141999840736389,-0.6283999681472778,9.7524995803833
1683006644445482500,14.769482421875,0.8705999851226807,-0.5259000062942505,9.75369930267334
1683006644465485600,14.789485595703125,0.9249999523162842,-0.42569997906684875,9.753600120544434
1683006644485482500,14.809482421875,0.9221999645233154,-0.3621000051498413,9.756400108337402
1683006644505482500,14.829482421875,0.8827999830245972,-0.3254999816417694,9.76140022277832
1683006644525482500,14.849482421875,0.8553999662399292,-0.27070000767707825,9.76550006866455
1683006644545482500,14.869482421875,0.8835999965667725,-0.19269999861717224,9.764800071716309
1683006644565482500,14.889482421875,0.9334999918937683,-0.12109999358654022,9.761300086975098
1683006644585482500,14.909482421875,0.9595999717712402,-0.07189999520778656,9.759299278259277
1683006644605482500,14.929482421875,0.9576999545097351,-0.05460000038146973,9.759599685668945
1683006644625482500,14.949482421875,0.9551999568939209,-0.06369999796152115,9.75979995727539
1683006644645482500,14.969482421875,0.9627999663352966,-0.08709999918937683,9.75879955291748
1683006644665482500,14.989482421875,0.9782999753952026,-0.11479999870061874,9.756999969482422
1683006644685482500,15.009482421875,0.988599956035614,-0.141199991106987,9.755599975585938
1683006644705482500,15.029482421875,0.9910999536514282,-0.1696999967098236,9.754899978637695
1683006644725482500,15.049482421875,0.9853999614715576,-0.20399999618530273,9.754799842834473
1683006644745482500,15.069482421875,0.9829999804496765,-0.24129998683929443,9.754199981689453
1683006644765482500,15.089482421875,0.9835000038146973,-0.27309998869895935,9.753299713134766
1683006644785482500,15.109482421875,0.9857999682426453,-0.2946999967098236,9.7524995803833
1683006644805482500,15.129482421875,0.9978999495506287,-0.3093000054359436,9.750800132751465
1683006644825482500,15.149482421875,1.0135999917984009,-0.31679999828338623,9.748899459838867
1683006644845482500,15.169482421875,1.0202000141143799,-0.3262999951839447,9.747900009155273
1683006644865482500,15.189482421875,1.0219999551773071,-0.3391999900341034,9.747300148010254
1683006644885482500,15.209482421875,1.0210999250411987,-0.34869998693466187,9.747099876403809
1683006644905482500,15.229482421875,1.0358999967575073,-0.3425999879837036,9.745699882507324
1683006644925482500,15.249482421875,1.076300024986267,-0.31349998712539673,9.742300033569336
1683006644945482500,15.269482421875,1.1309000253677368,-0.2669000029563904,9.737500190734863
1683006644965482500,15.289482421875,1.1740000247955322,-0.241799995303154,9.733099937438965
1683006644985485600,15.309485595703125,1.2207999229431152,-0.23019999265670776,9.72760009765625
1683006645005485600,15.329485595703124,1.2897999286651611,-0.1915999948978424,9.719499588012695
1683006645025482500,15.349482421875,1.392799973487854,-0.11909999698400497,9.706500053405762
1683006645045482500,15.369482421875,1.4699000120162964,-0.04699999839067459,9.695699691772461
1683006645065482500,15.389482421875,1.4606000185012817,-0.03439999744296074,9.697199821472168
1683006645085482500,15.409482421875,1.3947999477386475,-0.05829999968409538,9.70669937133789
1683006645105482500,15.429482421875,1.3514999151229858,-0.0486999973654747,9.712900161743164
1683006645125482500,15.449482421875,1.381600022315979,0.0005999999702908099,9.708799362182617
1683006645145482500,15.469482421875,1.4491000175476074,0.04259999841451645,9.698800086975098
1683006645165485600,15.489485595703124,1.4800999164581299,0.06159999966621399,9.694099426269531
1683006645185482500,15.509482421875,1.4536999464035034,0.05309999734163284,9.698100090026855
1683006645205482500,15.529482421875,1.4038000106811523,0.01939999870955944,9.705599784851074
1683006645225482500,15.549482421875,1.3700000047683716,-0.0340999998152256,9.710399627685547
1683006645245482500,15.569482421875,1.3499000072479248,-0.09380000084638596,9.712800025939941
1683006645265482500,15.589482421875,1.3238999843597412,-0.15079998970031738,9.71560001373291
1683006645285482500,15.609482421875,1.2864999771118164,-0.20520000159740448,9.71969985961914
1683006645305482500,15.629482421875,1.240299940109253,-0.25589999556541443,9.724499702453613
1683006645325482500,15.649482421875,1.194000005722046,-0.30079999566078186,9.729000091552734
1683006645345482500,15.669482421875,1.1553000211715698,-0.3398999869823456,9.732399940490723
1683006645365482500,15.689482421875,1.1159999370574951,-0.3852999806404114,9.735300064086914
1683006645385482500,15.709482421875,1.0755000114440918,-0.4357999861240387,9.737699508666992
1683006645405482500,15.729482421875,1.0310999155044556,-0.4827999770641327,9.740300178527832
1683006645425482500,15.749482421875,0.986299991607666,-0.5249999761581421,9.74269962310791
1683006645445482500,15.769482421875,0.9442999958992004,-0.5561000108718872,9.745200157165527
1683006645465482500,15.789482421875,0.9221999645233154,-0.5717999935150146,9.746399879455566
1683006645485482500,15.809482421875,0.9343999624252319,-0.5770999789237976,9.74489974975586
1683006645505482500,15.829482421875,0.914199948310852,-0.6038999557495117,9.745200157165527
1683006645525482500,15.849482421875,0.8586999773979187,-0.6651999950408936,9.746299743652344
1683006645545482500,15.869482421875,0.8011999726295471,-0.7037999629974365,9.74839973449707
1683006645565482500,15.889482421875,0.792199969291687,-0.696399986743927,9.749699592590332
1683006645585482500,15.909482421875,0.8339999914169312,-0.6473999619483948,9.74959945678711
1683006645605484000,15.929484130859375,0.8673999905586243,-0.599399983882904,9.749799728393555
1683006645625484000,15.949484130859375,0.8720999956130981,-0.5634999871253967,9.751500129699707
1683006645645482500,15.969482421875,0.8537999987602234,-0.5077999830245972,9.756099700927734
1683006645665482500,15.989482421875,0.8633999824523926,-0.4148999750614166,9.759699821472168
1683006645685482500,16.009482421875,0.9205999970436096,-0.3111000061035156,9.758299827575684
1683006645705482500,16.029482421875,0.9696999788284302,-0.23429998755455017,9.75570011138916
1683006645725482500,16.049482421875,0.975600004196167,-0.1899999976158142,9.756099700927734
1683006645745482500,16.069482421875,0.9542999863624573,-0.17309999465942383,9.758500099182129
1683006645765482500,16.089482421875,0.9396999478340149,-0.17219999432563782,9.759900093078613
1683006645785484000,16.109484130859375,0.934499979019165,-0.18079999089241028,9.760299682617188
1683006645805484000,16.129484130859375,0.9244999885559082,-0.1922999918460846,9.76099967956543
1683006645825482500,16.149482421875,0.9056999683380127,-0.20499999821186066,9.762499809265137
1683006645845482500,16.169482421875,0.8791999816894531,-0.22509999573230743,9.76449966430664
1683006645865482500,16.189482421875,0.8578999638557434,-0.25029999017715454,9.765799522399902
1683006645885482500,16.209482421875,0.8447999954223633,-0.2726999819278717,9.766300201416016
1683006645905482500,16.229482421875,0.8297999501228333,-0.29019999504089355,9.767099380493164
1683006645925482500,16.249482421875,0.8240000009536743,-0.30079999566078186,9.76729965209961
1683006645945482500,16.269482421875,0.8251000046730042,-0.30959999561309814,9.766900062561035
1683006645965482500,16.289482421875,0.8305999636650085,-0.31919997930526733,9.76609992980957
1683006645985482500,16.309482421875,0.8359000086784363,-0.33319997787475586,9.765199661254883
1683006646005482500,16.329482421875,0.8400999903678894,-0.352400004863739,9.764200210571289
1683006646025482500,16.349482421875,0.8485999703407288,-0.37709999084472656,9.762499809265137
1683006646045482500,16.369482421875,0.876800000667572,-0.38259997963905334,9.75979995727539
1683006646065482500,16.389482421875,0.9384999871253967,-0.3564999997615814,9.755099296569824
1683006646085482500,16.409482421875,1.0210999250411987,-0.3222000002861023,9.748000144958496
1683006646105482500,16.429482421875,1.0963000059127808,-0.3139999806880951,9.740099906921387
1683006646125482500,16.449482421875,1.163100004196167,-0.3157999813556671,9.7322998046875
1683006646145482500,16.469482421875,1.2187999486923218,-0.3105999827384949,9.72559928894043
1683006646165482500,16.489482421875,1.2501999139785767,-0.2911999821662903,9.722199440002441
1683006646185482500,16.509482421875,1.2458999156951904,-0.28299999237060547,9.722999572753906
1683006646205482500,16.529482421875,1.2207000255584717,-0.282399982213974,9.726200103759766
1683006646225482500,16.549482421875,1.2175999879837036,-0.2574000060558319,9.727299690246582
1683006646245482500,16.569482421875,1.2569999694824219,-0.20109999179840088,9.723599433898926
1683006646265482500,16.589482421875,1.3331999778747559,-0.14509999752044678,9.714499473571777
1683006646285482500,16.609482421875,1.404099941253662,-0.10619999468326569,9.704999923706055
1683006646305482500,16.629482421875,1.421299934387207,-0.11229999363422394,9.702400207519531
1683006646325482500,16.649482421875,1.386099934577942,-0.14959999918937683,9.706999778747559
1683006646345485600,16.669485595703126,1.3525999784469604,-0.20239999890327454,9.710700035095215
1683006646365484000,16.689484130859373,1.3385999202728271,-0.25450000166893005,9.71150016784668
1683006646385482500,16.709482421875,1.3299999237060547,-0.28689998388290405,9.711699485778809
1683006646405484000,16.729484130859376,1.3167999982833862,-0.3028999865055084,9.713099479675293
1683006646425482500,16.749482421875,1.3026000261306763,-0.31119999289512634,9.714699745178223
1683006646445482500,16.769482421875,1.2868000268936157,-0.3163999915122986,9.716699600219727
1683006646465482500,16.789482421875,1.2654999494552612,-0.32099997997283936,9.71929931640625
1683006646485482500,16.809482421875,1.2329999208450317,-0.33159998059272766,9.723099708557129
1683006646505482500,16.829482421875,1.1912000179290771,-0.3440999984741211,9.727899551391602
1683006646525482500,16.849482421875,1.139299988746643,-0.3544999957084656,9.733699798583984
1683006646545482500,16.869482421875,1.0786999464035034,-0.3630000054836273,9.740300178527832
1683006646565482500,16.889482421875,1.0211999416351318,-0.3644999861717224,9.746500015258789
1683006646585482500,16.909482421875,0.989799976348877,-0.3382999897003174,9.75059986114502
1683006646605482500,16.929482421875,1.0128999948501587,-0.2922999858856201,9.749799728393555
1683006646625482500,16.949482421875,1.0500999689102173,-0.2578999996185303,9.74679946899414
1683006646645482500,16.969482421875,1.028999924659729,-0.2621999979019165,9.748899459838867
1683006646665484000,16.989484130859374,0.9767999649047852,-0.29979997873306274,9.753199577331543
1683006646685482500,17.009482421875,0.9382999539375305,-0.3131999969482422,9.756599426269531
1683006646705482500,17.029482421875,0.9599999785423279,-0.2945999801158905,9.755000114440918
1683006646725484000,17.049484130859376,1.0056999921798706,-0.2671000063419342,9.751199722290039
1683006646745484000,17.069484130859376,1.0185999870300293,-0.2655999958515167,9.749899864196777
1683006646765482500,17.089482421875,0.9851999878883362,-0.27300000190734863,9.753199577331543
1683006646785482500,17.109482421875,0.9545999765396118,-0.25380000472068787,9.756699562072754
1683006646805482500,17.129482421875,0.972000002861023,-0.21679998934268951,9.755899429321289
1683006646825482500,17.149482421875,1.024399995803833,-0.18369999527931213,9.751199722290039
1683006646845482500,17.169482421875,1.067099928855896,-0.16339999437332153,9.746999740600586
1683006646865482500,17.189482421875,1.0841000080108643,-0.15789999067783356,9.745200157165527
1683006646885482500,17.209482421875,1.0906000137329102,-0.1664000004529953,9.74429988861084
1683006646905482500,17.229482421875,1.097599983215332,-0.18219999969005585,9.74329948425293
1683006646925482500,17.249482421875,1.098099946975708,-0.20260000228881836,9.742799758911133
1683006646945482500,17.269482421875,1.0921999216079712,-0.22929999232292175,9.742899894714355
1683006646965484000,17.289484130859375,1.0815999507904053,-0.262800008058548,9.743199348449707
1683006646985484000,17.309484130859374,1.0685999393463135,-0.3026999831199646,9.743499755859375
1683006647005482500,17.329482421875,1.0582000017166138,-0.3414999842643738,9.743399620056152
1683006647025484000,17.349484130859373,1.0534999370574951,-0.37709999084472656,9.742599487304688
1683006647045482500,17.369482421875,1.051200032234192,-0.4074999988079071,9.741600036621094
1683006647065482500,17.389482421875,1.0542999505996704,-0.4283999800682068,9.740300178527832
1683006647085482500,17.409482421875,1.07069993019104,-0.44259998202323914,9.737899780273438
1683006647105482500,17.429482421875,1.1058999300003052,-0.4527999758720398,9.733499526977539
1683006647125482500,17.449482421875,1.146399974822998,-0.46059998869895935,9.728499412536621
1683006647145482500,17.469482421875,1.1771999597549438,-0.4664999842643738,9.724499702453613
1683006647165482500,17.489482421875,1.1969000101089478,-0.45989999175071716,9.722399711608887
1683006647185485600,17.509485595703126,1.2279999256134033,-0.4339999854564667,9.71969985961914
1683006647205482500,17.529482421875,1.2869999408721924,-0.3926999866962433,9.713799476623535
1683006647225482500,17.549482421875,1.3607999086380005,-0.3685999810695648,9.704699516296387
1683006647245482500,17.569482421875,1.444000005722046,-0.35920000076293945,9.692999839782715
1683006647265484000,17.589484130859375,1.5206999778747559,-0.34139999747276306,9.682000160217285
1683006647285484000,17.609484130859375,1.6002999544143677,-0.29099997878074646,9.67080020904541
1683006647305482500,17.629482421875,1.6313999891281128,-0.23579999804496765,9.667099952697754
1683006647325482500,17.649482421875,1.6174999475479126,-0.21869999170303345,9.6697998046875
1683006647345482500,17.669482421875,1.5733000040054321,-0.22190000116825104,9.677000045776367
1683006647365482500,17.689482421875,1.5436999797821045,-0.20019999146461487,9.682299613952637
1683006647385482500,17.709482421875,1.5633999109268188,-0.16659998893737793,9.679699897766113
1683006647405482500,17.729482421875,1.6180999279022217,-0.14819999039173126,9.670999526977539
1683006647425482500,17.749482421875,1.646399974822998,-0.15269999206066132,9.666199684143066
1683006647445482500,17.769482421875,1.6277999877929688,-0.17880000174045563,9.668899536132812
1683006647465482500,17.789482421875,1.573099970817566,-0.2264999896287918,9.676899909973145
1683006647485482500,17.809482421875,1.5128999948501587,-0.29589998722076416,9.684700012207031
1683006647505482500,17.829482421875,1.4726999998092651,-0.36730000376701355,9.688399314880371
1683006647525482500,17.849482421875,1.4452999830245972,-0.42489999532699585,9.690199851989746
1683006647545482500,17.869482421875,1.413599967956543,-0.4684999883174896,9.692899703979492
1683006647565482500,17.889482421875,1.3696999549865723,-0.5024999976158142,9.697500228881836
1683006647585482500,17.909482421875,1.3282999992370605,-0.5281999707221985,9.701899528503418
1683006647605484000,17.929484130859375,1.2939999103546143,-0.5444999933242798,9.705599784851074
1683006647625482500,17.949482421875,1.2705999612808228,-0.5503000020980835,9.70829963684082
1683006647645482500,17.969482421875,1.250499963760376,-0.5507000088691711,9.710899353027344
1683006647665482500,17.989482421875,1.222999930381775,-0.5525000095367432,9.714300155639648
1683006647685482500,18.009482421875,1.1800999641418457,-0.5637999773025513,9.718999862670898
1683006647705485600,18.029485595703125,1.1277999877929688,-0.583299994468689,9.723999977111816
1683006647725484000,18.049484130859376,1.0943999290466309,-0.5990999937057495,9.726900100708008
1683006647745482500,18.069482421875,1.0953999757766724,-0.5963000059127808,9.726999282836914
1683006647765482500,18.089482421875,1.1025999784469604,-0.5954999923706055,9.726200103759766
1683006647785482500,18.109482421875,1.0753999948501587,-0.6258999705314636,9.727299690246582
1683006647805482500,18.129482421875,1.0328999757766724,-0.6523999571800232,9.730199813842773
1683006647825482500,18.149482421875,1.0108000040054321,-0.6502000093460083,9.732699394226074
1683006647845482500,18.169482421875,1.0544999837875366,-0.6136999726295471,9.730400085449219
1683006647865482500,18.189482421875,1.1137999296188354,-0.580299973487854,9.725799560546875
1683006647885482500,18.209482421875,1.1395999193191528,-0.5676000118255615,9.723599433898926
1683006647905482500,18.229482421875,1.1068999767303467,-0.5382999777793884,9.729000091552734
1683006647925485600,18.249485595703124,1.063499927520752,-0.4567999839782715,9.738100051879883
1683006647945482500,18.269482421875,1.0921000242233276,-0.34369999170303345,9.739500045776367
1683006647965482500,18.289482421875,1.1855000257492065,-0.23240000009536743,9.731900215148926
1683006647985482500,18.309482421875,1.2796000242233276,-0.13609999418258667,9.721799850463867
1683006648005482500,18.329482421875,1.312399983406067,-0.06969999521970749,9.718099594116211
1683006648025484000,18.349484130859373,1.2967000007629395,-0.03350000083446503,9.720399856567383
1683006648045482500,18.369482421875,1.2818999290466309,-0.02290000021457672,9.722399711608887
1683006648065482500,18.389482421875,1.2810999155044556,-0.023499999195337296,9.72249984741211
1683006648085484000,18.409484130859376,1.2766000032424927,-0.025699999183416367,9.723099708557129
1683006648105482500,18.429482421875,1.261299967765808,-0.027799999341368675,9.725099563598633
1683006648125482500,18.449482421875,1.240299940109253,-0.04039999842643738,9.727799415588379
1683006648145482500,18.469482421875,1.219099998474121,-0.0632999986410141,9.730299949645996
1683006648165482500,18.489482421875,1.202299952507019,-0.08949999511241913,9.732199668884277
1683006648185482500,18.509482421875,1.1926000118255615,-0.11050000041723251,9.733200073242188
1683006648205482500,18.529482421875,1.192099928855896,-0.12239999324083328,9.733099937438965
1683006648225482500,18.549482421875,1.2003999948501587,-0.13040000200271606,9.731999397277832
1683006648245482500,18.569482421875,1.215399980545044,-0.14489999413490295,9.729899406433105
1683006648265482500,18.589482421875,1.2279999256134033,-0.17219999432563782,9.727899551391602
1683006648285482500,18.609482421875,1.2250999212265015,-0.21359999477863312,9.727399826049805
1683006648305485600,18.629485595703127,1.2134000062942505,-0.2529999911785126,9.727999687194824
1683006648325482500,18.649482421875,1.2268999814987183,-0.27539998292922974,9.72559928894043
1683006648345482500,18.669482421875,1.2688000202178955,-0.273499995470047,9.72029972076416
1683006648365482500,18.689482421875,1.3223999738693237,-0.27539998292922974,9.713099479675293
1683006648385482500,18.709482421875,1.3745999336242676,-0.29109999537467957,9.705399513244629
1683006648405482500,18.729482421875,1.4053999185562134,-0.3005000054836273,9.700699806213379
1683006648425482500,18.749482421875,1.4263999462127686,-0.28939998149871826,9.697999954223633
1683006648445482500,18.769482421875,1.424899935722351,-0.2680000066757202,9.698800086975098
1683006648465482500,18.789482421875,1.4084999561309814,-0.26109999418258667,9.701399803161621
1683006648485482500,18.809482421875,1.3919999599456787,-0.249099999666214,9.704099655151367
1683006648505482500,18.829482421875,1.406499981880188,-0.19919998943805695,9.70319938659668
1683006648525482500,18.849482421875,1.4634000062942505,-0.1453000009059906,9.695699691772461
1683006648545482500,18.869482421875,1.545199990272522,-0.10689999908208847,9.683499336242676
1683006648565482500,18.889482421875,1.5953999757766724,-0.0982000008225441,9.675399780273438
1683006648585482500,18.909482421875,1.5721999406814575,-0.1306999921798706,9.678899765014648
1683006648605482500,18.929482421875,1.5120999813079834,-0.18879999220371246,9.6875
1683006648625482500,18.949482421875,1.46999990940094,-0.2549000084400177,9.692399978637695
1683006648645485600,18.969485595703127,1.4471999406814575,-0.3148999810218811,9.694099426269531
1683006648665482500,18.989482421875,1.4345999956130981,-0.3619000017642975,9.694299697875977
1683006648685482500,19.009482421875,1.414199948310852,-0.39569997787475586,9.696000099182129
1683006648705482500,19.029482421875,1.3792999982833862,-0.4278999865055084,9.699699401855469
1683006648725482500,19.049482421875,1.3385999202728271,-0.4611999988555908,9.703800201416016
1683006648745482500,19.069482421875,1.2936999797821045,-0.4869999885559082,9.708700180053711
1683006648765482500,19.089482421875,1.2497999668121338,-0.5005999803543091,9.713699340820312
1683006648785482500,19.109482421875,1.215399980545044,-0.5051000118255615,9.717899322509766
1683006648805482500,19.129482421875,1.1887999773025513,-0.5049999952316284,9.721199989318848
1683006648825482500,19.149482421875,1.1581000089645386,-0.5077999830245972,9.724699974060059
1683006648845482500,19.169482421875,1.107800006866455,-0.5184999704360962,9.729999542236328
1683006648865482500,19.189482421875,1.0436999797821045,-0.5327000021934509,9.736299514770508
1683006648885482500,19.209482421875,1.0058000087738037,-0.5331999659538269,9.740300178527832
1683006648905482500,19.229482421875,1.0157999992370605,-0.5177000164985657,9.740099906921387
1683006648925482500,19.249482421875,1.0367000102996826,-0.51419997215271,9.738100051879883
1683006648945482500,19.269482421875,1.0020999908447266,-0.5530999898910522,9.73960018157959
1683006648965482500,19.289482421875,0.9407999515533447,-0.6118999719619751,9.742199897766113
1683006648985482500,19.309482421875,0.8798999786376953,-0.6535999774932861,9.745200157165527
1683006649005485600,19.329485595703126,0.8639000058174133,-0.6604999899864197,9.746099472045898
1683006649025484000,19.349484130859373,0.8834999799728394,-0.6279999613761902,9.746500015258789
1683006649045482500,19.369482421875,0.9144999980926514,-0.586899995803833,9.746199607849121
1683006649065482500,19.389482421875,0.9177999496459961,-0.5482999682426453,9.748099327087402
1683006649085482500,19.409482421875,0.9088999629020691,-0.487199991941452,9.75220012664795
1683006649105482500,19.429482421875,0.9228999614715576,-0.4009999930858612,9.754799842834473
1683006649125482500,19.449482421875,0.9782999753952026,-0.30390000343322754,9.752900123596191
1683006649145482500,19.469482421875,1.0480999946594238,-0.21629999577999115,9.748000144958496
1683006649165485600,19.489485595703126,1.0882999897003174,-0.16569998860359192,9.744599342346191
1683006649185485600,19.509485595703126,1.0793999433517456,-0.15929999947547913,9.745699882507324
1683006649205482500,19.529482421875,1.04830002784729,-0.17520000040531158,9.748799324035645
1683006649225482500,19.549482421875,1.024999976158142,-0.19859999418258667,9.750899314880371
1683006649245482500,19.569482421875,1.0162999629974365,-0.2190999984741211,9.751299858093262
1683006649265482500,19.589482421875,1.0095999240875244,-0.23589999973773956,9.751599311828613
1683006649285482500,19.609482421875,0.9941999912261963,-0.25699999928474426,9.752699851989746
1683006649305482500,19.629482421875,0.9771999716758728,-0.28439998626708984,9.753600120544434
1683006649325482500,19.649482421875,0.9639999866485596,-0.3148999810218811,9.753999710083008
1683006649345482500,19.669482421875,0.9624999761581421,-0.34849998354911804,9.752999305725098
1683006649365484000,19.689484130859373,0.974399983882904,-0.37939998507499695,9.750699996948242
1683006649385482500,19.709482421875,0.9922999739646912,-0.405599981546402,9.74779987335205
1683006649405482500,19.729482421875,1.0119999647140503,-0.43039998412132263,9.744699478149414
1683006649425482500,19.749482421875,1.0312999486923218,-0.4596000015735626,9.741399765014648
1683006649445482500,19.769482421875,1.0511000156402588,-0.5027999877929688,9.737099647521973
1683006649465482500,19.789482421875,1.062600016593933,-0.560699999332428,9.732699394226074
1683006649485482500,19.809482421875,1.072700023651123,-0.621399998664856,9.727899551391602
1683006649505482500,19.829482421875,1.087899923324585,-0.6602999567985535,9.723699569702148
1683006649525482500,19.849482421875,1.108299970626831,-0.6937999725341797,9.718999862670898
1683006649545482500,19.869482421875,1.1454999446868896,-0.7343999743461609,9.711699485778809
1683006649565482500,19.889482421875,1.1998000144958496,-0.7519999742507935,9.703800201416016
1683006649585482500,19.909482421875,1.2821999788284302,-0.7213000059127808,9.695599555969238
1683006649605482500,19.929482421875,1.3389999866485596,-0.6601999998092651,9.692299842834473
1683006649625482500,19.949482421875,1.3496999740600586,-0.6240000128746033,9.69320011138916
1683006649645482500,19.969482421875,1.3244999647140503,-0.6054999828338623,9.697799682617188
1683006649665482500,19.989482421875,1.2939999103546143,-0.5694999694824219,9.704099655151367
1683006649685482500,20.009482421875,1.3048999309539795,-0.5115000009536743,9.705900192260742
1683006649705482500,20.029482421875,1.3650999069213867,-0.4514999985694885,9.700599670410156
1683006649725482500,20.049482421875,1.4261000156402588,-0.4023999869823456,9.693999290466309
1683006649745482500,20.069482421875,1.4391999244689941,-0.37700000405311584,9.693099975585938
1683006649765482500,20.089482421875,1.399999976158142,-0.375,9.69890022277832
1683006649785484000,20.109484130859375,1.3482999801635742,-0.39259999990463257,9.705499649047852
1683006649805485600,20.129485595703127,1.3144999742507935,-0.4105999767780304,9.709400177001953
1683006649825482500,20.149482421875,1.3015999794006348,-0.41990000009536743,9.710800170898438
1683006649845482500,20.169482421875,1.286199927330017,-0.41929998993873596,9.712800025939941
1683006649865482500,20.189482421875,1.2591999769210815,-0.4138000011444092,9.716599464416504
1683006649885482500,20.209482421875,1.229599952697754,-0.40959998965263367,9.720600128173828
1683006649905482500,20.229482421875,1.2039999961853027,-0.40389999747276306,9.723999977111816
1683006649925482500,20.249482421875,1.1858999729156494,-0.3983999788761139,9.726499557495117
1683006649945482500,20.269482421875,1.1628999710083008,-0.3991999924182892,9.729199409484863
1683006649965485600,20.289485595703123,1.1304999589920044,-0.40939998626708984,9.732600212097168
1683006649985485600,20.309485595703126,1.0870000123977661,-0.43849998712539673,9.736299514770508
1683006650005482500,20.329482421875,1.0329999923706055,-0.4764999747276306,9.740399360656738
1683006650025484000,20.349484130859373,0.9741999506950378,-0.5238000154495239,9.743999481201172
1683006650045482500,20.369482421875,0.9333999752998352,-0.5716999769210815,9.745299339294434
1683006650065482500,20.389482421875,0.923799991607666,-0.6071999669075012,9.744099617004395
1683006650085482500,20.409482421875,0.9321999549865723,-0.6381999850273132,9.741299629211426
1683006650105484000,20.429484130859375,0.9134999513626099,-0.6886000037193298,9.73960018157959
1683006650125482500,20.449482421875,0.8795999884605408,-0.7623999714851379,9.737299919128418
1683006650145482500,20.469482421875,0.8380999565124512,-0.8197999596595764,9.736299514770508
1683006650165482500,20.489482421875,0.8174999952316284,-0.8470999598503113,9.735699653625488
1683006650185482500,20.509482421875,0.8438999652862549,-0.8333999514579773,9.734600067138672
1683006650205485600,20.529485595703125,0.8876999616622925,-0.8009999990463257,9.733399391174316
1683006650225485600,20.549485595703125,0.9178999662399292,-0.7799999713897705,9.7322998046875
1683006650245484000,20.569484130859376,0.913100004196167,-0.7608000040054321,9.734299659729004
1683006650265482500,20.589482421875,0.899399995803833,-0.715399980545044,9.738999366760254
1683006650285482500,20.609482421875,0.90829998254776,-0.6477999687194824,9.742899894714355
1683006650305482500,20.629482421875,0.9526999592781067,-0.5669999718666077,9.74370002746582
1683006650325482500,20.649482421875,0.9961999654769897,-0.49399998784065247,9.74329948425293
1683006650345482500,20.669482421875,1.0184999704360962,-0.4514999985694885,9.7431001663208
1683006650365482500,20.689482421875,1.0135999917984009,-0.4324999749660492,9.744500160217285
1683006650385482500,20.709482421875,0.9996999502182007,-0.43289998173713684,9.74590015411377
1683006650405485600,20.729485595703125,0.9949999451637268,-0.4494999945163727,9.745599746704102
1683006650425484000,20.749484130859376,0.9908999800682068,-0.47360000014305115,9.74489974975586
1683006650445482500,20.769482421875,0.9784999489784241,-0.4943999946117401,9.745100021362305
1683006650465496600,20.78949658203125,0.9603999853134155,-0.503600001335144,9.746500015258789
1683006650485482500,20.809482421875,0.943399965763092,-0.5099999904632568,9.74779987335205
1683006650505482500,20.829482421875,0.9310999512672424,-0.5184999704360962,9.748499870300293
1683006650525482500,20.849482421875,0.923799991607666,-0.5249999761581421,9.748899459838867
1683006650545482500,20.869482421875,0.9251999855041504,-0.5246999859809875,9.748700141906738
1683006650565482500,20.889482421875,0.9368999600410461,-0.5227000117301941,9.747699737548828
1683006650585482500,20.909482421875,0.9575999975204468,-0.5295000076293945,9.745299339294434
1683006650605484000,20.929484130859375,0.9794999957084656,-0.5432000160217285,9.742400169372559
1683006650625485600,20.949485595703123,0.9996999502182007,-0.5683000087738037,9.738900184631348
1683006650645482500,20.969482421875,1.0108000040054321,-0.6037999987602234,9.735699653625488
1683006650665482500,20.989482421875,1.0228999853134155,-0.6358999609947205,9.7322998046875
1683006650685482500,21.009482421875,1.051800012588501,-0.6506999731063843,9.728300094604492
1683006650705482500,21.029482421875,1.091599941253662,-0.6442999839782715,9.724299430847168
1683006650725482500,21.049482421875,1.1461999416351318,-0.6502999663352966,9.717599868774414
1683006650745482500,21.069482421875,1.2028999328613281,-0.6603999733924866,9.710100173950195
1683006650765482500,21.089482421875,1.2604999542236328,-0.6531999707221985,9.703299522399902
1683006650785482500,21.109482421875,1.3249999284744263,-0.6175999641418457,9.696999549865723
1683006650805482500,21.129482421875,1.3594999313354492,-0.5831999778747559,9.6943998336792
1683006650825482500,21.149482421875,1.3701999187469482,-0.5956000089645386,9.692099571228027
1683006650845485600,21.169485595703126,1.3413000106811523,-0.6236000061035156,9.6943998336792
1683006650865482500,21.189482421875,1.2967000007629395,-0.6234999895095825,9.700499534606934
1683006650885482500,21.209482421875,1.2872999906539917,-0.5999999642372131,9.70319938659668
1683006650905482500,21.229482421875,1.33079993724823,-0.5716999769210815,9.698999404907227
1683006650925482500,21.249482421875,1.379699945449829,-0.5514000058174133,9.693399429321289
1683006650945482500,21.269482421875,1.393399953842163,-0.5439000129699707,9.691800117492676
1683006650965482500,21.289482421875,1.3632999658584595,-0.5507999658584595,9.695699691772461
1683006650985482500,21.309482421875,1.3192999362945557,-0.5737000107765198,9.700499534606934
1683006651005482500,21.329482421875,1.2870999574661255,-0.6067999601364136,9.702799797058105
1683006651025482500,21.349482421875,1.267899990081787,-0.6376999616622925,9.703399658203125
1683006651045482500,21.369482421875,1.2486000061035156,-0.6608999967575073,9.704299926757812
1683006651065482500,21.389482421875,1.222000002861023,-0.6821999549865723,9.706199645996094
1683006651085482500,21.409482421875,1.2008999586105347,-0.7089999914169312,9.706899642944336
1683006651105484000,21.429484130859375,1.1858999729156494,-0.7339000105857849,9.706899642944336
1683006651125482500,21.449482421875,1.1699999570846558,-0.7526999711990356,9.707399368286133
1683006651145482500,21.469482421875,1.143899917602539,-0.7578999996185303,9.710100173950195
1683006651165482500,21.489482421875,1.1104999780654907,-0.7542999982833862,9.714300155639648
1683006651185482500,21.509482421875,1.069100022315979,-0.7516999840736389,9.719099998474121
1683006651205482500,21.529482421875,1.0271999835968018,-0.7540000081062317,9.723499298095703
1683006651225482500,21.549482421875,0.9947999715805054,-0.7542999982833862,9.726799964904785
1683006651245482500,21.569482421875,0.984499990940094,-0.7436000108718872,9.728699684143066
1683006651265482500,21.589482421875,1.0062999725341797,-0.7365999817848206,9.726999282836914
1683006651285482500,21.609482421875,1.0085999965667725,-0.7603999972343445,9.724899291992188
1683006651305485600,21.629485595703127,0.9803999662399292,-0.8328999876976013,9.721799850463867
1683006651325485600,21.649485595703126,0.937999963760376,-0.9027999639511108,9.719799995422363
1683006651345482500,21.669482421875,0.9182999730110168,-0.9451999664306641,9.717599868774414
1683006651365482500,21.689482421875,0.9628999829292297,-0.939799964427948,9.713899612426758
1683006651385482500,21.709482421875,1.0263999700546265,-0.8964999914169312,9.711400032043457
1683006651405482500,21.729482421875,1.0722999572753906,-0.8531999588012695,9.710399627685547
1683006651425482500,21.749482421875,1.0880999565124512,-0.7983999848365784,9.713299751281738
1683006651445482500,21.769482421875,1.080199956893921,-0.7137999534606934,9.720799446105957
1683006651465482500,21.789482421875,1.095099925994873,-0.5988999605178833,9.726799964904785
1683006651485482500,21.809482421875,1.152400016784668,-0.4786999821662903,9.726900100708008
1683006651505482500,21.829482421875,1.2204999923706055,-0.373199999332428,9.723199844360352
1683006651525482500,21.849482421875,1.2717000246047974,-0.29809999465942383,9.719200134277344
1683006651545485600,21.869485595703125,1.2838000059127808,-0.25540000200271606,9.718799591064453
1683006651565485600,21.889485595703125,1.265299916267395,-0.23589999973773956,9.721799850463867
1683006651585482500,21.909482421875,1.2477999925613403,-0.2328999936580658,9.724100112915039
1683006651605482500,21.929482421875,1.2467999458312988,-0.23469999432563782,9.724199295043945
1683006651625482500,21.949482421875,1.2415000200271606,-0.24609999358654022,9.724599838256836
1683006651645482500,21.969482421875,1.2258999347686768,-0.2653000056743622,9.72599983215332
1683006651665482500,21.989482421875,1.2145999670028687,-0.2906999886035919,9.726699829101562
1683006651685482500,22.009482421875,1.2077999114990234,-0.3287000060081482,9.726399421691895
1683006651705482500,22.029482421875,1.2019000053405762,-0.37379997968673706,9.725500106811523
1683006651725482500,22.049482421875,1.1990000009536743,-0.4154999852180481,9.724100112915039
1683006651745482500,22.069482421875,1.1973999738693237,-0.448199987411499,9.722899436950684
1683006651765482500,22.089482421875,1.201300024986267,-0.4754999876022339,9.721099853515625
1683006651785482500,22.109482421875,1.2130999565124512,-0.5045999884605408,9.718199729919434
1683006651805482500,22.129482421875,1.225000023841858,-0.5412999987602234,9.714699745178223
1683006651825482500,22.149482421875,1.232200026512146,-0.5819000005722046,9.71150016784668
1683006651845482500,22.169482421875,1.2336000204086304,-0.6150000095367432,9.709199905395508
1683006651865482500,22.189482421875,1.2359999418258667,-0.6232999563217163,9.708399772644043
1683006651885482500,22.209482421875,1.2714999914169312,-0.6032999753952026,9.705100059509277
1683006651905482500,22.229482421875,1.326200008392334,-0.5843999981880188,9.69890022277832
1683006651925482500,22.249482421875,1.375100016593933,-0.5813999772071838,9.692299842834473
1683006651945482500,22.269482421875,1.406499981880188,-0.5637999773025513,9.688799858093262
1683006651965482500,22.289482421875,1.4189999103546143,-0.5166999697685242,9.689599990844727
1683006651985482500,22.309482421875,1.4144999980926514,-0.4596000015735626,9.693099975585938
1683006652005482500,22.329482421875,1.4005999565124512,-0.42319998145103455,9.696799278259277
1683006652025484000,22.349484130859373,1.3681999444961548,-0.39969998598098755,9.702400207519531
1683006652045482500,22.369482421875,1.336899995803833,-0.3506999909877777,9.708700180053711
1683006652065482500,22.389482421875,1.3514999151229858,-0.28209999203681946,9.70889949798584
1683006652085482500,22.409482421875,1.4239000082015991,-0.20649999380111694,9.700499534606934
1683006652105484000,22.429484130859375,1.5162999629974365,-0.13849999010562897,9.687699317932129
1683006652125482500,22.449482421875,1.5685999393463135,-0.09569999575614929,9.679900169372559
1683006652145482500,22.469482421875,1.5477999448776245,-0.09079999476671219,9.683199882507324
1683006652165482500,22.489482421875,1.4943000078201294,-0.11979999393224716,9.691299438476562
1683006652185482500,22.509482421875,1.4550999402999878,-0.16759999096393585,9.696599960327148
1683006652205482500,22.529482421875,1.4271999597549438,-0.2264999896287918,9.69950008392334
1683006652225482500,22.549482421875,1.3942999839782715,-0.2827000021934509,9.702799797058105
1683006652245482500,22.569482421875,1.354099988937378,-0.32979997992515564,9.706999778747559
1683006652265482500,22.589482421875,1.319000005722046,-0.374099999666214,9.710299491882324
1683006652285482500,22.609482421875,1.2897999286651611,-0.41599997878074646,9.712499618530273
1683006652305482500,22.629482421875,1.2752000093460083,-0.4521999955177307,9.712800025939941
1683006652325485600,22.649485595703126,1.275399923324585,-0.47669997811317444,9.711599349975586
1683006652345482500,22.669482421875,1.275399923324585,-0.49859997630119324,9.71049976348877
1683006652365482500,22.689482421875,1.2623000144958496,-0.538100004196167,9.710100173950195
1683006652385482500,22.709482421875,1.233699917793274,-0.5935999751091003,9.710599899291992
1683006652405482500,22.729482421875,1.1912999153137207,-0.6608999967575073,9.71150016784668
1683006652425482500,22.749482421875,1.1524999141693115,-0.7330999970436096,9.710999488830566
1683006652445482500,22.769482421875,1.1452000141143799,-0.7926999926567078,9.707200050354004
1683006652465482500,22.789482421875,1.1668000221252441,-0.8344999551773071,9.701099395751953
1683006652485482500,22.809482421875,1.167799949645996,-0.8845999836921692,9.696499824523926
1683006652505482500,22.829482421875,1.1401000022888184,-0.955299973487854,9.693099975585938
1683006652525482500,22.849482421875,1.0929999351501465,-1.013700008392334,9.692599296569824
1683006652545482500,22.869482421875,1.0611000061035156,-1.045300006866455,9.69279956817627
1683006652565482500,22.889482421875,1.0656999349594116,-1.0383999347686768,9.693099975585938
1683006652585482500,22.909482421875,1.0753999948501587,-1.013700008392334,9.694600105285645
1683006652605482500,22.929482421875,1.0749999284744263,-0.9875999689102173,9.69729995727539
1683006652625482500,22.949482421875,1.0548999309539795,-0.9493999481201172,9.703399658203125
1683006652645482500,22.969482421875,1.0383999347686768,-0.8795999884605408,9.711699485778809
1683006652665482500,22.989482421875,1.0585999488830566,-0.785099983215332,9.717599868774414
1683006652685482500,23.009482421875,1.118499994277954,-0.6864999532699585,9.718400001525879
1683006652705482500,23.029482421875,1.1828999519348145,-0.6098999977111816,9.715899467468262
1683006652725482500,23.049482421875,1.2091000080108643,-0.5703999996185303,9.71500015258789
1683006652745482500,23.069482421875,1.1869999170303345,-0.5687999725341797,9.717899322509766
1683006652765482500,23.089482421875,1.1511999368667603,-0.5837000012397766,9.72130012512207
1683006652785482500,23.109482421875,1.1244999170303345,-0.599399983882904,9.723400115966797
1683006652805485600,23.129485595703127,1.1039999723434448,-0.6125999689102173,9.72499942779541
1683006652825482500,23.149482421875,1.0785999298095703,-0.6171999573707581,9.727499961853027
1683006652845482500,23.169482421875,1.045699954032898,-0.6182000041007996,9.731100082397461
1683006652865482500,23.189482421875,1.017199993133545,-0.6245999932289124,9.733699798583984
1683006652885482500,23.209482421875,0.9937999844551086,-0.6363999843597412,9.735300064086914
1683006652905482500,23.229482421875,0.9812999963760376,-0.6459000110626221,9.736000061035156
1683006652925482500,23.249482421875,0.9781000018119812,-0.6502999663352966,9.736000061035156
1683006652945482500,23.269482421875,0.9853000044822693,-0.6549999713897705,9.734999656677246
1683006652965482500,23.289482421875,0.9932999610900879,-0.6710999608039856,9.732999801635742
1683006652985482500,23.309482421875,1.0029000043869019,-0.6996999979019165,9.73009967803955
1683006653005482500,23.329482421875,1.0109999179840088,-0.7317999601364136,9.726799964904785
1683006653025482500,23.349482421875,1.0170999765396118,-0.7628999948501587,9.723799705505371
1683006653045482500,23.369482421875,1.0304999351501465,-0.7859999537467957,9.720600128173828
1683006653065485600,23.389485595703125,1.0620999336242676,-0.7892000079154968,9.716899871826172
1683006653085482500,23.409482421875,1.1100000143051147,-0.7842999696731567,9.711999893188477
1683006653105484000,23.429484130859375,1.1796000003814697,-0.7795999646186829,9.704099655151367
1683006653125482500,23.449482421875,1.2517999410629272,-0.7577999830245972,9.696799278259277
1683006653145482500,23.469482421875,1.33079993724823,-0.710599958896637,9.689899444580078
1683006653165482500,23.489482421875,1.389699935913086,-0.6399999856948853,9.68649959564209
1683006653185482500,23.509482421875,1.416599988937378,-0.5992000102996826,9.685199737548828
1683006653205482500,23.529482421875,1.417099952697754,-0.6011999845504761,9.684999465942383
1683006653225482500,23.549482421875,1.3917999267578125,-0.6101999878883362,9.68809986114502
1683006653245482500,23.569482421875,1.38319993019104,-0.5934999585151672,9.690400123596191
1683006653265482500,23.589482421875,1.4276999235153198,-0.5654999613761902,9.685599327087402
1683006653285485600,23.609485595703124,1.4851999282836914,-0.5410000085830688,9.678400039672852
1683006653305485600,23.629485595703127,1.5051000118255615,-0.5322999954223633,9.675799369812012
1683006653325482500,23.649482421875,1.4675999879837036,-0.5421000123023987,9.680999755859375
1683006653345482500,23.669482421875,1.3973000049591064,-0.5667999982833862,9.6899995803833
1683006653365482500,23.689482421875,1.3316999673843384,-0.6049000024795532,9.6968994140625
1683006653385482500,23.709482421875,1.2914999723434448,-0.6434000134468079,9.699899673461914
1683006653405482500,23.729482421875,1.2767999172210693,-0.683899998664856,9.698999404907227
1683006653425482500,23.749482421875,1.261799931526184,-0.7228999733924866,9.698200225830078
1683006653445482500,23.769482421875,1.2346999645233154,-0.762999951839447,9.698599815368652
1683006653465482500,23.789482421875,1.2009999752044678,-0.7954999804496765,9.700200080871582
1683006653485482500,23.809482421875,1.1758999824523926,-0.8163999915122986,9.701499938964844
1683006653505482500,23.829482421875,1.1655999422073364,-0.8237999677658081,9.702199935913086
1683006653525482500,23.849482421875,1.1661999225616455,-0.8246999979019165,9.70199966430664
1683006653545482500,23.869482421875,1.1626999378204346,-0.832099974155426,9.701799392700195
1683006653565482500,23.889482421875,1.1435999870300293,-0.8428999781608582,9.703100204467773
1683006653585482500,23.909482421875,1.118899941444397,-0.8463999629020691,9.705699920654297
1683006653605482500,23.929482421875,1.1226999759674072,-0.840499997138977,9.70580005645752
1683006653625482500,23.949482421875,1.1496000289916992,-0.8366999626159668,9.70300006866455
1683006653645482500,23.969482421875,1.1591999530792236,-0.8536999821662903,9.700300216674805
1683006653665482500,23.989482421875,1.11899995803833,-0.9163999557495117,9.699299812316895
1683006653685485600,24.009485595703126,1.059499979019165,-0.9936999678611755,9.698399543762207
1683006653705485600,24.029485595703125,1.0282999277114868,-1.0266000032424927,9.698299407958984
1683006653725482500,24.049482421875,1.073799967765808,-1.0082999467849731,9.695300102233887
1683006653745482500,24.069482421875,1.1723999977111816,-0.9641000032424927,9.688399314880371
1683006653765482500,24.089482421875,1.261099934577942,-0.9337999820709229,9.68019962310791
1683006653785482500,24.109482421875,1.2796000242233276,-0.9165999889373779,9.679499626159668
1683006653805482500,24.129482421875,1.2552999258041382,-0.8852999806404114,9.685500144958496
1683006653825482500,24.149482421875,1.2400000095367432,-0.8411999940872192,9.691399574279785
1683006653845482500,24.169482421875,1.2585999965667725,-0.7960999608039856,9.69279956817627
1683006653865482500,24.189482421875,1.2806999683380127,-0.7665999531745911,9.692299842834473
1683006653885482500,24.209482421875,1.2802000045776367,-0.7487999796867371,9.69379997253418
1683006653905482500,24.229482421875,1.2644000053405762,-0.7428999543190002,9.69629955291748
1683006653925485600,24.249485595703124,1.2491999864578247,-0.7488999962806702,9.697799682617188
1683006653945482500,24.269482421875,1.239799976348877,-0.7639999985694885,9.69789981842041
1683006653965482500,24.289482421875,1.2257000207901,-0.7821999788284302,9.698200225830078
1683006653985482500,24.309482421875,1.2059999704360962,-0.7964999675750732,9.69950008392334
1683006654005482500,24.329482421875,1.1806999444961548,-0.809499979019165,9.701499938964844
1683006654025482500,24.349482421875,1.1596999168395996,-0.8157999515533447,9.703499794006348
1683006654045482500,24.369482421875,1.146299958229065,-0.812999963760376,9.705399513244629
1683006654065482500,24.389482421875,1.1416000127792358,-0.8014999628067017,9.706899642944336
1683006654085482500,24.409482421875,1.14329993724823,-0.7818999886512756,9.70829963684082
1683006654105482500,24.429482421875,1.1624000072479248,-0.7585999965667725,9.707900047302246
1683006654125482500,24.449482421875,1.1923999786376953,-0.7364000082015991,9.705900192260742
1683006654145482500,24.469482421875,1.226199984550476,-0.7275999784469604,9.702400207519531
1683006654165482500,24.489482421875,1.2562999725341797,-0.7454999685287476,9.697199821472168
1683006654185482500,24.509482421875,1.2533999681472778,-0.7804999947547913,9.694799423217773
1683006654205482500,24.529482421875,1.244499921798706,-0.8175999522209167,9.692899703979492
1683006654225482500,24.549482421875,1.25,-0.8276999592781067,9.691299438476562
1683006654245482500,24.569482421875,1.2731000185012817,-0.8308999538421631,9.687999725341797
1683006654265482500,24.589482421875,1.3220999240875244,-0.8452999591827393,9.68019962310791
1683006654285482500,24.609482421875,1.37909996509552,-0.8537999987602234,9.671500205993652
1683006654305482500,24.629482421875,1.448099970817566,-0.8423999547958374,9.662399291992188
1683006654325482500,24.649482421875,1.5078999996185303,-0.8021999597549438,9.656700134277344
1683006654345482500,24.669482421875,1.5532000064849854,-0.7809000015258789,9.651299476623535
1683006654365482500,24.689482421875,1.5814999341964722,-0.7861999869346619,9.646200180053711
1683006654385482500,24.709482421875,1.5792999267578125,-0.7879999876022339,9.646499633789062
1683006654405482500,24.729482421875,1.57260000705719,-0.7705999612808228,9.64900016784668
1683006654425482500,24.749482421875,1.6007999181747437,-0.7537999749183655,9.645599365234375
1683006654445482500,24.769482421875,1.646299958229065,-0.7443999648094177,9.638699531555176
1683006654465482500,24.789482421875,1.6660999059677124,-0.7432999610900879,9.63539981842041
1683006654485482500,24.809482421875,1.6471999883651733,-0.7466999888420105,9.638400077819824
1683006654505482500,24.829482421875,1.6137999296188354,-0.7526999711990356,9.643599510192871
1683006654525482500,24.849482421875,1.5836999416351318,-0.7685999870300293,9.647299766540527
1683006654545482500,24.869482421875,1.5575000047683716,-0.7990999817848206,9.649099349975586
1683006654565482500,24.889482421875,1.5288000106811523,-0.8348999619483948,9.650599479675293
1683006654585482500,24.909482421875,1.4901999235153198,-0.8730999827384949,9.653299331665039
1683006654605482500,24.929482421875,1.444700002670288,-0.9164999723434448,9.65619945526123
1683006654625482500,24.949482421875,1.4057999849319458,-0.9529999494552612,9.65839958190918
1683006654645482500,24.969482421875,1.3762999773025513,-0.9803999662399292,9.659899711608887
1683006654665482500,24.989482421875,1.3504999876022339,-1.0058000087738037,9.660900115966797
1683006654685482500,25.009482421875,1.3198999166488647,-1.0306999683380127,9.66249942779541
1683006654705482500,25.029482421875,1.2761999368667603,-1.0543999671936035,9.665900230407715
1683006654725482500,25.049482421875,1.2279000282287598,-1.0719000101089478,9.670199394226074
1683006654745482500,25.069482421875,1.1835999488830566,-1.0815999507904053,9.674599647521973
1683006654765482500,25.089482421875,1.1568999290466309,-1.0820999145507812,9.677800178527832
1683006654785482500,25.109482421875,1.1585999727249146,-1.0763999223709106,9.678199768066406
1683006654805482500,25.129482421875,1.1651999950408936,-1.0738999843597412,9.67770004272461
1683006654825482500,25.149482421875,1.139299988746643,-1.1029000282287598,9.677499771118164
1683006654845482500,25.169482421875,1.0993000268936157,-1.1473000049591064,9.677000045776367
1683006654865482500,25.189482421875,1.0562000274658203,-1.1723999977111816,9.678799629211426
1683006654885482500,25.209482421875,1.0540000200271606,-1.1686999797821045,9.679499626159668
1683006654905482500,25.229482421875,1.077299952507019,-1.1301000118255615,9.681499481201172
1683006654925482500,25.249482421875,1.1017999649047852,-1.0859999656677246,9.683799743652344
1683006654945482500,25.269482421875,1.110700011253357,-1.034999966621399,9.688399314880371
1683006654965482500,25.289482421875,1.1245999336242676,-0.9519000053405762,9.695300102233887
1683006654985482500,25.309482421875,1.1617000102996826,-0.8364999890327454,9.701499938964844
1683006655005482500,25.329482421875,1.2181999683380127,-0.7170999646186829,9.70419979095459
1683006655025482500,25.349482421875,1.264299988746643,-0.613599956035614,9.705399513244629
1683006655045482500,25.369482421875,1.277899980545044,-0.5357999801635742,9.708199501037598
1683006655065485600,25.389485595703125,1.2694000005722046,-0.47439998388290405,9.712499618530273
1683006655085482500,25.409482421875,1.2588999271392822,-0.4275999963283539,9.715999603271484
1683006655105482500,25.429482421875,1.2582999467849731,-0.39629998803138733,9.717499732971191
1683006655125482500,25.449482421875,1.25819993019104,-0.3871999979019165,9.71780014038086
1683006655145482500,25.469482421875,1.237299919128418,-0.39649999141693115,9.720099449157715
1683006655165482500,25.489482421875,1.199199914932251,-0.4083999991416931,9.72439956665039
1683006655185482500,25.509482421875,1.1610000133514404,-0.4165000021457672,9.728699684143066
1683006655205482500,25.529482421875,1.143899917602539,-0.43059998750686646,9.73009967803955
1683006655225482500,25.549482421875,1.1520999670028687,-0.4488999843597412,9.728300094604492
1683006655245482500,25.569482421875,1.1739000082015991,-0.4714999794960022,9.724699974060059
1683006655265482500,25.589482421875,1.198799967765808,-0.4975999891757965,9.72029972076416
1683006655285482500,25.609482421875,1.2105000019073486,-0.5291000008583069,9.717199325561523
1683006655305482500,25.629482421875,1.208899974822998,-0.5681999921798706,9.71519947052002
1683006655325482500,25.649482421875,1.2073999643325806,-0.6121000051498413,9.712699890136719
1683006655345482500,25.669482421875,1.2171000242233276,-0.6560999751091003,9.708600044250488
1683006655365482500,25.689482421875,1.2490999698638916,-0.6827999949455261,9.702699661254883
1683006655385482500,25.709482421875,1.3097000122070312,-0.676099956035614,9.695199966430664
1683006655405482500,25.729482421875,1.378600001335144,-0.6617000102996826,9.686599731445312
1683006655425482500,25.749482421875,1.4311000108718872,-0.6780999898910522,9.677899360656738
1683006655445482500,25.769482421875,1.4742000102996826,-0.7006999850273132,9.6697998046875
