time,seconds_elapsed,z,y,x,,,z,y,x,,,t,z,y,x
1.68301E+18,0.049484131,0.638999999,0.070599996,0.0092,,,0.939699948,-0.256899983,9.758099556,,,1,1.578699946,-0.186299987,9.767299556
1.68301E+18,0.069485596,0.638999999,0.070599996,0.0092,,,0.939699948,-0.256899983,9.758099556,,,2,1.578699946,-0.186299987,9.767299556
1.68301E+18,0.089487061,0.638999999,0.070599996,0.0092,,,0.939699948,-0.256899983,9.758099556,,,3,1.578699946,-0.186299987,9.767299556
1.68301E+18,0.109482422,0.020499999,-0.0032,0.092399999,,,2.127099991,-0.339899987,9.567099571,,,4,2.14759999,-0.343099987,9.659499571
1.68301E+18,0.129484131,0.1373,-0.070999995,0.327999979,,,2.128000021,-0.340799987,9.5668993,,,5,2.265300021,-0.411799982,9.894899279
1.68301E+18,0.149482422,0.259000003,-0.173799992,0.280399978,,,2.133699894,-0.345799983,9.565400124,,,6,2.392699897,-0.519599974,9.845800102
1.68301E+18,0.169484131,0.377299994,-0.192399994,0.167400002,,,2.152699947,-0.356599987,9.560699463,,,7,2.529999942,-0.54899998,9.728099465
1.68301E+18,0.189484131,0.560899973,0.147699997,0.107799999,,,2.194599867,-0.343899995,9.551699638,,,8,2.75549984,-0.196199998,9.659499638
1.68301E+18,0.209482422,0.180099994,-0.0162,-0.057599999,,,2.438099861,-0.366099983,9.491600037,,,9,2.618199855,-0.382299984,9.434000038
1.68301E+18,0.229482422,-0.163900003,-0.126900002,0.100299999,,,2.399799824,-0.392699987,9.500299454,,,10,2.235899821,-0.519599989,9.600599453
1.68301E+18,0.249482422,-0.34009999,-0.0779,0.206100002,,,2.350499868,-0.402500004,9.512199402,,,11,2.010399878,-0.480400003,9.718299404
1.68301E+18,0.269482422,-0.333199978,0.195999995,0.073600002,,,2.461299896,-0.303900003,9.487799644,,,12,2.128099918,-0.107900009,9.561399646
1.68301E+18,0.289482422,-0.202299997,0.206599995,0.116099998,,,2.408799887,-0.196799994,9.504099846,,,13,2.206499889,0.009800002,9.620199844
1.68301E+18,0.309482422,-0.0359,0.430099994,0.183499992,,,2.409100056,-0.116299994,9.505399704,,,14,2.373200055,0.3138,9.688899696
1.68301E+18,0.329482422,0.177100003,0.163800001,-0.456099987,,,2.441099882,-0.0265,9.497900009,,,15,2.618199885,0.137300001,9.041800022
1.68301E+18,0.349484131,-0.0137,0.0275,-0.508700013,,,2.465399981,-0.0079,9.491600037,,,16,2.451699981,0.0196,8.982900023
1.68301E+18,0.369482422,0.111699998,0.067699999,-0.535099983,,,2.477200031,-0.0088,9.488599777,,,17,2.58890003,0.058899999,8.953499794
1.68301E+18,0.389482422,0.072499998,0.233499989,-0.667199969,,,2.496700048,-0.0178,9.483399391,,,18,2.569200046,0.215699989,8.816199422
1.68301E+18,0.409484131,-0.060699999,0.1329,-0.797699988,,,2.522199869,-0.0348,9.476599693,,,19,2.46149987,0.098099999,8.678899705
1.68301E+18,0.429484131,-0.109799996,0.39229998,-1.32919991,,,2.551699877,-0.0491,9.468699455,,,20,2.441899881,0.34319998,8.139499545
1.68301E+18,0.449484131,-0.233699992,0.238899991,-1.103799939,,,2.587299824,-0.042799998,9.458999634,,,21,2.353599831,0.196099993,8.355199695
1.68301E+18,0.469484131,-0.0241,0.019299999,-0.075099997,,,2.583600044,-0.019299999,9.460100174,,,22,2.559500044,0,9.385000177
1.68301E+18,0.489482422,0.795699954,-0.144500002,1.074999928,,,2.557999849,0.0072,9.467100143,,,23,3.353699803,-0.137300002,10.54210007
1.68301E+18,0.509485596,1.378899932,-0.106399998,1.833400011,,,2.533799887,0.018099999,9.473599434,,,24,3.912699819,-0.088299999,11.30699944
1.68301E+18,0.529482422,0.995499969,-0.433399975,1.459999919,,,2.603399992,0.0019,9.454699516,,,25,3.598899961,-0.431499975,10.91469944
1.68301E+18,0.549484131,0.702199996,-0.426999986,1.069499969,,,2.573099852,-0.063299999,9.462800026,,,26,3.275299847,-0.490299985,10.5323
1.68301E+18,0.569482422,0.328500003,0.019099999,0.667800009,,,2.53489995,-0.146499991,9.47219944,,,27,2.863399953,-0.127399992,10.13999945
1.68301E+18,0.589482422,-0.252299994,0.699199975,0.1787,,,2.458799839,-0.228499994,9.490599632,,,28,2.206499845,0.470699981,9.669299632
1.68301E+18,0.609482422,-0.355499983,1.001299977,-0.28669998,,,2.356099844,-0.29519999,9.514800072,,,29,2.000599861,0.706099987,9.228100091
1.68301E+18,0.629484131,-0.131799996,0.662199974,-0.21769999,,,2.269599915,-0.34829998,9.533999443,,,30,2.137799919,0.313899994,9.316299453
1.68301E+18,0.649485596,-0.194099993,0.64319998,-0.263500005,,,2.194700003,-0.378499985,9.55039978,,,31,2.00060001,0.264699996,9.286899775
1.68301E+18,0.669484131,0.182799995,0.760699987,-0.505899966,,,2.121700048,-0.368399978,9.567199707,,,32,2.304500043,0.39230001,9.061299741
1.68301E+18,0.689484131,0.799299955,0.510999978,-0.390499979,,,2.073899984,-0.324699998,9.579299927,,,33,2.87319994,0.18629998,9.188799948
1.68301E+18,0.709482422,0.75879997,0.495199978,-0.40109998,,,2.036000013,-0.240199998,9.589900017,,,34,2.794799984,0.25499998,9.188800037
1.68301E+18,0.729484131,0.819999993,0.717599988,-0.456599981,,,2.013999939,-0.148800001,9.596399307,,,35,2.833999932,0.568799987,9.139799327
1.68301E+18,0.749485596,1.022499919,0.483599991,-0.150700003,,,2.027199984,-0.071699999,9.594499588,,,36,3.049699903,0.411899991,9.443799585
1.68301E+18,0.769484131,0.649800003,0.316300005,-0.040999997,,,2.037099838,-0.0025,9.592700005,,,37,2.686899841,0.313800005,9.551700007
1.68301E+18,0.789482422,0.559899986,0.399399996,0.0184,,,2.038800001,0.071199998,9.592100143,,,38,2.598699987,0.470599994,9.610500144
1.68301E+18,0.809482422,0.404599994,0.45449999,0.0581,,,2.037099838,0.143600002,9.591599464,,,39,2.441699833,0.598099992,9.649699464
1.68301E+18,0.829484131,0.336299986,0.280900002,0.431599975,,,2.036799908,0.199499995,9.59070015,,,40,2.373099893,0.480399996,10.02230012
1.68301E+18,0.849482422,-0.142199993,0.579999983,0.451899976,,,2.03489995,0.243599996,9.590000153,,,41,1.892699957,0.823599979,10.04190013
1.68301E+18,0.869484131,0.219699994,0.373099983,0.974699974,,,2.04550004,0.273999989,9.586999893,,,42,2.265200034,0.647099972,10.56169987
1.68301E+18,0.889482422,0.201499999,0.0015,1.476899981,,,2.053900003,0.282799989,9.584899902,,,43,2.255400002,0.284299989,11.06179988
1.68301E+18,0.909484131,0.500800014,-0.103799999,1.842799902,,,2.068500042,0.280299991,9.581899643,,,44,2.569300056,0.176499993,11.42469954
1.68301E+18,0.929484131,0.584899962,-0.111499995,1.992599964,,,2.082399845,0.268399984,9.579199791,,,45,2.667299807,0.156899989,11.57179976
1.68301E+18,0.949482422,0.664999962,-0.338400006,2.094099998,,,2.100399971,0.250099987,9.575799942,,,46,2.765399933,-0.08830002,11.66989994
1.68301E+18,0.969482422,0.413399994,-0.518799961,2.166100025,,,2.116600037,0.244299993,9.572299957,,,47,2.530000031,-0.274499968,11.73839998
1.68301E+18,0.989484131,0.1708,-0.653099954,2.418299913,,,2.104199886,0.241299987,9.575099945,,,48,2.274999887,-0.411799967,11.99339986
1.68301E+18,1.009484131,-0.030299999,-1.060500026,2.712199926,,,2.060299873,0.217099994,9.585299492,,,49,2.029999875,-0.843400031,12.29749942
1.68301E+18,1.029485596,-0.024,-0.741400003,2.319099903,,,2.014799833,0.172600001,9.595799446,,,50,1.990799833,-0.568800002,11.91489935
1.68301E+18,1.049485596,-0.238299996,-0.055299997,1.213500023,,,1.983899951,0.114199996,9.603099823,,,51,1.745599955,0.058899999,10.81659985
1.68301E+18,1.069485596,-0.70569998,0.579599977,-0.368499994,,,1.970799923,0.047899999,9.606399536,,,52,1.265099943,0.627499975,9.237899542
1.68301E+18,1.089484131,-0.984899998,0.784799993,-1.609099984,,,1.994899988,-0.0003,9.601499557,,,53,1.00999999,0.784499993,7.992399573
1.68301E+18,1.109482422,-1.438499928,0.1461,-1.602399945,,,2.026900053,-0.0284,9.594799995,,,54,0.588400126,0.117699999,7.99240005
1.68301E+18,1.129484131,-1.414899945,-0.392199993,-0.653999984,,,2.013200045,-0.0196,9.597700119,,,55,0.598300099,-0.411799993,8.943700135
1.68301E+18,1.149484131,-1.629199982,-0.677100003,-0.181999996,,,1.972499967,0.020099999,9.606200218,,,56,0.343299985,-0.657000003,9.424200222
1.68301E+18,1.169482422,-1.511500001,-1.132099986,-0.168200001,,,1.942999959,0.063199997,9.611999512,,,57,0.431499958,-1.068899989,9.443799511
1.68301E+18,1.189482422,-1.055999994,-1.325500011,-0.454999983,,,1.928799987,0.109499998,9.61439991,,,58,0.872799993,-1.216000013,9.159399927
1.68301E+18,1.209482422,-0.527199984,-1.22089994,-0.94659996,,,1.919799924,0.151899993,9.615599632,,,59,1.39259994,-1.068999946,8.668999672
1.68301E+18,1.229482422,0.0103,-0.949999988,-0.898899972,,,1.91170001,0.165399998,9.616999626,,,60,1.92200001,-0.78459999,8.718099654
1.68301E+18,1.249482422,0.161299989,-0.768999994,-0.480299979,,,1.898000002,0.141299993,9.620100021,,,61,2.059299991,-0.627700001,9.139800042
1.68301E+18,1.269482422,0.078999996,-0.541199982,-0.277999997,,,1.882200003,0.099999994,9.623700142,,,62,1.961199999,-0.441199988,9.345700145
1.68301E+18,1.289482422,-0.082199998,-0.424099982,-0.54399997,,,1.876799941,0.080799997,9.625,,,63,1.794599943,-0.343299985,9.08100003
1.68301E+18,1.309482422,-0.449499995,-0.185499996,-1.044999957,,,1.871399999,0.107000001,9.625800133,,,64,1.421900004,-0.078499995,8.580800176
1.68301E+18,1.329482422,-0.825399995,-0.150099993,-1.331799984,,,1.855099916,0.159899995,9.628199577,,,65,1.029699922,0.009800002,8.296399593
1.68301E+18,1.349482422,-1.005800009,-0.231099993,-1.412500024,,,1.839399934,0.201700002,9.630399704,,,66,0.833599925,-0.029399991,8.21789968
1.68301E+18,1.369482422,-0.945499957,0.0036,-1.345499992,,,1.828099966,0.221900001,9.632100105,,,67,0.882600009,0.225500001,8.286600113
1.68301E+18,1.389482422,-0.736999989,0.509299994,-0.747699976,,,1.825599909,0.226099998,9.632499695,,,68,1.08859992,0.735399991,8.884799719
1.68301E+18,1.409482422,-0.436699986,0.793500006,-0.827099979,,,1.819499969,0.236099988,9.633399963,,,69,1.382799983,1.029599994,8.806299984
1.68301E+18,1.429482422,-0.692799985,0.914099991,-0.827999949,,,1.810799956,0.262600005,9.634399414,,,70,1.117999971,1.176699996,8.806399465
1.68301E+18,1.449482422,-0.7227,0.596499979,-1.235399961,,,1.830799937,0.285999984,9.629899979,,,71,1.108099937,0.882499963,8.394500017
1.68301E+18,1.469482422,-0.761799991,0.481999993,-1.383000016,,,1.879699945,0.282900006,9.620599747,,,72,1.117899954,0.764899999,8.23759973
1.68301E+18,1.489482422,-0.693300009,0.674899995,-1.076699972,,,1.889699936,0.2958,9.618199348,,,73,1.196399927,0.970699996,8.541499376
1.68301E+18,1.509482422,-0.838799953,0.415799975,-0.463799983,,,1.858699918,0.329400003,9.623199463,,,74,1.019899964,0.745199978,9.15939948
1.68301E+18,1.529482422,-0.080899999,0.807599962,0.429199994,,,1.806899905,0.3495,9.632399559,,,75,1.725999907,1.157099962,10.06159955
1.68301E+18,1.549482422,0.283399999,0.397899985,1.568899989,,,1.76609993,0.347299993,9.63999939,,,76,2.049499929,0.745199978,11.20889938
1.68301E+18,1.569482422,0.304699987,0.141800001,2.974400043,,,1.735000014,0.319000006,9.64659977,,,77,2.039700001,0.460800007,12.62099981
1.68301E+18,1.589482422,0.176100001,-0.202099994,3.615700006,,,1.706699967,0.290299982,9.652599335,,,78,1.882799968,0.088199988,13.26829934
1.68301E+18,1.609482422,-0.135999992,-0.695599973,3.487999916,,,1.704999924,0.293500006,9.652799606,,,79,1.568999931,-0.402099967,13.14079952
1.68301E+18,1.629482422,-0.0383,-1.233399987,3.252599955,,,1.754499912,0.321399987,9.642999649,,,80,1.716199912,-0.912,12.8955996
1.68301E+18,1.649482422,0.311499983,-1.50999999,3.375799894,,,1.835999966,0.323399991,9.627699852,,,81,2.147499949,-1.1866,13.00349975
1.68301E+18,1.669482422,0.457899988,-1.395699978,3.360599995,,,1.915199995,0.287499994,9.613499641,,,82,2.373099983,-1.108199984,12.97409964
1.68301E+18,1.689482422,0.016999999,-0.773999989,1.949299932,,,1.973599911,0.244499996,9.602799416,,,83,1.99059991,-0.529499993,11.55209935
1.68301E+18,1.709482422,-0.696099997,-0.661300004,0.550799966,,,2.039599895,0.239599988,9.589099884,,,84,1.343499899,-0.421700016,10.13989985
1.68301E+18,1.729482422,-1.144299984,-1.460899949,0.230700001,,,2.095499992,0.284099996,9.575900078,,,85,0.951200008,-1.176799953,9.806600079
1.68301E+18,1.749482422,-0.728199959,-2.127500057,0.956399977,,,2.091399908,0.313299984,9.575900078,,,86,1.363199949,-1.814200073,10.53230006
1.68301E+18,1.769482422,-0.216999993,-2.355399847,1.542599916,,,2.040999889,0.2764,9.587900162,,,87,1.823999897,-2.078999847,11.13050008
1.68301E+18,1.789482422,-0.191799998,-2.605900049,1.460699916,,,1.986400008,0.203299999,9.601099968,,,88,1.79460001,-2.40260005,11.06179988
1.68301E+18,1.809482422,-0.224299997,-2.328500032,0.1206,,,1.960099936,0.151500002,9.607500076,,,89,1.735799938,-2.177000031,9.728100076
1.68301E+18,1.829482422,-0.333199978,-1.326900005,-1.73269999,,,1.961099982,0.140299991,9.607500076,,,90,1.627900004,-1.186600015,7.874800086
1.68301E+18,1.849482422,-0.533399999,-0.933699965,-2.463500023,,,1.984799981,0.129600003,9.602799416,,,91,1.451399982,-0.804099962,7.139299393
1.68301E+18,1.869482422,-0.574800014,-1.476599932,-2.373299837,,,1.996799946,0.083999999,9.600799561,,,92,1.421999931,-1.392599933,7.227499723
1.68301E+18,1.889482422,-0.643299997,-1.348099947,-2.422699928,,,1.996599913,0.033999998,9.601099968,,,93,1.353299916,-1.314099949,7.17840004
1.68301E+18,1.909482422,-0.658399999,-1.133700013,-2.661000013,,,1.982299924,0.0059,9.604199409,,,94,1.323899925,-1.127800013,6.943199396
1.68301E+18,1.929482422,-0.335999995,-0.934199989,-2.51970005,,,1.954099894,-0.026699999,9.609899521,,,95,1.618099898,-0.960899988,7.090199471
1.68301E+18,1.949482422,-0.184799999,-0.519800007,-2.253599882,,,1.910699964,-0.068499997,9.61839962,,,96,1.725899965,-0.588300005,7.364799738
1.68301E+18,1.969482422,0.0232,-0.422299981,-1.805899978,,,1.839999914,-0.126800001,9.631599426,,,97,1.863199914,-0.549099982,7.825699449
1.68301E+18,1.989485596,0.090899996,-0.263899982,-1.065899968,,,1.752699971,-0.196899995,9.646699905,,,98,1.843599968,-0.460799977,8.580799937
1.68301E+18,2.009482422,0.224299997,-0.207999989,-0.472899973,,,1.658499956,-0.262600005,9.661799431,,,99,1.882799953,-0.470599994,9.188899457
1.68301E+18,2.029482422,0.206499994,-0.048799999,-0.278899997,,,1.578199983,-0.313899994,9.673699379,,,100,1.784699976,-0.362699993,9.394799381
1.68301E+18,2.049482422,0.2148,0.143700004,-0.314699978,,,1.530599952,-0.349599987,9.680099487,,,101,1.745399952,-0.205899984,9.36539951
1.68301E+18,2.069482422,0.2447,0.180799991,-0.315699995,,,1.520399928,-0.3671,9.681099892,,,102,1.765099928,-0.186300009,9.365399897
1.68301E+18,2.089482422,0.194099993,0.235399991,0.106299996,,,1.521899939,-0.372699976,9.680600166,,,103,1.715999931,-0.137299985,9.786900163
1.68301E+18,2.109482422,0.257799983,0.035399999,1.019400001,,,1.526899934,-0.378699988,9.679599762,,,104,1.784699917,-0.343299989,10.69899976
1.68301E+18,2.129482422,0.107099995,-0.158099994,2.263900042,,,1.520699978,-0.381199986,9.680500031,,,105,1.627799973,-0.53929998,11.94440007
1.68301E+18,2.149482422,0.127899989,0.13409999,3.108899832,,,1.470499992,-0.369499981,9.688699722,,,106,1.598399982,-0.235399991,12.79759955
1.68301E+18,2.169482422,0.241699994,-0.203400001,3.296299934,,,1.415499926,-0.355399996,9.697400093,,,107,1.657199919,-0.558799997,12.99370003
1.68301E+18,2.189482422,0.508599997,-0.510999978,2.676300049,,,1.403599977,-0.342099994,9.69960022,,,108,1.912199974,-0.853099972,12.37590027
1.68301E+18,2.209482422,0.518099964,-0.987399995,2.474499941,,,1.433399916,-0.336400002,9.695399284,,,109,1.951499879,-1.323799998,12.16989923
1.68301E+18,2.229482422,0.984200001,-0.823099971,2.966500044,,,1.437899947,-0.363399982,9.693799973,,,110,2.422099948,-1.186499953,12.66030002
1.68301E+18,2.249482422,1.056499958,-0.625999987,3.396499872,,,1.404899955,-0.442799985,9.695300102,,,111,2.461399913,-1.068799973,13.09179997
1.68301E+18,2.269482422,0.913499951,-0.494499981,2.4526999,,,1.351699948,-0.5449,9.697699547,,,112,2.2651999,-1.039399981,12.15039945
1.68301E+18,2.289482422,0.920899987,-0.138799995,0.306999981,,,1.344399929,-0.596599996,9.695699692,,,113,2.265299916,-0.735399991,10.00269967
1.68301E+18,2.309482422,1.125800014,-0.023,-0.669200003,,,1.384599924,-0.575100005,9.691299438,,,114,2.510399938,-0.598100005,9.022099435
1.68301E+18,2.329482422,0.996599972,-0.151899993,0.260299981,,,1.386299968,-0.534500003,9.693399429,,,115,2.38289994,-0.686399996,9.95369941
1.68301E+18,2.349482422,0.430099994,-0.486900002,1.576900005,,,1.334999919,-0.532899976,9.700699806,,,116,1.765099913,-1.019799978,11.27759981
1.68301E+18,2.369482422,-0.296200007,-0.904499948,1.727499962,,,1.286599994,-0.537,9.706999779,,,117,0.990399987,-1.441499949,11.43449974
1.68301E+18,2.389482422,-0.757999957,-1.281899929,0.528400004,,,1.287500024,-0.483199984,9.709699631,,,118,0.529500067,-1.765099913,10.23809963
1.68301E+18,2.409482422,-1.073599935,-1.222499967,-1.285699964,,,1.32859993,-0.356299996,9.709599495,,,119,0.254999995,-1.578799963,8.423899531
1.68301E+18,2.429482422,-0.939699948,-1.129499912,-2.645699978,,,1.380999923,-0.2139,9.706500053,,,120,0.441299975,-1.343399912,7.060800076
1.68301E+18,2.449482422,-0.7245,-0.916199982,-3.208999872,,,1.430599928,-0.113399997,9.701000214,,,121,0.706099927,-1.02959998,6.492000341
1.68301E+18,2.469482422,-0.595999956,-0.743200004,-2.969799995,,,1.458999991,-0.070599996,9.697199821,,,122,0.863000035,-0.8138,6.727399826
1.68301E+18,2.489482422,-0.495799989,-0.553299963,-2.723599911,,,1.466699958,-0.064399995,9.696099281,,,123,0.970899969,-0.617699958,6.972499371
1.68301E+18,2.509482422,-0.606400013,-0.309399992,-2.633399963,,,1.479200006,-0.063199997,9.694199562,,,124,0.872799993,-0.372599989,7.060799599
1.68301E+18,2.529482422,-0.667599976,-0.346599996,-2.611999989,,,1.491400003,-0.055299997,9.692399979,,,125,0.823800027,-0.401899993,7.08039999
1.68301E+18,2.549482422,-0.767799973,-0.2095,-2.395999908,,,1.493399978,-0.035599999,9.692099571,,,126,0.725600004,-0.245099999,7.296099663
1.68301E+18,2.569482422,-0.989199996,-0.28459999,-1.996099949,,,1.479499936,-0.0095,9.694299698,,,127,0.49029994,-0.294099989,7.698199749
1.68301E+18,2.589482422,-0.787099957,-0.170399994,-1.890599966,,,1.463699937,0.013499999,9.696700096,,,128,0.676599979,-0.156899994,7.80610013
1.68301E+18,2.609482422,-0.3116,0.086199999,-1.580500007,,,1.439399958,0.021599999,9.700399399,,,129,1.127799958,0.107799998,8.119899392
1.68301E+18,2.629482422,-0.0068,0.017899999,-0.782199979,,,1.399399996,0.0016,9.706199646,,,130,1.392599996,0.019499999,8.923999667
1.68301E+18,2.649482422,0.248300001,0.217500001,-0.158699989,,,1.369699955,-0.031199999,9.710399628,,,131,1.617999956,0.186300002,9.551699638
1.68301E+18,2.669482422,0.244199991,0.380099982,0.037999999,,,1.37379992,-0.056499999,9.709699631,,,132,1.617999911,0.323599983,9.74769963
1.68301E+18,2.689485596,0.068899997,0.34709999,0.053299997,,,1.411899924,-0.062699996,9.704199791,,,133,1.480799921,0.284399994,9.757499788
1.68301E+18,2.709482422,0.165099993,0.354599983,0.557999969,,,1.443099976,-0.060399998,9.699699402,,,134,1.608199969,0.294199985,10.25769937
1.68301E+18,2.729482422,0.441699982,0.300399989,1.548200011,,,1.441100001,-0.065099999,9.699899673,,,135,1.882799983,0.23529999,11.24809968
1.68301E+18,2.749482422,0.619300008,0.226899996,2.741799831,,,1.420400023,-0.089599997,9.702799797,,,136,2.039700031,0.1373,12.44459963
1.68301E+18,2.769484131,0.406699985,0.138699993,3.357999802,,,1.407400012,-0.119099997,9.704299927,,,137,1.814099997,0.019599997,13.06229973
1.68301E+18,2.789482422,0.359699994,-0.156499997,3.522099972,,,1.454399943,-0.13759999,9.697199821,,,138,1.814099938,-0.294099987,13.21929979
1.68301E+18,2.809482422,0.383599997,-0.556400001,3.77519989,,,1.567799926,-0.139799997,9.67939949,,,139,1.951399922,-0.696199998,13.45459938
1.68301E+18,2.829482422,0.126399994,-0.31129998,4.154999733,,,1.668099999,-0.149499997,9.662499428,,,140,1.794499993,-0.460799977,13.81749916
1.68301E+18,2.849484131,-0.469300002,0.56220001,3.296099901,,,1.744199991,-0.179700002,9.648599625,,,141,1.274899989,0.382500008,12.94469953
1.68301E+18,2.869482422,-0.500899971,-0.154899999,2.213500023,,,1.824799895,-0.217599988,9.632899284,,,142,1.323899925,-0.372499987,11.84639931
1.68301E+18,2.889482422,-0.434100002,-1.129299998,1.905299902,,,1.905099988,-0.214099988,9.617400169,,,143,1.470999986,-1.343399987,11.52270007
1.68301E+18,2.909482422,-0.328999996,-1.672299981,2.508999825,,,1.888299942,-0.161499992,9.621699333,,,144,1.559299946,-1.833799973,12.13069916
1.68301E+18,2.929482422,-0.103499994,-2.202899933,3.089900017,,,1.800099969,-0.130999997,9.639100075,,,145,1.696599975,-2.33389993,12.72900009
1.68301E+18,2.949482422,-0.0307,-2.427299976,2.135299921,,,1.727199912,-0.14199999,9.652199745,,,146,1.696499912,-2.569299966,11.78749967
1.68301E+18,2.969482422,0.336799979,-2.304199934,-0.333199978,,,1.7421,-0.147399992,9.649499893,,,147,2.07889998,-2.451599926,9.316299915
1.68301E+18,2.989484131,-0.041999999,-1.631299973,-2.779399872,,,1.826799989,-0.114199996,9.634300232,,,148,1.784799989,-1.745499969,6.85490036
1.68301E+18,3.009482422,-0.581699967,-1.347599983,-3.856999874,,,1.934999943,-0.074199997,9.613499641,,,149,1.353299975,-1.42179998,5.756499767
1.68301E+18,3.029482422,-1.171499968,-1.654699922,-3.710999966,,,2.024699926,-0.071099997,9.594999313,,,150,0.853199959,-1.725799918,5.883999348
1.68301E+18,3.049482422,-1.644199967,-1.53489995,-3.498299837,,,2.056099892,-0.083099999,9.588299751,,,151,0.411899924,-1.617999949,6.089999914
1.68301E+18,3.069482422,-1.765299916,-1.043799996,-3.348999977,,,2.020299911,-0.083899997,9.595899582,,,152,0.254999995,-1.127699994,6.246899605
1.68301E+18,3.089482422,-1.625999928,-0.680700004,-2.994899988,,,1.929999948,-0.093899995,9.614299774,,,153,0.30400002,-0.774599999,6.619399786
1.68301E+18,3.109482422,-1.217700005,-0.550899982,-2.181099892,,,1.825799942,-0.135499999,9.634200096,,,154,0.608099937,-0.686399981,7.453100204
1.68301E+18,3.129484131,-0.424999982,-0.470699996,-1.633599997,,,1.758700013,-0.195999995,9.645599365,,,155,1.333700031,-0.666699991,8.011999369
1.68301E+18,3.149482422,0.211300001,-0.371299982,-1.402199984,,,1.73029995,-0.246399999,9.649600029,,,156,1.94159995,-0.617699981,8.247400045
1.68301E+18,3.169482422,0.584800005,-0.313999981,-0.994699955,,,1.699999928,-0.284099996,9.653900146,,,157,2.284799933,-0.598099977,8.659200191
1.68301E+18,3.189482422,0.886999965,-0.222899988,-0.580199957,,,1.652799964,-0.316399992,9.661099434,,,158,2.539799929,-0.53929998,9.080899477
1.68301E+18,3.209482422,1.067199945,-0.059099998,-0.1664,,,1.600099921,-0.342899978,9.669099808,,,159,2.667299867,-0.401999976,9.502699807
1.68301E+18,3.229482422,1.02489996,0.087299995,0.218899995,,,1.554199934,-0.361900002,9.675899506,,,160,2.579099894,-0.274600007,9.894799501
1.68301E+18,3.249482422,1.033100009,0.1061,0.801699996,,,1.516499996,-0.370799989,9.681499481,,,161,2.549600005,-0.264699988,10.48319948
1.68301E+18,3.269484131,1.166199923,-0.052199997,2.06159997,,,1.48149991,-0.379199982,9.686599731,,,162,2.647699833,-0.431399979,11.7481997
1.68301E+18,3.289485596,1.258999944,-0.319299996,3.319399834,,,1.427899957,-0.396499991,9.69399929,,,163,2.6868999,-0.715799987,13.01339912
1.68301E+18,3.309482422,1.045499921,-0.426999986,3.332000017,,,1.376599908,-0.406399995,9.701000214,,,164,2.422099829,-0.833399981,13.03300023
1.68301E+18,3.329482422,0.742299974,-0.236599997,2.301499844,,,1.375899911,-0.390899986,9.701700211,,,165,2.118199885,-0.627499983,12.00320005
1.68301E+18,3.349484131,0.34829998,-0.366599977,1.768199921,,,1.426599979,-0.358999997,9.695599556,,,166,1.77489996,-0.725599974,11.46379948
1.68301E+18,3.369482422,-0.102199994,-0.708299994,2.256500006,,,1.484899998,-0.331099987,9.68789959,,,167,1.382700004,-1.039399981,11.9443996
1.68301E+18,3.389485596,-0.294799984,-0.55430001,2.844300032,,,1.481400013,-0.328199983,9.688499451,,,168,1.186600029,-0.882499993,12.53279948
1.68301E+18,3.409482422,-0.291199982,-0.545599997,2.639799833,,,1.41899991,-0.3565,9.696799278,,,169,1.127799928,-0.902099997,12.33659911
1.68301E+18,3.429485596,0.037499998,-0.431999981,1.14199996,,,1.364799976,-0.371999979,9.703999519,,,170,1.402299974,-0.80399996,10.84599948
1.68301E+18,3.449482422,0.770199955,-0.359899998,0.121599995,,,1.367599964,-0.346100003,9.70459938,,,171,2.137799919,-0.706,9.826199375
1.68301E+18,3.469482422,1.452700019,-0.404599994,0.615799963,,,1.400900006,-0.32099998,9.700699806,,,172,2.853600025,-0.725599974,10.31649977
1.68301E+18,3.489484131,1.192399979,-0.630299985,1.747900009,,,1.425899982,-0.340399981,9.696399689,,,173,2.618299961,-0.970699966,11.4442997
1.68301E+18,3.509484131,0.302699983,-1.083899975,2.111700058,,,1.423200011,-0.377199978,9.695399284,,,174,1.725899994,-1.461099952,11.80709934
1.68301E+18,3.529482422,-0.434100002,-1.272400022,1.074800014,,,1.444100022,-0.365199983,9.692799568,,,175,1.01000002,-1.637600005,10.76759958
1.68301E+18,3.549482422,-1.093099952,-0.98939997,-0.972899973,,,1.475600004,-0.275599986,9.690999985,,,176,0.382500052,-1.264999956,8.718100011
1.68301E+18,3.569482422,-1.291299939,-0.518599987,-2.775099993,,,1.506999969,-0.157999992,9.688799858,,,177,0.21570003,-0.676599979,6.913699865
1.68301E+18,3.589482422,-1.372599959,-0.430500001,-3.664999962,,,1.529500008,-0.079300001,9.686299324,,,178,0.156900048,-0.509800002,6.021299362
1.68301E+18,3.609482422,-1.239199996,-0.450199991,-3.584499836,,,1.543200016,-0.059699997,9.684199333,,,179,0.30400002,-0.509899989,6.099699497
1.68301E+18,3.629484131,-1.005699992,-0.262999982,-3.425599813,,,1.554899931,-0.070299998,9.682299614,,,180,0.549199939,-0.33329998,6.2566998
1.68301E+18,3.649482422,-0.782499969,-0.052899998,-3.276499987,,,1.566999912,-0.084299996,9.680199623,,,181,0.784499943,-0.137199994,6.403699636
1.68301E+18,3.669482422,-0.666599989,-0.043699998,-3.011299849,,,1.568799973,-0.093499996,9.679800034,,,182,0.902199984,-0.137199994,6.668500185
1.68301E+18,3.689482422,-0.503499985,-0.089999996,-2.651000023,,,1.55279994,-0.096199997,9.68239975,,,183,1.049299955,-0.186199993,7.031399727
1.68301E+18,3.709482422,-0.252399981,0.040199999,-2.146699905,,,1.517399907,-0.099100001,9.687999725,,,184,1.264999926,-0.058900002,7.54129982
1.68301E+18,3.729482422,0.15259999,0.270099998,-1.319499969,,,1.475199938,-0.113199994,9.694299698,,,185,1.627799928,0.156900004,8.374799728
1.68301E+18,3.749482422,0.228199989,0.501299977,-0.304699987,,,1.438899994,-0.13849999,9.699500084,,,186,1.667099983,0.362799987,9.394800097
1.68301E+18,3.769485596,-0.022499999,0.685199976,0.075999998,,,1.424899936,-0.1655,9.701099396,,,187,1.402399937,0.519699976,9.777099393
1.68301E+18,3.789482422,-0.163699999,0.905900002,0.097899996,,,1.438499928,-0.180199996,9.698800087,,,188,1.274799928,0.725700006,9.796700083
1.68301E+18,3.809482422,-0.333999991,0.958399951,0.042399999,,,1.461799979,-0.173899993,9.69549942,,,189,1.127799988,0.784499958,9.737899419
1.68301E+18,3.829485596,-0.379299998,0.876399994,0.221000001,,,1.477599978,-0.150700003,9.693499565,,,190,1.09829998,0.725699991,9.914499566
1.68301E+18,3.849485596,-0.2236,0.681100011,1.04460001,,,1.478799939,-0.131899998,9.693599701,,,191,1.255199939,0.549200013,10.73819971
1.68301E+18,3.869482422,0.168099999,0.594099998,2.326400042,,,1.459699988,-0.13319999,9.696399689,,,192,1.627799988,0.460900009,12.02279973
1.68301E+18,3.889482422,0.312299997,0.43809998,3.370499849,,,1.423299909,-0.143899992,9.701700211,,,193,1.735599905,0.294199988,13.07220006
1.68301E+18,3.909484131,0.372599989,0.066299997,3.808599949,,,1.4023,-0.13499999,9.704899788,,,194,1.774899989,-0.068699993,13.51349974
1.68301E+18,3.929482422,0.533599973,-0.633599997,4.428199768,,,1.41779995,-0.092,9.703100204,,,195,1.951399922,-0.725599997,14.13129997
1.68301E+18,3.949482422,0.541499972,-0.898099959,4.734999657,,,1.439299941,-0.052999999,9.700200081,,,196,1.980799913,-0.951099958,14.43519974
1.68301E+18,3.969482422,0.403200001,-0.395699978,3.436800003,,,1.479599953,-0.045499999,9.694199562,,,197,1.882799953,-0.441199977,13.13099957
1.68301E+18,3.989485596,0.431899995,-0.455799997,1.821299911,,,1.558699965,-0.044199999,9.681799889,,,198,1.99059996,-0.499999996,11.5030998
1.68301E+18,4.009485596,0.396799982,-1.379199982,1.627499938,,,1.633099914,-0.0034,9.669699669,,,199,2.029899895,-1.382599982,11.29719961
1.68301E+18,4.029482422,0.424400002,-2.121099949,2.615200043,,,1.615199924,0.061699998,9.672499657,,,200,2.039599925,-2.059399951,12.2876997
1.68301E+18,4.049482422,0.235599995,-2.513499975,3.286399841,,,1.519699931,0.091299996,9.687699318,,,201,1.755299926,-2.422199979,12.97409916
1.68301E+18,4.069485596,-0.355999976,-2.720000029,2.299599886,,,1.415099978,0.081999995,9.70359993,,,202,1.059100002,-2.638000034,12.00319982
1.68301E+18,4.089482422,-0.498299986,-2.462899923,-0.088199995,,,1.380899906,0.079899997,9.708600044,,,203,0.88259992,-2.382999927,9.620400049
1.68301E+18,4.109482422,-0.557900012,-1.776299953,-2.631899834,,,1.420899987,0.109099999,9.70249939,,,204,0.862999976,-1.667199954,7.070599556
1.68301E+18,4.129482422,-0.697299957,-1.207799911,-4.19149971,,,1.48179996,0.138899997,9.69299984,,,205,0.784500003,-1.068899915,5.50150013
1.68301E+18,4.149482422,-0.825699985,-1.129400015,-4.263999939,,,1.521899939,0.1193,9.686999321,,,206,0.696199954,-1.010100015,5.422999382
1.68301E+18,4.169482422,-1.068199992,-1.037799954,-3.619199991,,,1.509499907,0.0572,9.689599991,,,207,0.441299915,-0.980599955,6.0704
1.68301E+18,4.189482422,-1.347899914,-0.700599968,-2.855799913,,,1.436200023,-0.0054,9.700900078,,,208,0.088300109,-0.705999968,6.845100164
1.68301E+18,4.209482422,-1.311100006,-0.370399982,-2.212300062,,,1.340499997,-0.051199999,9.714399338,,,209,0.029399991,-0.42159998,7.502099276
1.68301E+18,4.229482422,-1.072600007,-0.222499996,-1.878499985,,,1.268700004,-0.0814,9.723799706,,,210,0.196099997,-0.303899996,7.845299721
1.68301E+18,4.249482422,-0.721199989,-0.179199994,-1.629499912,,,1.221300006,-0.095299996,9.729800224,,,211,0.500100017,-0.27449999,8.100300312
1.68301E+18,4.269482422,-0.029299999,-0.194699988,-1.348199964,,,1.196299911,-0.099399999,9.73279953,,,212,1.166999912,-0.294099987,8.384599566
1.68301E+18,4.289482422,0.495599985,-0.230099991,-0.918500006,,,1.181200027,-0.103299998,9.734600067,,,213,1.676800013,-0.333399989,8.816100061
1.68301E+18,4.309482422,0.848999977,-0.077500001,-0.419499993,,,1.171000004,-0.1087,9.735799789,,,214,2.019999981,-0.1862,9.316299796
1.68301E+18,4.329484131,0.872799993,0.0175,-0.027799999,,,1.16689992,-0.105799995,9.736299515,,,215,2.039699912,-0.088299995,9.708499515
1.68301E+18,4.349485596,0.869699955,0.204099998,0.0801,,,1.16989994,-0.0766,9.736299515,,,216,2.039599895,0.127499998,9.816399515
1.68301E+18,4.369482422,0.702899992,0.124399997,0.5898,,,1.170099974,-0.0263,9.736499786,,,217,1.872999966,0.098099997,10.32629979
1.68301E+18,4.389482422,0.733599961,-0.094899997,1.90139997,,,1.149099946,0.0164,9.738999367,,,218,1.882699907,-0.078499997,11.64039934
1.68301E+18,4.409484131,0.815999985,-0.259299994,3.35649991,,,1.096199989,0.0337,9.745100021,,,219,1.912199974,-0.225599993,13.10159993
1.68301E+18,4.429484131,0.782999992,-0.500999987,4.065299988,,,1.031199932,0.030299999,9.752200127,,,220,1.814199924,-0.470699988,13.81750011
1.68301E+18,4.449482422,0.654599965,-0.430699974,3.033699989,,,1.012499928,0.038399998,9.754099846,,,221,1.667099893,-0.392299976,12.78779984
1.68301E+18,4.469485596,0.581200004,-0.551699996,2.333699942,,,1.066299915,0.090799995,9.748000145,,,222,1.647499919,-0.460900001,12.08170009
1.68301E+18,4.489485596,0.334999979,-0.943699956,2.273599863,,,1.135900021,0.149399996,9.73939991,,,223,1.470899999,-0.79429996,12.01299977
1.68301E+18,4.509482422,0.163499996,-0.480399996,1.817199945,,,1.170099974,0.176299989,9.734899521,,,224,1.33359997,-0.304100007,11.55209947
1.68301E+18,4.529482422,-0.093199998,-0.068399996,0.964100003,,,1.171899915,0.166500002,9.734899521,,,225,1.078699917,0.098100007,10.69899952
1.68301E+18,4.549482422,-0.263300002,0.082099997,0.0414,,,1.165499926,0.163000003,9.735699654,,,226,0.902199924,0.245099999,9.777099654
1.68301E+18,4.569484131,0.0184,-0.088299997,0.189199999,,,1.168099999,0.186399996,9.734999657,,,227,1.1865,0.098099999,9.924199656
1.68301E+18,4.589482422,0.882200003,-0.19569999,1.493600011,,,1.167299986,0.19569999,9.734899521,,,228,2.049499989,0,11.22849953
1.68301E+18,4.609482422,1.009899974,-0.334800005,2.902699947,,,1.147499919,0.158299997,9.73789978,,,229,2.157399893,-0.176500008,12.64059973
1.68301E+18,4.629484131,0.274399996,-0.905900002,3.14380002,,,1.118099928,0.111599997,9.741999626,,,230,1.392499924,-0.794300005,12.88579965
1.68301E+18,4.649482422,-0.3583,-1.013299942,1.272699952,,,1.133000016,0.130699992,9.739999771,,,231,0.774700016,-0.88259995,11.01269972
1.68301E+18,4.669485596,-0.964599967,-0.689599991,-1.151799917,,,1.180299997,0.228699997,9.732600212,,,232,0.21570003,-0.460899994,8.580800295
1.68301E+18,4.689482422,-1.231400013,-0.702199996,-2.888200045,,,1.231400013,0.32949999,9.723400116,,,233,0,-0.372700006,6.835200071
1.68301E+18,4.709485596,-1.309199929,-0.537299991,-3.762300014,,,1.279799938,0.390199989,9.714900017,,,234,-0.029399991,-0.147100002,5.952600002
1.68301E+18,4.729482422,-1.286999941,-0.386299998,-3.903800011,,,1.316399932,0.405900002,9.709400177,,,235,0.029399991,0.019600004,5.805600166
1.68301E+18,4.749484131,-1.251600027,-0.213799998,-3.578999996,,,1.33009994,0.390299976,9.708099365,,,236,0.078499913,0.176499978,6.129099369
1.68301E+18,4.769484131,-1.153100014,0.034699999,-3.159600019,,,1.319800019,0.367300004,9.710399628,,,237,0.166700006,0.402000003,6.550799608
1.68301E+18,4.789482422,-1.02670002,0.069600001,-2.771699905,,,1.291499972,0.351999998,9.714799881,,,238,0.264799953,0.421599999,6.943099976
1.68301E+18,4.809482422,-0.873299956,0.114499994,-2.521600008,,,1.255800009,0.346300006,9.71969986,,,239,0.382500052,0.4608,7.198099852
1.68301E+18,4.829484131,-0.696799994,0.090399995,-2.201900005,,,1.226400018,0.340999991,9.723599434,,,240,0.529600024,0.431399986,7.521699429
1.68301E+18,4.849482422,-0.413499981,0.214299992,-1.8125,,,1.207899928,0.324999988,9.726499557,,,241,0.794399947,0.53929998,7.913999557
1.68301E+18,4.869482422,-0.1043,0.457999974,-1.255100012,,,1.202600002,0.296999991,9.727999687,,,242,1.098300003,0.754999965,8.472899675
1.68301E+18,4.889482422,0.043899998,0.667999983,-0.589299977,,,1.201499939,0.263500005,9.729100227,,,243,1.245399937,0.931499988,9.139800251
1.68301E+18,4.909482422,0.0219,0.74149996,-0.050299998,,,1.203799963,0.238999993,9.729499817,,,244,1.225699963,0.980499953,9.679199819
1.68301E+18,4.929485596,-0.18779999,0.674600005,0.204999998,,,1.207700014,0.237299994,9.729000092,,,245,1.019900024,0.911899999,9.93400009
1.68301E+18,4.949482422,-0.391099989,0.528899968,0.430699974,,,1.20509994,0.255600005,9.728899956,,,246,0.813999951,0.784499973,10.15959993
1.68301E+18,4.969482422,-0.308599979,0.367399991,0.735799968,,,1.210899949,0.269899994,9.727799416,,,247,0.90229997,0.637299985,10.46359938
1.68301E+18,4.989485596,-0.065299995,0.248399988,1.414899945,,,1.232299924,0.261399984,9.725299835,,,248,1.166999929,0.509799972,11.14019978
1.68301E+18,5.009482422,0.126800001,0.168899998,2.299799919,,,1.255800009,0.233099997,9.723099709,,,249,1.382600009,0.401999995,12.02289963
1.68301E+18,5.029482422,0.217899993,-0.0385,2.977999926,,,1.272699952,0.205200002,9.721499443,,,250,1.490599945,0.166700002,12.69949937
1.68301E+18,5.049482422,0.409299999,-0.5898,3.932299852,,,1.296899915,0.197599992,9.718400002,,,251,1.706199914,-0.392200008,13.65069985
1.68301E+18,5.069482422,0.501899958,-0.85529995,5.237099648,,,1.302399993,0.1884,9.717899323,,,252,1.804299951,-0.666899949,14.95499897
1.68301E+18,5.089482422,0.355699986,-0.680799961,5.156499863,,,1.291700006,0.141399994,9.720099449,,,253,1.647399992,-0.539399967,14.87659931
1.68301E+18,5.109482422,0.211399987,0.0043,2.856099844,,,1.328099966,0.083899997,9.715899467,,,254,1.539499953,0.088199997,12.57199931
1.68301E+18,5.129484131,0.042999998,-0.202799991,0.282700002,,,1.437799931,0.075300001,9.700300217,,,255,1.480799928,-0.12749999,9.983000219
1.68301E+18,5.149482422,0.122899994,-1.113099933,-0.130199999,,,1.553900003,0.122699998,9.681900024,,,256,1.676799998,-0.990399934,9.551700026
1.68301E+18,5.169482422,0.3583,-1.63499999,1.395099998,,,1.583299994,0.16399999,9.676499367,,,257,1.941599995,-1.471000001,11.07159936
1.68301E+18,5.189482422,0.179399997,-1.795099974,3.072199821,,,1.526899934,0.127999991,9.686100006,,,258,1.706299931,-1.667099983,12.75829983
1.68301E+18,5.209482422,-0.160799995,-2.004600048,3.031100035,,,1.455199957,0.053099997,9.697899818,,,259,1.294399962,-1.951500051,12.72899985
1.68301E+18,5.229482422,-0.583499968,-1.600899935,1.026199937,,,1.42689991,0.031799998,9.702199936,,,260,0.843399942,-1.569099937,10.72839987
1.68301E+18,5.249485596,-0.906599998,-1.187299967,-1.482599974,,,1.436100006,0.0792,9.700499535,,,261,0.529500008,-1.108099967,8.217899561
1.68301E+18,5.269482422,-0.720099986,-1.038299918,-2.748100042,,,1.494799972,0.126299992,9.691199303,,,262,0.774699986,-0.911999926,6.94309926
1.68301E+18,5.289482422,-0.614799976,-0.982499957,-3.019599915,,,1.575799942,0.129299998,9.678299904,,,263,0.960999966,-0.853199959,6.658699989
1.68301E+18,5.309482422,-0.784199953,-0.913499951,-2.913300037,,,1.627499938,0.0995,9.670100212,,,264,0.843299985,-0.813999951,6.756800175
1.68301E+18,5.329482422,-1.00059998,-0.632399976,-2.8822999,,,1.638000011,0.073399998,9.668499947,,,265,0.637400031,-0.558999978,6.786200047
1.68301E+18,5.349482422,-1.213400006,-0.307699978,-2.758699894,,,1.615499973,0.062600002,9.672399521,,,266,0.402099967,-0.245099977,6.913699627
1.68301E+18,5.369482422,-1.152400017,-0.094899997,-2.29489994,,,1.574100018,0.045899998,9.679299355,,,267,0.421700001,-0.048999999,7.384399414
1.68301E+18,5.389482422,-0.928799987,0.050799999,-1.684700012,,,1.52699995,0.0178,9.686999321,,,268,0.598199964,0.068599999,8.002299309
1.68301E+18,5.409482422,-0.591600001,0.156499997,-1.269699931,,,1.483999968,-0.0094,9.693599701,,,269,0.892399967,0.147099997,8.42389977
1.68301E+18,5.429484131,-0.130199999,0.27669999,-0.960399985,,,1.454100013,-0.031500001,9.69810009,,,270,1.323900014,0.24519999,8.737700105
1.68301E+18,5.449482422,0.162,0.300899982,-0.825699985,,,1.436399937,-0.045899998,9.700699806,,,271,1.598399937,0.254999984,8.874999821
1.68301E+18,5.469482422,0.292499989,0.184799999,-0.515199959,,,1.413699985,-0.047499999,9.703999519,,,272,1.706199974,0.1373,9.18879956
1.68301E+18,5.489484131,0.506699979,0.138400003,-0.038699999,,,1.385800004,-0.0403,9.708099365,,,273,1.892499983,0.098100003,9.669399366
1.68301E+18,5.509482422,0.665799975,0.093899995,0.808499992,,,1.344399929,-0.035,9.713899612,,,274,2.010199904,0.058899995,10.5223996
1.68301E+18,5.529485596,0.902799964,0.143399999,2.045799971,,,1.283900023,-0.045299999,9.722099304,,,275,2.186699986,0.098099999,11.76789927
1.68301E+18,5.549482422,0.864799976,0.073399998,3.183199883,,,1.204299927,-0.073399998,9.732099533,,,276,2.069099903,0,12.91529942
1.68301E+18,5.569482422,0.753399968,0.033399999,3.174399853,,,1.129400015,-0.101999998,9.740799904,,,277,1.882799983,-0.068599999,12.91519976
1.68301E+18,5.589482422,0.556800008,0.1743,1.985699892,,,1.110199928,-0.105699994,9.743000031,,,278,1.666999936,0.068600006,11.72869992
1.68301E+18,5.609482422,0.429800004,0.184100002,1.4102,,,1.139199972,-0.086099997,9.7397995,,,279,1.568999976,0.098000005,11.1499995
1.68301E+18,5.629482422,0.247599989,0.087699994,2.002699852,,,1.174199939,-0.0779,9.735699654,,,280,1.421799928,0.009799995,11.73839951
1.68301E+18,5.649482422,-0.223199993,0.350699991,2.099900007,,,1.164600015,-0.105499998,9.736599922,,,281,0.941400021,0.245199993,11.83649993
1.68301E+18,5.669482422,-0.446399987,0.468099982,1.460199952,,,1.14259994,-0.1347,9.738900185,,,282,0.696199954,0.333399981,11.19910014
1.68301E+18,5.689482422,-0.598399997,0.330799997,0.976599991,,,1.118199944,-0.115099996,9.741999626,,,283,0.519799948,0.215700001,10.71859962
1.68301E+18,5.709482422,0.088999994,0.0458,1.659199953,,,1.087700009,-0.075199999,9.745800018,,,284,1.176700003,-0.029399998,11.40499997
1.68301E+18,5.729482422,1.150399923,-0.112299994,2.754099846,,,1.055999994,-0.073899999,9.749300003,,,285,2.206399918,-0.186199993,12.50339985
1.68301E+18,5.749482422,1.464299917,-0.334999979,2.822000027,,,1.04610002,-0.106199995,9.750100136,,,286,2.510399938,-0.441199973,12.57210016
1.68301E+18,5.769482422,0.922699988,-0.513199985,1.325099945,,,1.077700019,-0.114399999,9.746500015,,,287,2.000400007,-0.627599984,11.07159996
1.68301E+18,5.789482422,0.421999991,-0.619199991,-0.40199998,,,1.156799912,-0.057299998,9.737999916,,,288,1.578799903,-0.676499989,9.335999936
1.68301E+18,5.809482422,-0.377199978,-0.788199961,-1.355399966,,,1.220499992,0.033099998,9.73029995,,,289,0.843300015,-0.755099963,8.374899983
1.68301E+18,5.829482422,-0.992499948,-1.24089992,-1.813699961,,,1.237699986,0.103299998,9.727600098,,,290,0.245200038,-1.137599923,7.913900137
1.68301E+18,5.849482422,-1.290699959,-1.182500005,-2.500200033,,,1.231899977,0.152799994,9.72769928,,,291,-0.058799982,-1.029700011,7.227499247
1.68301E+18,5.869482422,-1.289600015,-0.881599963,-2.922699928,,,1.220999956,0.185299993,9.728499413,,,292,-0.068600059,-0.69629997,6.805799484
1.68301E+18,5.889482422,-1.117599964,-0.709999979,-2.972299814,,,1.215699911,0.190299988,9.729100227,,,293,0.098099947,-0.519699991,6.756800413
1.68301E+18,5.909482422,-0.872500002,-0.627599955,-3.039999962,,,1.225499988,0.176499993,9.728099823,,,294,0.352999985,-0.451099962,6.688099861
1.68301E+18,5.929482422,-0.545799971,-0.487599999,-3.145999908,,,1.2421,0.16399999,9.726200104,,,295,0.69630003,-0.323600009,6.580200195
1.68301E+18,5.949482422,-0.248599991,-0.267399997,-2.841300011,,,1.24879992,0.149700001,9.725599289,,,296,1.000199929,-0.117699996,6.884299278
1.68301E+18,5.969482422,-0.134199992,-0.075300001,-1.941599965,,,1.232599974,0.124299996,9.727999687,,,297,1.098399982,0.048999995,7.786399722
1.68301E+18,5.989484131,-0.202199996,0.205200002,-1.015299916,,,1.192600012,0.0889,9.733399391,,,298,0.990400016,0.294100001,8.718099475
1.68301E+18,6.009482422,-0.1796,0.493199974,-0.520500004,,,1.15049994,0.0559,9.738699913,,,299,0.97089994,0.549099974,9.218199909
1.68301E+18,6.029482422,-0.16489999,0.631999969,-0.376299977,,,1.125999928,0.0348,9.741700172,,,300,0.961099938,0.66679997,9.365400195
1.68301E+18,6.049482422,-0.264999986,0.695299983,-0.534099996,,,1.118199944,0.030299999,9.742599487,,,301,0.853199959,0.725599982,9.208499491
1.68301E+18,6.069484131,-0.1197,0.591899991,-0.621100008,,,1.129699945,0.035700001,9.741199493,,,302,1.009999946,0.627599992,9.120099485
1.68301E+18,6.089482422,0.0163,0.604699969,-0.569499969,,,1.150599957,0.0425,9.738800049,,,303,1.166899957,0.64719997,9.169300079
1.68301E+18,6.109484131,0.0726,0.577699959,0.234799996,,,1.153100014,0.039999999,9.738499641,,,304,1.225700013,0.617699958,9.973299637
1.68301E+18,6.129484131,0.17279999,0.626199961,1.595299959,,,1.131399989,0.0111,9.741099358,,,305,1.304199979,0.63729996,11.33639932
1.68301E+18,6.149482422,0.266000003,0.73269999,3.041699886,,,1.087199926,-0.036499999,9.746099472,,,306,1.353199929,0.696199991,12.78779936
1.68301E+18,6.169485596,0.21949999,0.876800001,3.282599926,,,1.045499921,-0.082400002,9.75039959,,,307,1.264999911,0.794399999,13.03299952
1.68301E+18,6.189482422,0.166999996,0.256699979,3.342099905,,,1.049000025,-0.1096,9.749699593,,,308,1.216000021,0.147099979,13.0917995
1.68301E+18,6.209482422,0.665300012,-0.296599984,4.297899723,,,1.089999914,-0.115199998,9.745100021,,,309,1.755299926,-0.411799982,14.04299974
1.68301E+18,6.229482422,1.215399981,-0.070699997,4.234999657,,,1.138100028,-0.135199994,9.73939991,,,310,2.353500009,-0.205899991,13.97439957
1.68301E+18,6.249482422,0.765500009,0.0143,2.911000013,,,1.205600023,-0.220199987,9.729700089,,,311,1.971100032,-0.205899987,12.6407001
1.68301E+18,6.269485596,0.333399981,-0.682500005,1.195199966,,,1.264999986,-0.317699999,9.719499588,,,312,1.598399967,-1.000200003,10.91469955
1.68301E+18,6.289482422,0.122999996,-1.158599973,0.676499963,,,1.269500017,-0.331900001,9.718400002,,,313,1.392500013,-1.490499973,10.39489996
1.68301E+18,6.309482422,0.431199998,-2.142699957,2.12680006,,,1.186800003,-0.318599999,9.729299545,,,314,1.618000001,-2.461299956,11.85609961
1.68301E+18,6.329482422,0.403799981,-2.882799864,3.009199858,,,1.09649992,-0.333700001,9.73939991,,,315,1.500299901,-3.216499865,12.74859977
1.68301E+18,6.349482422,-0.080299996,-3.077899933,1.690099955,,,1.051200032,-0.334800005,9.744299889,,,316,0.970900036,-3.412699938,11.43439984
1.68301E+18,6.369482422,-0.541599989,-1.621899962,-0.920299947,,,1.051499963,-0.270700008,9.746299744,,,317,0.509899974,-1.89259997,8.825999796
1.68301E+18,6.389485596,-0.100999996,-1.324699998,-2.508599997,,,1.07190001,-0.195299998,9.745900154,,,318,0.970900014,-1.519999996,7.237300158
1.68301E+18,6.409484131,-0.0163,-1.008999944,-3.01880002,,,1.075399995,-0.157799989,9.746199608,,,319,1.059099995,-1.166799933,6.727399588
1.68301E+18,6.429484131,-0.319900006,-1.306100011,-2.55979991,,,1.055400014,-0.17459999,9.748099327,,,320,0.735500008,-1.480700001,7.188299417
1.68301E+18,6.449482422,-0.218699992,0.141399994,-2.081599951,,,1.022899985,-0.229599997,9.75039959,,,321,0.804199994,-0.088200003,7.668799639
1.68301E+18,6.469482422,-0.255499989,-0.646799982,-1.300599933,,,0.971399963,-0.29459998,9.753899574,,,322,0.715899974,-0.941399962,8.453299642
1.68301E+18,6.489482422,0.0036,-0.270500004,-1.183200002,,,0.94749999,-0.35709998,9.754199982,,,323,0.95109999,-0.627599984,8.57099998
1.68301E+18,6.509482422,0.492699981,0.107999995,-1.789499998,,,0.958599985,-0.372799993,9.75249958,,,324,1.451299965,-0.264799997,7.962999582
1.68301E+18,6.529484131,0.702899992,0.755299985,-2.085199833,,,0.954299986,-0.343400002,9.75399971,,,325,1.657199979,0.411899984,7.668799877
1.68301E+18,6.549482422,0.375699997,-0.467199981,-1.403100014,,,0.918599963,-0.317200005,9.758299828,,,326,1.29429996,-0.784399986,8.355199814
1.68301E+18,6.569482422,0.33069998,0.413100004,-0.946799994,,,0.875400007,-0.295399994,9.762999535,,,327,1.206099987,0.117700011,8.816199541
1.68301E+18,6.589482422,-0.348800004,0.477099985,-1.118999958,,,0.829400003,-0.241699994,9.768499374,,,328,0.480599999,0.235399991,8.649499416
1.68301E+18,6.609482422,0.606999993,0.106699996,-0.641600013,,,0.805099964,-0.194999993,9.771499634,,,329,1.412099957,-0.088299997,9.129899621
1.68301E+18,6.629484131,0.41079998,0.883699954,-0.684799969,,,0.765799999,-0.14819999,9.775499344,,,330,1.176599979,0.735499963,9.090699375
1.68301E+18,6.649482422,0.340900004,0.351399988,-0.491299987,,,0.737699986,-0.106199995,9.77820015,,,331,1.078599989,0.245199993,9.286900163
1.68301E+18,6.669482422,0.48119998,0.378399998,0.350799978,,,0.724900007,-0.084199995,9.779399872,,,332,1.206099987,0.294200003,10.13019985
1.68301E+18,6.689482422,0.421299994,0.358899981,1.456699967,,,0.696500003,-0.0647,9.781599998,,,333,1.117799997,0.294199981,11.23829997
1.68301E+18,6.709482422,0.252000004,0.270199984,3.26789999,,,0.650099993,-0.083899997,9.78469944,,,334,0.902099997,0.186299987,13.05259943
1.68301E+18,6.729482422,0.722499967,0.230499998,3.19569993,,,0.591399968,-0.103,9.788199425,,,335,1.313899934,0.127499998,12.98389935
1.68301E+18,6.749482422,0.697699964,-0.104099996,1.93900001,,,0.567200005,-0.101799995,9.789699554,,,336,1.264899969,-0.205899991,11.72869956
1.68301E+18,6.769482422,0.873999953,-0.630199969,1.968400002,,,0.567399979,-0.095399998,9.789699554,,,337,1.441399932,-0.725599967,11.75809956
1.68301E+18,6.789482422,0.536399961,-0.666399956,3.006599903,,,0.542299986,-0.108199999,9.790999413,,,338,1.078699946,-0.774599954,12.79759932
1.68301E+18,6.809482422,-0.2685,-0.0836,2.935499907,,,0.484200001,-0.151600003,9.793499947,,,339,0.215700001,-0.235200003,12.72899985
1.68301E+18,6.829484131,-0.608399987,0.385800004,1.501899958,,,0.431899995,-0.189599991,9.795199394,,,340,-0.176499993,0.196200013,11.29709935
1.68301E+18,6.849482422,0.172899991,0.126800001,-0.135899991,,,0.425199986,-0.195500001,9.795399666,,,341,0.598099977,-0.068700001,9.659499675
1.68301E+18,6.869482422,1.047699928,-0.451700002,-0.105599999,,,0.452600002,-0.175799996,9.794599533,,,342,1.500299931,-0.627499998,9.688999534
1.68301E+18,6.889482422,0.940799952,-0.783299983,1.160099983,,,0.471199989,-0.167799994,9.7937994,,,343,1.411999941,-0.951099977,10.95389938
1.68301E+18,6.909482422,-0.255600005,-0.854499996,1.993299961,,,0.461599976,-0.175099999,9.794199944,,,344,0.20599997,-1.029599994,11.7874999
1.68301E+18,6.929482422,-1.080699921,-0.843899965,1.384499907,,,0.443299979,-0.175899997,9.795000076,,,345,-0.637399942,-1.019799963,11.17949998
1.68301E+18,6.949485596,-0.76730001,-1.082599998,0.099299997,,,0.443599999,-0.143099993,9.795499802,,,346,-0.323700011,-1.225699991,9.894799799
1.68301E+18,6.969482422,-0.236299992,-1.165899992,-1.096199989,,,0.471699983,-0.099100001,9.794699669,,,347,0.235399991,-1.264999993,8.69849968
1.68301E+18,6.989482422,-0.062299997,-1.072199941,-2.182999849,,,0.513399959,-0.065299995,9.792900085,,,348,0.451099962,-1.137499936,7.609900236
1.68301E+18,7.009482422,-0.385499984,-0.949899971,-2.966099977,,,0.542400002,-0.040399998,9.791500092,,,349,0.156900018,-0.99029997,6.825400114
1.68301E+18,7.029482422,-0.761799991,-0.790899992,-3.112999916,,,0.546000004,-0.0328,9.79129982,,,350,-0.215799987,-0.823699992,6.678299904
1.68301E+18,7.049482422,-0.819499969,-0.455599993,-2.691900015,,,0.535099983,-0.044499997,9.791899681,,,351,-0.284399986,-0.500099991,7.099999666
1.68301E+18,7.069482422,-0.628399968,-0.241399989,-2.427199841,,,0.530399978,-0.072299995,9.791999817,,,352,-0.09799999,-0.313699983,7.364799976
1.68301E+18,7.089482422,-0.423999995,0.013599999,-2.387599945,,,0.531899989,-0.101899996,9.791600227,,,353,0.107899994,-0.088299997,7.404000282
1.68301E+18,7.109482422,-0.129799992,0.175599992,-2.092999935,,,0.531799972,-0.136399999,9.791199684,,,354,0.40199998,0.039199993,7.698199749
1.68301E+18,7.129485596,0.085900001,0.331499994,-1.621699929,,,0.531899989,-0.17459999,9.790599823,,,355,0.61779999,0.156900004,8.168899894
1.68301E+18,7.149485596,0.058199998,0.479000002,-1.35619998,,,0.530099988,-0.21419999,9.789899826,,,356,0.588299986,0.264800012,8.433699846
1.68301E+18,7.169484131,-0.167599991,0.704400003,-1.257200003,,,0.530399978,-0.253299981,9.788999557,,,357,0.362799987,0.451100022,8.531799555
1.68301E+18,7.189484131,-0.591600001,0.907999992,-0.942200005,,,0.532700002,-0.290199995,9.787799835,,,358,-0.058899999,0.617799997,8.84559983
1.68301E+18,7.209484131,-0.981899977,1.066699982,-0.813299954,,,0.540600002,-0.321399987,9.786399841,,,359,-0.441299975,0.745299995,8.973099887
1.68301E+18,7.229484131,-0.98939997,1.079100013,-0.498299986,,,0.548099995,-0.343600005,9.785200119,,,360,-0.441299975,0.735500008,9.286900133
1.68301E+18,7.249484131,-0.745000005,1.116699934,0.149499997,,,0.548900008,-0.361599982,9.784500122,,,361,-0.196099997,0.755099952,9.93400012
1.68301E+18,7.269484131,-0.306799978,1.157099962,1.101699948,,,0.55189997,-0.382299989,9.783599854,,,362,0.245099992,0.774799973,10.8852998
1.68301E+18,7.289484131,0.068599999,1.124300003,2.25,,,0.549099982,-0.408499986,9.782699585,,,363,0.617699981,0.715800017,12.03269958
1.68301E+18,7.309484131,0.21329999,1.237200022,3.104300022,,,0.551499963,-0.432999998,9.781499863,,,364,0.764799953,0.804200023,12.88579988
1.68301E+18,7.329484131,0.144299999,1.027899981,2.978299856,,,0.571399987,-0.439499974,9.780099869,,,365,0.715699986,0.588400006,12.75839972
1.68301E+18,7.349484131,0.510399997,0.18599999,3.411799908,,,0.617299974,-0.421299994,9.778100014,,,366,1.127699971,-0.235300004,13.18989992
1.68301E+18,7.369484131,0.783100009,-0.356299996,5.28760004,,,0.668199956,-0.408499986,9.775300026,,,367,1.451299965,-0.764799982,15.06290007
1.68301E+18,7.389484131,0.433599979,0.046099998,5.557199955,,,0.723399997,-0.428499997,9.770500183,,,368,1.156999975,-0.382399999,15.32770014
1.68301E+18,7.409484131,-0.233499989,0.40989998,3.033799887,,,0.792499959,-0.458999991,9.763699532,,,369,0.558999971,-0.049100012,12.79749942
1.68301E+18,7.429484131,-0.293899983,-0.394499987,0.323699981,,,0.872500002,-0.448799998,9.757399559,,,370,0.578600019,-0.843299985,10.08109954
1.68301E+18,7.449484131,0.424599975,-1.576399922,0.093099996,,,0.948300004,-0.394699991,9.752699852,,,371,1.372899979,-1.971099913,9.845799848
1.68301E+18,7.469484131,0.833299994,-1.922899961,2.183899879,,,0.980799973,-0.361900002,9.750699997,,,372,1.814099967,-2.284799963,11.93459988
1.68301E+18,7.489484131,-0.157600001,-1.730199933,2.958299875,,,0.971599996,-0.378099978,9.750999451,,,373,0.813999996,-2.108299911,12.70929933
1.68301E+18,7.509484131,-1.051900029,-1.483199954,1.279099941,,,0.944000006,-0.389699996,9.753299713,,,374,-0.107900023,-1.87289995,11.03239965
1.68301E+18,7.529484131,-0.663599968,-1.43900001,-1.302399993,,,0.928299963,-0.3653,9.755700111,,,375,0.264699996,-1.80430001,8.453300118
1.68301E+18,7.549484131,0.135899991,-1.423799992,-2.918399811,,,0.962300003,-0.331499994,9.753600121,,,376,1.098199993,-1.755299985,6.83520031
1.68301E+18,7.569484131,0.140699998,-1.44569993,-3.394899845,,,1.006500006,-0.319399983,9.749599457,,,377,1.147200003,-1.765099913,6.354699612
1.68301E+18,7.589484131,-0.370199978,-1.293900013,-3.2572999,,,1.00759995,-0.324099988,9.749300003,,,378,0.637399971,-1.618000001,6.492000103
1.68301E+18,7.609484131,-0.958299994,-1.138000011,-2.781100035,,,0.958299994,-0.342700005,9.753600121,,,379,0,-1.480700016,6.972500086
1.68301E+18,7.629484131,-1.039600015,-0.864199996,-2.098899841,,,0.9023,-0.371399999,9.757899284,,,380,-0.137300014,-1.235599995,7.658999443
1.68301E+18,7.649484131,-0.721899986,-0.489199996,-1.659399986,,,0.868999958,-0.403099984,9.759699821,,,381,0.147099972,-0.89229998,8.100299835
1.68301E+18,7.669484131,-0.159799993,-0.405699998,-1.590799928,,,0.856099963,-0.4278,9.759799957,,,382,0.69629997,-0.833499998,8.16900003
1.68301E+18,7.689484131,0.230700001,-0.363199979,-1.670300007,,,0.838099957,-0.440799981,9.760799408,,,383,1.068799958,-0.80399996,8.090499401
1.68301E+18,7.709484131,0.455499977,-0.261700004,-1.42689991,,,0.809499979,-0.453999996,9.762599945,,,384,1.264999956,-0.715700001,8.335700035
1.68301E+18,7.729484131,0.486099988,0.033,-1.163699985,,,0.778899968,-0.474299997,9.764100075,,,385,1.264999956,-0.441299997,8.60040009
1.68301E+18,7.749484131,0.396899998,0.362399995,-0.693899989,,,0.75029999,-0.49969998,9.765099525,,,386,1.147199988,-0.137299985,9.071199536
1.68301E+18,7.769484131,0.189199999,0.547500014,-0.135499999,,,0.7227,-0.527899981,9.765699387,,,387,0.911899999,0.019600034,9.630199388
1.68301E+18,7.789482422,0.067599997,0.749300003,0.324799985,,,0.6972,-0.553200006,9.76609993,,,388,0.764799997,0.196099997,10.09089991
1.68301E+18,7.809484131,0.145300001,0.785699964,1.461899996,,,0.668599963,-0.57980001,9.766599655,,,389,0.813899964,0.205899954,11.22849965
1.68301E+18,7.829484131,0.281100005,0.770899951,2.618099928,,,0.630899966,-0.604200006,9.76760006,,,390,0.911999971,0.166699946,12.38569999
1.68301E+18,7.849482422,0.205599993,0.816999972,2.872099876,,,0.598399997,-0.620899975,9.76859951,,,391,0.80399999,0.196099997,12.64069939
1.68301E+18,7.869484131,0.169200003,0.625199974,2.253799915,,,0.585799992,-0.625199974,9.769100189,,,392,0.754999995,0,12.0229001
1.68301E+18,7.889484131,0.263399988,0.409399986,1.645299911,,,0.589599967,-0.6153,9.769499779,,,393,0.852999955,-0.205900013,11.41479969
1.68301E+18,7.909484131,0.299899995,0.070900001,2.69389987,,,0.592400014,-0.600499988,9.770199776,,,394,0.89230001,-0.529599987,12.46409965
1.68301E+18,7.929484131,0.14379999,0.204999998,4.104700089,,,0.56220001,-0.606999993,9.77159977,,,395,0.706,-0.401999995,13.87629986
1.68301E+18,7.949484131,0.050099999,0.664999962,3.397399902,,,0.518599987,-0.625800014,9.772899628,,,396,0.568699986,0.039199948,13.17029953
1.68301E+18,7.969484131,0.668599963,0.583899975,1.600399971,,,0.488499999,-0.613299966,9.77519989,,,397,1.157099962,-0.029399991,11.37559986
1.68301E+18,7.989482422,1.811800003,-0.236000001,0.255299985,,,0.522099972,-0.558200002,9.776800156,,,398,2.333899975,-0.794200003,10.03210014
1.68301E+18,8.009480957,2.450199842,-0.893700004,0.324099988,,,0.5898,-0.488899976,9.776599884,,,399,3.039999843,-1.38259998,10.10069987
1.68301E+18,8.029484131,1.274999976,-1.299499989,0.834999979,,,0.637199998,-0.44599998,9.775699615,,,400,1.912199974,-1.745499969,10.61069959
1.68301E+18,8.049484131,-0.876999974,-1.437399983,0.29459998,,,0.64169997,-0.415999979,9.77670002,,,401,-0.235300004,-1.853399962,10.0713
1.68301E+18,8.069484131,-1.83009994,-1.304499984,0.0081,,,0.62379998,-0.391900003,9.778900146,,,402,-1.206299961,-1.696399987,9.787000147
1.68301E+18,8.089484131,-1.311999917,-1.043099999,-0.326299995,,,0.615799963,-0.378800005,9.779899597,,,403,-0.696199954,-1.421900004,9.453599602
1.68301E+18,8.109482422,-0.405000001,-0.723100007,-1.452999949,,,0.640399992,-0.3653,9.778800011,,,404,0.235399991,-1.088400006,8.325800061
1.68301E+18,8.129484131,-0.0251,-0.682699978,-2.49029994,,,0.682099998,-0.346899986,9.77670002,,,405,0.656999998,-1.029599965,7.28640008
1.68301E+18,8.149484131,-0.0187,-0.569599986,-3.340999842,,,0.724799991,-0.332599998,9.77409935,,,406,0.706099991,-0.902199984,6.433099508
1.68301E+18,8.169484131,-0.324499995,-0.484299988,-3.309999943,,,0.746199965,-0.32949999,9.772600174,,,407,0.421699971,-0.813799977,6.462600231
1.68301E+18,8.189484131,-0.479199976,-0.293599993,-2.927199841,,,0.743999958,-0.343699992,9.772299767,,,408,0.264799982,-0.637299985,6.845099926
1.68301E+18,8.209484131,-0.64289999,-0.063000001,-2.52519989,,,0.73119998,-0.368399978,9.772399902,,,409,0.08829999,-0.431399979,7.247200012
1.68301E+18,8.229482422,-0.413499981,0.259799987,-2.04460001,,,0.717499971,-0.397100002,9.772199631,,,410,0.30399999,-0.137300014,7.727599621
1.68301E+18,8.249482422,-0.137099996,0.496399999,-1.680599928,,,0.715699971,-0.427699983,9.771100044,,,411,0.578599975,0.068700016,8.090500116
1.68301E+18,8.269482422,0.0229,0.57919997,-1.296599984,,,0.722299993,-0.451700002,9.769499779,,,412,0.745199993,0.127499968,8.472899795
1.68301E+18,8.289482422,-0.104099996,0.624499977,-0.736899972,,,0.721899986,-0.467599988,9.768799782,,,413,0.61779999,0.156899989,9.03189981
1.68301E+18,8.309484131,-0.405599982,0.825399995,-0.559799969,,,0.719399989,-0.482199997,9.768300056,,,414,0.313800007,0.343199998,9.208500087
1.68301E+18,8.329484131,-0.728199959,0.91049999,-0.451700002,,,0.718400002,-0.488799989,9.767999649,,,415,-0.009799957,0.421700001,9.316299647
1.68301E+18,8.349484131,-0.736899972,0.969500005,-0.363499999,,,0.717299998,-0.488999993,9.768099785,,,416,-0.019599974,0.480500013,9.404599786
1.68301E+18,8.369484131,-0.347000003,0.941399992,0.274100006,,,0.719599962,-0.4903,9.767899513,,,417,0.372599959,0.451099992,10.04199952
1.68301E+18,8.389484131,-0.0073,1.137799978,1.48029995,,,0.713400006,-0.500400007,9.767799377,,,418,0.706100007,0.637399971,11.24809933
1.68301E+18,8.409484131,-0.051999997,1.350700021,2.783799887,,,0.689399958,-0.517099977,9.768699646,,,419,0.63739996,0.833600044,12.55249953
1.68301E+18,8.429484131,-0.333499998,1.369899988,3.253399849,,,0.666899979,-0.526499987,9.76970005,,,420,0.333399981,0.843400002,13.0230999
1.68301E+18,8.449484131,-0.547399998,1.073199987,2.683300018,,,0.665099978,-0.504499972,9.770999908,,,421,0.117699981,0.568700016,12.45429993
1.68301E+18,8.469484131,-0.112999998,0.323599994,2.740700006,,,0.681800008,-0.451099992,9.772500038,,,422,0.56880001,-0.127499998,12.51320004
1.68301E+18,8.489484131,0.488999993,-0.064499997,3.897300005,,,0.707300007,-0.396299988,9.772999763,,,423,1.1963,-0.460799985,13.67029977
1.68301E+18,8.509484131,0.351599991,0.044299997,4.516599655,,,0.736799955,-0.377700001,9.77159977,,,424,1.088399947,-0.333400004,14.28819942
1.68301E+18,8.529484131,0.0059,0.324200004,2.566999912,,,0.768799961,-0.363399982,9.76970005,,,425,0.77469996,-0.039199978,12.33669996
1.68301E+18,8.549482422,0.262499988,-0.433699995,0.539099991,,,0.816100001,-0.311499983,9.76760006,,,426,1.078599989,-0.745199978,10.30670005
1.68301E+18,8.569484131,0.644400001,-1.489300013,0.99149996,,,0.85589999,-0.236499995,9.766300201,,,427,1.50029999,-1.725800008,10.75780016
1.68301E+18,8.589484131,0.344999999,-2.014400005,3.039499998,,,0.851300001,-0.1822,9.767899513,,,428,1.1963,-2.196600005,12.80739951
1.68301E+18,8.609484131,-0.633300006,-2.041599989,3.457999945,,,0.819599986,-0.155000001,9.771100044,,,429,0.18629998,-2.19659999,13.22909999
1.68301E+18,8.629484131,-0.293099999,-2.174999952,1.376199961,,,0.793299973,-0.109799996,9.773799896,,,430,0.500199974,-2.284799948,11.14999986
1.68301E+18,8.649484131,0.817399979,-2.316699982,-1.220700026,,,0.820199966,-0.046599999,9.772099495,,,431,1.637599945,-2.363299981,8.551399469
1.68301E+18,8.669484131,1.129999995,-2.127799988,-3.207199812,,,0.870399952,-1E-04,9.767899513,,,432,2.000399947,-2.127899988,6.560699701
1.68301E+18,8.689484131,0.333099991,-1.782099962,-3.666100025,,,0.892699957,0.0071,9.765899658,,,433,1.225799948,-1.774999962,6.099799633
1.68301E+18,8.709482422,-0.807500005,-1.200399995,-3.021199942,,,0.866400003,-0.0253,9.768199921,,,434,0.058899999,-1.225699995,6.746999979
1.68301E+18,8.729484131,-1.435400009,-0.552599967,-2.338700056,,,0.817599952,-0.074900001,9.772199631,,,435,-0.617800057,-0.627499968,7.433499575
1.68301E+18,8.749484131,-1.225899935,-0.17809999,-1.772899985,,,0.774800003,-0.125799999,9.775099754,,,436,-0.451099932,-0.303899989,8.002199769
1.68301E+18,8.769482422,-0.347799987,-0.0955,-1.784199953,,,0.749899983,-0.159400001,9.776599884,,,437,0.402099997,-0.254900001,7.992399931
1.68301E+18,8.789480957,0.248399988,-0.160400003,-2.010099888,,,0.741899967,-0.172999993,9.776999474,,,438,0.990299955,-0.333399996,7.766899586
1.68301E+18,8.809480957,0.613999963,-0.133699998,-1.931699991,,,0.739299953,-0.179999992,9.776999474,,,439,1.353299916,-0.313699991,7.845299482
1.68301E+18,8.829482422,0.811399996,0.0034,-1.451099992,,,0.737899959,-0.189799994,9.776999474,,,440,1.549299955,-0.186399994,8.325899482
1.68301E+18,8.849482422,0.503399968,0.224099994,-1.00090003,,,0.722299993,-0.20449999,9.777799606,,,441,1.225699961,0.019600004,8.776899576
1.68301E+18,8.869482422,0.170299992,0.288499981,-0.825499952,,,0.702399969,-0.219899997,9.778900146,,,442,0.872699961,0.068599984,8.953400195
1.68301E+18,8.889484131,0.127599999,0.437399983,-0.689099967,,,0.686199963,-0.2315,9.779799461,,,443,0.813799962,0.205899984,9.090699494
1.68301E+18,8.909482422,0.127899989,0.546000004,-0.27759999,,,0.676099956,-0.241999999,9.78030014,,,444,0.803999946,0.304000005,9.50270015
1.68301E+18,8.929482422,0.40959999,0.490199983,0.761599958,,,0.66899997,-0.254799992,9.780399323,,,445,1.07859996,0.235399991,10.54199928
1.68301E+18,8.949482422,0.771399975,0.387899995,2.231799841,,,0.650399983,-0.270199984,9.781299591,,,446,1.421799958,0.117700011,12.01309943
1.68301E+18,8.969482422,0.973099947,0.44569999,3.455899954,,,0.615499973,-0.288800001,9.782999992,,,447,1.58859992,0.156899989,13.23889995
1.68301E+18,8.989482422,0.893099964,0.533999979,3.268100023,,,0.587599993,-0.298700005,9.784399986,,,448,1.480699956,0.235299975,13.05250001
1.68301E+18,9.009482422,0.809399962,0.364099979,2.238399982,,,0.592899978,-0.285600007,9.784500122,,,449,1.402299941,0.078499973,12.0229001
1.68301E+18,9.029482422,0.570299983,-0.105099998,2.386100054,,,0.616299987,-0.257699996,9.783800125,,,450,1.18659997,-0.362799995,12.16990018
1.68301E+18,9.049482422,-0.154399991,-0.129600003,3.317299843,,,0.6153,-0.243000001,9.78429985,,,451,0.460900009,-0.372600004,13.10159969
1.68301E+18,9.069482422,-0.853699982,0.058399998,2.786799908,,,0.598699987,-0.2447,9.785200119,,,452,-0.254999995,-0.186300002,12.57200003
1.68301E+18,9.089482422,-0.293599993,-0.030199999,1.168099999,,,0.597599983,-0.224699989,9.78579998,,,453,0.30399999,-0.254899988,10.95389998
1.68301E+18,9.109482422,1.217700005,-0.403599977,0.296900004,,,0.635699987,-0.184699997,9.784199715,,,454,1.853399992,-0.588299975,10.08109972
1.68301E+18,9.129482422,1.962599993,-0.500999987,1.231400013,,,0.685099959,-0.155900002,9.781399727,,,455,2.647699952,-0.656899989,11.01279974
1.68301E+18,9.149482422,0.962300003,-0.30399999,2.390699863,,,0.714599967,-0.156800002,9.779299736,,,456,1.67689997,-0.460799992,12.1699996
1.68301E+18,9.169484131,-0.538199961,-0.346599996,1.597000003,,,0.724599957,-0.153499991,9.778599739,,,457,0.186399996,-0.500099987,11.37559974
1.68301E+18,9.189484131,-1.318199992,-0.708199978,-0.020399999,,,0.739600003,-0.115399994,9.777999878,,,458,-0.578599989,-0.823599972,9.757599879
1.68301E+18,9.209482422,-1.110800028,-1.036299944,-1.214299917,,,0.777399957,-0.061899997,9.775499344,,,459,-0.333400071,-1.098199941,8.561199427
1.68301E+18,9.229482422,-0.680199981,-1.102399945,-2.11349988,,,0.817499995,-0.0154,9.772399902,,,460,0.137300014,-1.117799945,7.658900023
1.68301E+18,9.249482422,-0.336199999,-0.996299982,-2.64139986,,,0.836399972,0.0156,9.770899773,,,461,0.500199974,-0.980699982,7.129499912
1.68301E+18,9.269482422,-0.137899995,-0.757999957,-3.04279995,,,0.843899965,0.032299999,9.770199776,,,462,0.70599997,-0.725699957,6.727399826
1.68301E+18,9.289482422,-0.036699999,-0.615099967,-3.120699883,,,0.850699961,0.036499999,9.769599915,,,463,0.813999962,-0.578599967,6.648900032
1.68301E+18,9.309484131,-0.035599999,-0.463999987,-2.972800016,,,0.859399974,0.032499999,9.768799782,,,464,0.823799975,-0.431499988,6.795999765
1.68301E+18,9.329482422,-0.042999998,-0.246999994,-2.677999973,,,0.866699994,0.021499999,9.768199921,,,465,0.823699996,-0.225499995,7.090199947
1.68301E+18,9.349482422,-0.161599994,-0.0128,-2.29550004,,,0.867699981,0.003,9.768099785,,,466,0.706099987,-0.0098,7.472599745
1.68301E+18,9.369482422,-0.2007,0.148000002,-1.961999893,,,0.867500007,-0.020499999,9.768099785,,,467,0.666800007,0.127500003,7.806099892
1.68301E+18,9.389482422,-0.223399997,0.377000004,-1.628299952,,,0.870599985,-0.0436,9.767799377,,,468,0.647199988,0.333400004,8.139499426
1.68301E+18,9.409482422,-0.388199985,0.611999989,-1.5,,,0.878499985,-0.062799998,9.767000198,,,469,0.4903,0.549199991,8.267000198
1.68301E+18,9.429482422,-0.58859998,0.713199973,-1.410300016,,,0.8926,-0.075800002,9.765600204,,,470,0.30400002,0.637399971,8.355300188
1.68301E+18,9.449482422,-0.847000003,0.658999979,-1.095299959,,,0.905799985,-0.080399998,9.764299393,,,471,0.058799982,0.578599982,8.668999434
1.68301E+18,9.469484131,-1.084999919,0.603699982,-0.456599981,,,0.918299973,-0.083999999,9.76309967,,,472,-0.166699946,0.519699983,9.30649969
1.68301E+18,9.489482422,-1.167199969,0.521899998,0.407599986,,,0.931899965,-0.090499997,9.761799812,,,473,-0.235300004,0.431400001,10.1693998
1.68301E+18,9.509482422,-0.699400008,0.612899959,1.506299973,,,0.934799969,-0.102899998,9.761400223,,,474,0.235399961,0.509999961,11.2677002
1.68301E+18,9.529482422,-0.231299996,0.837199986,2.281499863,,,0.937399983,-0.121299997,9.760899544,,,475,0.706099987,0.715899989,12.04239941
1.68301E+18,9.549482422,-0.089299999,1.090799928,2.939299822,,,0.942399979,-0.139499992,9.760199547,,,476,0.853099979,0.951299936,12.69949937
1.68301E+18,9.569482422,-0.200399995,0.909500003,2.813199997,,,0.955499947,-0.144599989,9.758899689,,,477,0.755099952,0.764900014,12.57209969
1.68301E+18,9.589482422,-0.155900002,0.199699998,2.786799908,,,0.989499986,-0.121299997,9.755799294,,,478,0.833599985,0.078400001,12.5425992
1.68301E+18,9.609482422,0.240399987,-0.2509,3.968099833,,,1.034399986,-0.1021,9.751399994,,,479,1.274799973,-0.353,13.71949983
1.68301E+18,9.629484131,0.206100002,0.083499998,4.834899902,,,1.068699956,-0.112899996,9.747499466,,,480,1.274799958,-0.029399998,14.58239937
1.68301E+18,9.649482422,-0.298500001,0.643000007,3.925899982,,,1.092800021,-0.14289999,9.74450016,,,481,0.79430002,0.500100017,13.67040014
1.68301E+18,9.669484131,-0.465599984,0.1928,1.40899992,,,1.122599959,-0.143700004,9.741099358,,,482,0.656999975,0.049099997,11.15009928
1.68301E+18,9.689484131,0.143899992,-1.298200011,0.814599991,,,1.160300016,-0.0942,9.737299919,,,483,1.304200009,-1.392400011,10.55189991
1.68301E+18,9.709482422,0.731700003,-2.278199911,2.296299934,,,1.170699954,-0.0458,9.736399651,,,484,1.902399957,-2.323999912,12.03269958
1.68301E+18,9.729482422,0.289700001,-2.379400015,3.32249999,,,1.14199996,-0.032899998,9.7397995,,,485,1.431699961,-2.412300013,13.06229949
1.68301E+18,9.749482422,0.126199991,-2.26429987,2.04279995,,,1.099499941,-0.030299999,9.744699478,,,486,1.225699931,-2.294599868,11.78749943
1.68301E+18,9.769482422,0.555000007,-2.333199978,-0.350799978,,,1.092399955,-0.0104,9.745599747,,,487,1.647399962,-2.343599978,9.394799769
1.68301E+18,9.789484131,0.640100002,-2.194000006,-2.35739994,,,1.125,0.0071,9.74189949,,,488,1.765100002,-2.186900006,7.38449955
1.68301E+18,9.809484131,-0.154899999,-2.109200001,-3.021899939,,,1.145299911,0.0008,9.739500046,,,489,0.990399912,-2.108400001,6.717600107
1.68301E+18,9.829484131,-0.997999966,-1.672199965,-2.906499863,,,1.125499964,-0.033999998,9.741700172,,,490,0.127499998,-1.706199963,6.83520031
1.68301E+18,9.849482422,-1.180199981,-1.092100024,-2.49909997,,,1.082099915,-0.094399996,9.746299744,,,491,-0.098100066,-1.18650002,7.247199774
1.68301E+18,9.869482422,-0.968899965,-0.683799982,-2.011800051,,,1.047299981,-0.159500003,9.749199867,,,492,0.078400016,-0.843299985,7.737399817
1.68301E+18,9.889482422,-0.316199988,-0.470099986,-1.953399897,,,1.032099962,-0.216299996,9.749699593,,,493,0.715899974,-0.686399981,7.796299696
1.68301E+18,9.909482422,0.0526,-0.340799987,-2.15899992,,,1.026000023,-0.257299989,9.749400139,,,494,1.078600023,-0.598099977,7.590400219
1.68301E+18,9.929482422,0.0033,-0.254999995,-2.227900028,,,1.016499996,-0.284299999,9.749599457,,,495,1.019799996,-0.539299995,7.521699429
1.68301E+18,9.949482422,-0.110299997,-0.242199987,-2.081599951,,,1.002699971,-0.306899995,9.75039959,,,496,0.892399974,-0.549099982,7.668799639
1.68301E+18,9.969484131,-0.16839999,0.0078,-1.748399973,,,0.992199957,-0.331399977,9.750599861,,,497,0.823799968,-0.323599977,8.002199888
1.68301E+18,9.989484131,-0.24939999,0.440299988,-1.258700013,,,0.975099981,-0.361799985,9.751299858,,,498,0.725699991,0.078500003,8.492599845
1.68301E+18,10.00948242,-0.243000001,0.900299966,-1.014999986,,,0.949099958,-0.390399992,9.752799988,,,499,0.706099957,0.509899974,8.737800002
1.68301E+18,10.0294856,0.067499995,1.08920002,-0.398799986,,,0.922899961,-0.412499994,9.7543993,,,500,0.990399957,0.676700026,9.355599314
1.68301E+18,10.04948242,0.147499993,1.227399945,0.697399974,,,0.891900003,-0.432999998,9.756299973,,,501,1.039399996,0.794399947,10.45369995
1.68301E+18,10.06948242,0.059299998,1.185500026,2.097100019,,,0.852699995,-0.449999988,9.75909996,,,502,0.911999993,0.735500038,11.85619998
1.68301E+18,10.08948242,0.215700001,1.005299926,3.024799824,,,0.804099977,-0.456099987,9.762899399,,,503,1.019799978,0.549199939,12.78769922
1.68301E+18,10.1094856,0.928799987,0.851700008,3.17779994,,,0.757799983,-0.449599981,9.766900063,,,504,1.68659997,0.402100027,12.9447
1.68301E+18,10.12948413,1.229699969,0.694599986,2.262799978,,,0.73149997,-0.429899991,9.769800186,,,505,1.961199939,0.264699996,12.03260016
1.68301E+18,10.14948242,1.088199973,0.341999978,2.065099955,,,0.725899994,-0.40079999,9.771499634,,,506,1.814099967,-0.058800012,11.83659959
1.68301E+18,10.16948413,0.521799982,0.089999996,3.92599988,,,0.70389998,-0.384199977,9.773799896,,,507,1.225699961,-0.294199981,13.69979978
1.68301E+18,10.18948413,-0.043199997,0.70449996,4.599100113,,,0.64139998,-0.4005,9.777400017,,,508,0.598199982,0.30399996,14.37650013
1.68301E+18,10.20948242,-0.24499999,1.094099998,3.291699886,,,0.588199973,-0.407700002,9.780399323,,,509,0.343199983,0.686399996,13.07209921
1.68301E+18,10.22948242,0.707399964,0.850399971,0.631999969,,,0.577099979,-0.369899988,9.782599449,,,510,1.284499943,0.480499983,10.41459942
1.68301E+18,10.24948242,1.902399898,-0.0006,-0.868799984,,,0.617900014,-0.283699989,9.782999992,,,511,2.520299911,-0.284299989,8.914200008
1.68301E+18,10.26948242,2.463999987,-0.871999979,0.141499996,,,0.654399991,-0.196799994,9.782799721,,,512,3.118399978,-1.068799973,9.924299717
1.68301E+18,10.28948413,1.588699937,-1.14380002,1.356699944,,,0.656899989,-0.140699998,9.783599854,,,513,2.245599926,-1.284500018,11.1402998
1.68301E+18,10.30948413,0.150899991,-1.232200027,1.257200003,,,0.643299997,-0.101399995,9.784899712,,,514,0.794199988,-1.333600022,11.04209971
1.68301E+18,10.32948242,-0.494899988,-1.377900004,0.404199988,,,0.651899993,-0.053799998,9.784799576,,,515,0.157000005,-1.431700002,10.18899956
1.68301E+18,10.34948242,-0.270199984,-1.462199926,-0.476300001,,,0.682099998,0.001,9.782799721,,,516,0.411900014,-1.461199926,9.30649972
1.68301E+18,10.36948242,0.021499999,-1.31069994,-1.327099919,,,0.71389997,0.045699999,9.780499458,,,517,0.735399969,-1.264999941,8.453399539
1.68301E+18,10.38948242,0.098099999,-0.998299956,-2.011800051,,,0.735399961,0.076499999,9.778699875,,,518,0.833499961,-0.921799958,7.766899824
1.68301E+18,10.40948413,0.011299999,-0.682799995,-2.579099894,,,0.753499985,0.094399996,9.777099609,,,519,0.764799984,-0.588399999,7.197999716
1.68301E+18,10.42948242,-0.211099997,-0.549399972,-3.195499897,,,0.769999981,0.108099997,9.775699615,,,520,0.558899984,-0.441299975,6.580199718
1.68301E+18,10.44948242,-0.38499999,-0.538599968,-3.566599846,,,0.787099957,0.116899997,9.774299622,,,521,0.402099967,-0.421699971,6.207699776
1.68301E+18,10.46948242,-0.367399991,-0.49149999,-3.673499823,,,0.798900008,0.118799999,9.773300171,,,522,0.431500018,-0.372699991,6.099800348
1.68301E+18,10.48948242,-0.248399988,-0.3847,-3.634500027,,,0.797599971,0.110099994,9.773499489,,,523,0.549199983,-0.274600007,6.138999462
1.68301E+18,10.50948242,-0.185599998,-0.245099992,-3.370299816,,,0.793599963,0.088199995,9.774000168,,,524,0.607999966,-0.156899996,6.403700352
1.68301E+18,10.52948242,-0.367300004,-0.093899995,-2.713899851,,,0.788999975,0.054699998,9.774700165,,,525,0.421699971,-0.039199997,7.060800314
1.68301E+18,10.54948242,-0.549899995,0.0266,-1.723799944,,,0.785299957,0.0126,9.775099754,,,526,0.235399961,0.0392,8.05129981
1.68301E+18,10.56948242,-0.682500005,0.112499997,-0.576799989,,,0.780599952,-0.033999998,9.775400162,,,527,0.098099947,0.078499999,9.198600173
1.68301E+18,10.58948242,-0.588099957,0.176699996,0.217199996,,,0.774399996,-0.078599997,9.775699615,,,528,0.186300039,0.098099999,9.992899612
1.68301E+18,10.60948242,-0.322799981,0.374300003,0.521600008,,,0.773899972,-0.119399995,9.775300026,,,529,0.451099992,0.254900008,10.29690003
1.68301E+18,10.62948242,-0.0638,0.629099965,0.788199961,,,0.789499998,-0.158399999,9.773499489,,,530,0.725699998,0.470699966,10.56169945
1.68301E+18,10.64948242,-0.0054,0.876699984,1.311200023,,,0.819299996,-0.199999988,9.770299911,,,531,0.813899996,0.676699996,11.08149993
1.68301E+18,10.66948413,-0.276199996,1.093799949,2.118399858,,,0.844899952,-0.240699992,9.767199516,,,532,0.568699956,0.853099957,11.88559937
1.68301E+18,10.68948242,-0.52609998,1.170099974,2.943300009,,,0.849799991,-0.26789999,9.765999794,,,533,0.323700011,0.902199984,12.7092998
1.68301E+18,10.7094856,-0.235699996,0.948599994,3.277199984,,,0.853499949,-0.271999985,9.765600204,,,534,0.617799953,0.676600009,13.04280019
1.68301E+18,10.72948242,0.391900003,0.3653,3.191699982,,,0.8926,-0.247599989,9.762700081,,,535,1.284500003,0.117700011,12.95440006
1.68301E+18,10.74948242,1.103299975,-0.3565,4.011799812,,,0.965799987,-0.212200001,9.756599426,,,536,2.069099963,-0.568700001,13.76839924
1.68301E+18,10.76948242,1.238499999,-0.429899991,4.577799797,,,1.036499977,-0.197699994,9.749699593,,,537,2.274999976,-0.627599984,14.32749939
1.68301E+18,10.78948242,0.530399978,0.049599998,3.73029995,,,1.087599993,-0.206499994,9.743899345,,,538,1.617999971,-0.156899996,13.4741993
1.68301E+18,10.80948242,-0.028199999,0.588999987,1.20599997,,,1.136399984,-0.216399997,9.738100052,,,539,1.108199986,0.372599989,10.94410002
1.68301E+18,10.82948242,-0.0089,0.0713,-0.100099996,,,1.205299973,-0.198799998,9.730199814,,,540,1.196399974,-0.127499998,9.630099818
1.68301E+18,10.84948242,0.201999992,-1.160599947,1.110899925,,,1.249300003,-0.163199991,9.725299835,,,541,1.451299995,-1.323799938,10.83619976
1.68301E+18,10.86948242,0.096199997,-1.800399899,2.993199825,,,1.247200012,-0.141299993,9.725899696,,,542,1.343400009,-1.941699892,12.71909952
1.68301E+18,10.88948242,-0.615099967,-1.691399932,3.371399879,,,1.21329999,-0.142299995,9.730199814,,,543,0.598200023,-1.833699927,13.10159969
1.68301E+18,10.90948242,-0.983899951,-1.378299952,1.545599937,,,1.199599981,-0.141599998,9.731900215,,,544,0.21570003,-1.519899949,11.27750015
1.68301E+18,10.92948242,-0.428299993,-1.246699929,-0.657000005,,,1.23239994,-0.116399996,9.728199959,,,545,0.804099947,-1.363099925,9.071199954
1.68301E+18,10.94948242,0.055499997,-1.235000014,-2.314599991,,,1.307500005,-0.088799998,9.718599319,,,546,1.363000002,-1.323800012,7.403999329
1.68301E+18,10.96948413,-0.350600004,-1.335500002,-3.121399879,,,1.360599995,-0.066799998,9.711500168,,,547,1.00999999,-1.4023,6.590100288
1.68301E+18,10.98948242,-0.965799987,-1.335099936,-3.416100025,,,1.358099937,-0.057399999,9.711899757,,,548,0.39229995,-1.392499935,6.295799732
1.68301E+18,11.00948242,-1.315099955,-1.228899956,-3.234299898,,,1.324899912,-0.065499999,9.716499329,,,549,0.009799957,-1.294399954,6.48219943
1.68301E+18,11.02948242,-1.251099944,-0.936499953,-2.85619998,,,1.290300012,-0.093099996,9.720899582,,,550,0.039200068,-1.02959995,6.864699602
1.68301E+18,11.04948242,-0.884399951,-0.722299993,-2.447000027,,,1.266899943,-0.130799994,9.723499298,,,551,0.382499993,-0.853099987,7.276499271
1.68301E+18,11.06948242,-0.506099999,-0.597899973,-2.361399889,,,1.241599917,-0.166899994,9.726200104,,,552,0.735499918,-0.764799967,7.364800215
1.68301E+18,11.08948242,-0.283199996,-0.540199995,-2.130199909,,,1.204999924,-0.195199996,9.73029995,,,553,0.921799928,-0.735399991,7.60010004
1.68301E+18,11.1094856,0.0233,-0.561699986,-1.595299959,,,1.163200021,-0.2227,9.734799385,,,554,1.18650002,-0.784399986,8.139499426
1.68301E+18,11.12948413,0.123599999,-0.385099977,-1.334699988,,,1.121799946,-0.252200007,9.738999367,,,555,1.245399944,-0.637299985,8.404299378
1.68301E+18,11.14948242,0.296000004,-0.116699994,-1.131799936,,,1.086699963,-0.2852,9.741999626,,,556,1.382699966,-0.401899993,8.61019969
1.68301E+18,11.1694856,0.433499992,0.145499989,-0.81129998,,,1.047199965,-0.321999997,9.745200157,,,557,1.480699956,-0.176500008,8.933900177
1.68301E+18,11.18948413,0.559300005,0.389299989,-0.059899997,,,0.999899983,-0.359899998,9.748799324,,,558,1.559199989,0.029399991,9.688899327
1.68301E+18,11.20948242,0.577600002,0.615099967,1.308799982,,,0.942299962,-0.399399996,9.752999306,,,559,1.519899964,0.215699971,11.06179929
1.68301E+18,11.22948242,0.826299965,0.626199961,2.922799826,,,0.879999995,-0.439899981,9.757100105,,,560,1.706299961,0.18629998,12.67989993
1.68301E+18,11.24948242,1.220199943,0.791799963,3.90929985,,,0.819499969,-0.468199998,9.761099815,,,561,2.039699912,0.323599964,13.67039967
1.68301E+18,11.26948242,1.569599986,0.876800001,3.572999954,,,0.774100006,-0.484599978,9.763999939,,,562,2.343699992,0.392200023,13.33699989
1.68301E+18,11.28948242,1.684199929,0.492599994,2.865799904,,,0.767399967,-0.47299999,9.765099525,,,563,2.451599896,0.019600004,12.63089943
1.68301E+18,11.30948242,1.616499901,-0.161599994,3.610499859,,,0.776299953,-0.4463,9.765600204,,,564,2.392799854,-0.607899994,13.37610006
1.68301E+18,11.32948413,1.243499994,-0.0082,4.031300068,,,0.76669997,-0.442799985,9.766499519,,,565,2.010199964,-0.450999985,13.79779959
1.68301E+18,11.34948413,0.509000003,0.459199995,3.070199966,,,0.755999982,-0.459199995,9.766599655,,,566,1.264999986,0,12.83679962
1.68301E+18,11.36948242,0.1215,0.700800002,1.050699949,,,0.760999978,-0.465499997,9.765899658,,,567,0.882499978,0.235300004,10.81659961
1.68301E+18,11.38948242,0.563799977,0.483599991,-0.750699997,,,0.808999956,-0.444399983,9.76309967,,,568,1.372799933,0.039200008,9.012399673
1.68301E+18,11.40948242,1.163299918,-0.120099999,-0.462099999,,,0.876399994,-0.409299999,9.758799553,,,569,2.039699912,-0.529399998,9.296699554
1.68301E+18,11.42948242,1.062899947,-0.601599991,1.216799974,,,0.908099949,-0.388799995,9.756699562,,,570,1.970999897,-0.990399987,10.97349954
1.68301E+18,11.44948242,-0.1131,-0.665199995,2.059000015,,,0.897599995,-0.38409999,9.757899284,,,571,0.784499995,-1.049299985,11.8168993
1.68301E+18,11.46948242,-1.060799956,-0.738399982,1.390399933,,,0.884299994,-0.369699985,9.759599686,,,572,-0.176499963,-1.108099967,11.14999962
1.68301E+18,11.48948242,-1.141499996,-0.993299961,0.0374,,,0.906099975,-0.32069999,9.759399414,,,573,-0.235400021,-1.313999951,9.796799414
1.68301E+18,11.50948413,-0.729099989,-1.123299956,-1.244400024,,,0.954599977,-0.259299994,9.756599426,,,574,0.225499988,-1.38259995,8.512199402
1.68301E+18,11.5294856,-0.541299999,-0.899599969,-2.486299992,,,1.002200007,-0.208399996,9.752999306,,,575,0.460900009,-1.107999966,7.266699314
1.68301E+18,11.54949976,-0.60679996,-0.571399987,-3.160899878,,,1.028499961,-0.173799992,9.750999451,,,576,0.421700001,-0.745199978,6.590099573
1.68301E+18,11.56948242,-0.747099996,-0.2456,-3.24909997,,,1.031499982,-0.156299993,9.750899315,,,577,0.284399986,-0.401899993,6.501799345
1.68301E+18,11.58948242,-0.976099968,-0.155699998,-3.347999811,,,1.025200009,-0.14819999,9.751699448,,,578,0.049100041,-0.303899989,6.403699636
1.68301E+18,11.60948242,-0.985599995,-0.091199994,-3.25,,,1.024799943,-0.144099995,9.751799583,,,579,0.039199948,-0.23529999,6.501799583
1.68301E+18,11.62948242,-0.865799963,0.039899997,-3.161899805,,,1.022699952,-0.147799999,9.751999855,,,580,0.156899989,-0.107900001,6.59010005
1.68301E+18,11.64948242,-0.770699978,0.215399995,-2.838899851,,,1.015900016,-0.156599998,9.752599716,,,581,0.245200038,0.058799997,6.913699865
1.68301E+18,11.6694856,-0.604299963,0.476699978,-2.427700043,,,1.006399989,-0.172700003,9.753299713,,,582,0.402100027,0.303999975,7.32559967
1.68301E+18,11.68948413,-0.501299977,0.610599995,-1.957199931,,,1.001399994,-0.188899994,9.753499985,,,583,0.500100017,0.421700001,7.796300054
1.68301E+18,11.7094856,-0.328199983,0.712799966,-1.466199994,,,1.004899979,-0.202799991,9.752900124,,,584,0.676699996,0.509999976,8.28670013
1.68301E+18,11.7294856,-0.290399998,0.783800006,-1.071499944,,,1.025900006,-0.21509999,9.75039959,,,585,0.735500008,0.568700016,8.678899646
1.68301E+18,11.74948242,-0.466299981,0.941299975,-0.568099976,,,1.054700017,-0.225400001,9.747099876,,,586,0.588400036,0.715899974,9.178999901
1.68301E+18,11.76948242,-0.544799984,0.948499978,0.170999989,,,1.084200025,-0.242399991,9.743499756,,,587,0.539400041,0.706099987,9.914499745
1.68301E+18,11.78948242,-0.3671,0.831099987,1.00819993,,,1.112399936,-0.262299985,9.7397995,,,588,0.745299935,0.568800002,10.74799943
1.68301E+18,11.80948242,-0.140100002,0.806899965,2.090899944,,,1.140399933,-0.287099987,9.735799789,,,589,1.000299931,0.519799978,11.82669973
1.68301E+18,11.82948242,0.035700001,0.82069999,3.467299938,,,1.160599947,-0.320499986,9.73239994,,,590,1.196299948,0.500200003,13.19969988
1.68301E+18,11.84948242,0.111899994,0.681499958,4.402800083,,,1.182500005,-0.357899994,9.728499413,,,591,1.294399999,0.323599964,14.1312995
1.68301E+18,11.86948242,0.41959998,-0.117199995,5.007199764,,,1.227800012,-0.372999996,9.722299576,,,592,1.647399992,-0.490199991,14.72949934
1.68301E+18,11.88948242,1.153100014,-0.778599977,5.887399673,,,1.288599968,-0.358899981,9.714900017,,,593,2.441699982,-1.137499958,15.60229969
1.68301E+18,11.90948413,1.13349998,-0.412599981,5.504600048,,,1.357299924,-0.362100005,9.705499649,,,594,2.490799904,-0.774699986,15.2100997
1.68301E+18,11.92948413,0.039299998,0.094999999,2.879400015,,,1.441399932,-0.379399985,9.692699432,,,595,1.48069993,-0.284399986,12.57209945
1.68301E+18,11.94948242,-0.496199995,-0.616299987,0.382799983,,,1.535699964,-0.364299983,9.678699493,,,596,1.039499968,-0.98059997,10.06149948
1.68301E+18,11.96948242,0.216600001,-1.998399973,0.266900003,,,1.617200017,-0.315899998,9.667200089,,,597,1.833800018,-2.314299971,9.934100091
1.68301E+18,11.98948242,1.261999965,-2.173300028,1.605599999,,,1.650399923,-0.297800004,9.662099838,,,598,2.912399888,-2.471100032,11.26769984
1.68301E+18,12.00948242,0.163000003,-1.576699972,2.3901999,,,1.641299963,-0.345299989,9.662099838,,,599,1.804299966,-1.921999961,12.05229974
1.68301E+18,12.02948242,-1.342000008,-1.003499985,1.35710001,,,1.60679996,-0.408600003,9.665399551,,,600,0.264799953,-1.412099987,11.02249956
1.68301E+18,12.04948242,-1.511299968,-0.807699978,-0.128299996,,,1.57009995,-0.437599987,9.670199394,,,601,0.058799982,-1.245299965,9.541899398
1.68301E+18,12.06948242,-0.543299973,-0.815599978,-1.557500005,,,1.582799911,-0.449299991,9.667599678,,,602,1.039499938,-1.264899969,8.110099673
1.68301E+18,12.08948242,-0.438299984,-0.884799957,-2.717499971,,,1.624899983,-0.448799998,9.660599709,,,603,1.1866,-1.333599955,6.943099737
1.68301E+18,12.10948413,-0.982899964,-0.93599999,-3.195600033,,,1.639999986,-0.44659999,9.65819931,,,604,0.657100022,-1.38259998,6.462599277
1.68301E+18,12.12948413,-1.3125,-0.896699965,-3.23879981,,,1.616499901,-0.446699977,9.662099838,,,605,0.303999901,-1.343399942,6.423300028
1.68301E+18,12.14948242,-0.914099991,-0.718800008,-3.085599899,,,1.590799928,-0.457899988,9.66590023,,,606,0.676699936,-1.176699996,6.580300331
1.68301E+18,12.16948242,-0.332399994,-0.502200007,-2.625799894,,,1.577899933,-0.478399992,9.666999817,,,607,1.245499939,-0.980599999,7.041199923
1.68301E+18,12.18948413,0.0603,-0.451599985,-2.33220005,,,1.567499995,-0.499499977,9.667599678,,,608,1.627799995,-0.951099962,7.335399628
1.68301E+18,12.20948242,0.21329999,-0.511799991,-2.246099949,,,1.551800013,-0.508000016,9.669699669,,,609,1.765100002,-1.019800007,7.42359972
1.68301E+18,12.22948413,0.157600001,-0.388399988,-1.904599905,,,1.538900018,-0.513700008,9.671500206,,,610,1.696500018,-0.902099997,7.766900301
1.68301E+18,12.24948413,0.052899998,-0.179199994,-1.307699919,,,1.525900006,-0.526799977,9.672800064,,,611,1.578800004,-0.70599997,8.365100145
1.68301E+18,12.26948413,-0.037599999,0.0722,-0.917299986,,,1.508599997,-0.542899966,9.674599648,,,612,1.470999997,-0.470699966,8.757299662
1.68301E+18,12.28948242,0.033999998,0.223399997,-0.547399998,,,1.485899925,-0.556800008,9.677399635,,,613,1.519899923,-0.333400011,9.129999638
1.68301E+18,12.30948242,0.207899988,0.328500003,0.037799999,,,1.459100008,-0.573599994,9.680500031,,,614,1.666999996,-0.245099992,9.71830003
1.68301E+18,12.32948242,0.430699974,0.359699994,0.82949996,,,1.432399988,-0.594999969,9.683099747,,,615,1.863099962,-0.235299975,10.51259971
1.68301E+18,12.34948242,0.650900006,0.380400002,2.032700062,,,1.398599982,-0.62559998,9.686200142,,,616,2.049499989,-0.245199978,11.7189002
1.68301E+18,12.36948242,0.744899988,0.479000002,2.842900038,,,1.353600025,-0.665300012,9.689899445,,,617,2.098500013,-0.186300009,12.53279948
1.68301E+18,12.38948242,0.743699968,0.546899974,2.623299837,,,1.305799961,-0.703799963,9.693699837,,,618,2.049499929,-0.156899989,12.31699967
1.68301E+18,12.4094856,1.001600027,0.359099984,1.914999962,,,1.273399949,-0.73179996,9.696000099,,,619,2.274999976,-0.372699976,11.61100006
1.68301E+18,12.42948242,1.37409997,0.043399997,2.7493999,,,1.263800025,-0.759299994,9.695099831,,,620,2.637899995,-0.715899996,12.44449973
1.68301E+18,12.44948242,1.0977,0.216799989,3.81799984,,,1.226300001,-0.814999998,9.695399284,,,621,2.324000001,-0.598200008,13.51339912
1.68301E+18,12.46948242,0.328700006,0.671799958,3.484200001,,,1.171599984,-0.887499988,9.695799828,,,622,1.50029999,-0.21570003,13.17999983
1.68301E+18,12.48948242,0.082899995,0.591799974,2.041399956,,,1.12319994,-0.935099959,9.697099686,,,623,1.206099935,-0.343299985,11.73849964
1.68301E+18,12.50948242,1.176599979,0.210099995,1.109200001,,,1.118000031,-0.935699999,9.697599411,,,624,2.29460001,-0.725600004,10.80679941
1.68301E+18,12.52948242,1.882099986,-0.121299997,1.414999962,,,1.148000002,-0.918099999,9.695799828,,,625,3.030099988,-1.039399996,11.11079979
1.68301E+18,12.54948413,0.70599997,-0.300199986,2.073199987,,,1.16689992,-0.905900002,9.694699287,,,626,1.87289989,-1.206099987,11.76789927
1.68301E+18,12.56948242,-1.085199952,-0.457099974,1.736400008,,,1.153800011,-0.886299968,9.69810009,,,627,0.068600059,-1.343399942,11.4345001
1.68301E+18,12.58948242,-1.644199967,-0.890699983,1.052899957,,,1.134299994,-0.835199952,9.704899788,,,628,-0.509899974,-1.725899935,10.75779974
1.68301E+18,12.60948242,-0.723499954,-1.087100029,0.077599995,,,1.145200014,-0.766299963,9.709300041,,,629,0.42170006,-1.853399992,9.786900036
1.68301E+18,12.62948242,0.1039,-1.046599984,-1.27639997,,,1.180599928,-0.698899984,9.710100174,,,630,1.284499928,-1.745499969,8.433700204
1.68301E+18,12.64948242,0.245399997,-0.880299985,-2.45299983,,,1.215699911,-0.639599979,9.709899902,,,631,1.461099908,-1.519899964,7.256900072
1.68301E+18,12.66948413,0.041299999,-0.599799991,-3.139899969,,,1.233500004,-0.596499979,9.710399628,,,632,1.274800003,-1.19629997,6.570499659
1.68301E+18,12.6894856,-0.351699978,-0.418599993,-3.5224998,,,1.244099975,-0.571799994,9.710499763,,,633,0.892399997,-0.990399987,6.187999964
1.68301E+18,12.7094856,-0.512799978,-0.096999995,-3.756799936,,,1.258099914,-0.559899986,9.709400177,,,634,0.745299935,-0.656899981,5.952600241
1.68301E+18,12.72948413,-0.692299962,-0.027199998,-3.815199852,,,1.261099935,-0.561100006,9.708999634,,,635,0.568799973,-0.588300005,5.893799782
1.68301E+18,12.74948242,-0.713400006,0.152999997,-3.786599874,,,1.252799988,-0.564899981,9.709799767,,,636,0.539399981,-0.411899984,5.923199892
1.68301E+18,12.76948242,-0.595099986,0.268900007,-3.198499918,,,1.242299914,-0.582700014,9.710100174,,,637,0.647199929,-0.313800007,6.511600256
1.68301E+18,12.78948242,-0.393999994,0.501100004,-2.522099972,,,1.227599978,-0.608999968,9.710399628,,,638,0.833599985,-0.107899964,7.188299656
1.68301E+18,12.80948242,-0.271499991,0.638999999,-1.639400005,,,1.21299994,-0.638999999,9.710299492,,,639,0.941499949,0,8.070899487
1.68301E+18,12.82948242,-0.191699997,0.825100005,-1.001399994,,,1.201799989,-0.668199956,9.709699631,,,640,1.010099992,0.156900048,8.708299637
1.68301E+18,12.84948242,-0.248899996,0.886399984,-0.646999955,,,1.200099945,-0.690299988,9.708399773,,,641,0.951199949,0.196099997,9.061399817
1.68301E+18,12.86948242,-0.336699992,0.809099972,-0.468599975,,,1.209499955,-0.701200008,9.706399918,,,642,0.872799963,0.107899964,9.237799942
1.68301E+18,12.88948242,-0.050699998,0.731299996,0.317699999,,,1.217700005,-0.711699963,9.70459938,,,643,1.167000007,0.019600034,10.02229938
1.68301E+18,12.90948242,0.324799985,0.899399996,1.212499976,,,1.224599957,-0.73269999,9.702199936,,,644,1.549399942,0.166700006,10.91469991
1.68301E+18,12.92948413,0.358999997,1.008299947,2.333400011,,,1.229499936,-0.763099968,9.699199677,,,645,1.588499933,0.245199978,12.03259969
1.68301E+18,12.94948242,0.056599997,1.120700002,3.610800028,,,1.227999926,-0.797100008,9.696700096,,,646,1.284599923,0.323599994,13.30750012
1.68301E+18,12.96948413,-0.251800001,0.822399974,4.201900005,,,1.232499957,-0.822399974,9.69399929,,,647,0.980699956,0,13.8958993
1.68301E+18,12.98948242,0.237799987,-0.209199995,4.627799988,,,1.272300005,-0.810599983,9.689899445,,,648,1.510099992,-1.019799978,14.31769943
1.68301E+18,13.00948242,0.835399985,-0.685299993,5.105799675,,,1.341599941,-0.785600007,9.682600021,,,649,2.176999927,-1.470899999,14.7883997
1.68301E+18,13.02948242,0.322699994,-0.15079999,3.80369997,,,1.422799945,-0.790600002,9.670599937,,,650,1.745499939,-0.941399992,13.47429991
1.68301E+18,13.04948242,-0.718599975,-0.038399998,1.685799956,,,1.493299961,-0.7852,9.660399437,,,651,0.774699986,-0.823599998,11.34619939
1.68301E+18,13.06948242,0.141599998,-1.213199973,0.908099949,,,1.554899931,-0.747999966,9.653599739,,,652,1.696499929,-1.961199939,10.56169969
1.68301E+18,13.08948242,1.817999959,-2.267400026,1.626399994,,,1.594599962,-0.694099963,9.651100159,,,653,3.412599921,-2.961499989,11.27750015
1.68301E+18,13.10948242,2.170399904,-2.619999886,3.068300009,,,1.6049999,-0.674899995,9.650799751,,,654,3.775399804,-3.294899881,12.71909976
1.68301E+18,13.12948242,0.920599997,-2.207599878,2.751799822,,,1.579999924,-0.694999993,9.653499603,,,655,2.500599921,-2.902599871,12.40529943
1.68301E+18,13.14948242,-0.148499995,-1.929899931,1.307999969,,,1.560599923,-0.707899988,9.65569973,,,656,1.412099928,-2.637799919,10.9636997
1.68301E+18,13.16949048,-0.455499977,-1.822399974,-0.258899987,,,1.573399901,-0.707599998,9.653599739,,,657,1.117899925,-2.529999971,9.394699752
1.68301E+18,13.18948413,-1.079900026,-1.727299929,-1.655499935,,,1.609499931,-0.704599977,9.647899628,,,658,0.529599905,-2.431899905,7.992399693
1.68301E+18,13.20948242,-1.79489994,-1.768000007,-2.485999823,,,1.628199935,-0.703199983,9.644899368,,,659,-0.166700006,-2.471199989,7.158899546
1.68301E+18,13.22948413,-1.720299959,-1.624599934,-3.055399895,,,1.62229991,-0.709299982,9.645400047,,,660,-0.09800005,-2.333899915,6.590000153
1.68301E+18,13.24948242,-1.24849999,-1.389400005,-3.106400013,,,1.601499915,-0.728699982,9.647399902,,,661,0.352999926,-2.118099988,6.540999889
1.68301E+18,13.26948242,-0.7773,-1.149199963,-2.824299812,,,1.57159996,-0.762999952,9.649700165,,,662,0.79429996,-1.912199914,6.825400352
1.68301E+18,13.28948242,-0.683699965,-0.825699985,-2.630599976,,,1.536899924,-0.802100003,9.652099609,,,663,0.853199959,-1.627799988,7.021499634
1.68301E+18,13.30948242,-0.720399976,-0.626299977,-2.389199972,,,1.495100021,-0.834800005,9.655900002,,,664,0.774700046,-1.461099982,7.266700029
1.68301E+18,13.32948242,-0.613099992,-0.4366,-2.2572999,,,1.446699977,-0.857800007,9.661299706,,,665,0.833599985,-1.294400007,7.403999805
1.68301E+18,13.34948242,-0.305700004,-0.4111,-2.036599874,,,1.404099941,-0.87349999,9.666199684,,,666,1.098399937,-1.28459999,7.62959981
1.68301E+18,13.36948242,0.059799999,-0.281199992,-2.16899991,,,1.361999989,-0.885699987,9.671099663,,,667,1.421799988,-1.166899979,7.502099752
1.68301E+18,13.38948242,0.453299999,0.0801,-1.917899966,,,1.32159996,-0.903899968,9.675000191,,,668,1.77489996,-0.823799968,7.757100224
1.68301E+18,13.40948242,0.672499955,0.537499964,-1.068400025,,,1.269099951,-0.939599991,9.678599358,,,669,1.941599905,-0.402100027,8.610199332
1.68301E+18,13.42948242,0.612999976,0.894400001,-0.267399997,,,1.210899949,-0.98269999,9.681799889,,,670,1.823899925,-0.08829999,9.414399892
1.68301E+18,13.44948242,0.550899982,1.190699935,0.563499987,,,1.155399919,-1.023999929,9.684299469,,,671,1.706299901,0.166700006,10.24779946
1.68301E+18,13.46948242,0.669200003,1.130699992,1.817099929,,,1.105700016,-1.062099934,9.68599987,,,672,1.774900019,0.068600059,11.5030998
1.68301E+18,13.48948242,0.857899964,1.045499921,3.227099895,,,1.054299951,-1.094499946,9.688099861,,,673,1.912199914,-0.049000025,12.91519976
1.68301E+18,13.50948242,0.827999949,0.972499967,3.577899933,,,1.005699992,-1.119599938,9.690400124,,,674,1.833699942,-0.147099972,13.26830006
1.68301E+18,13.52948242,0.738900006,0.963,2.428799868,,,0.977199972,-1.129799962,9.692199707,,,675,1.716099977,-0.166799963,12.12099957
1.68301E+18,13.54948242,0.9375,0.763099968,1.770999908,,,0.974599957,-1.12590003,9.692899704,,,676,1.912099957,-0.362800062,11.46389961
1.68301E+18,13.56948242,0.930599988,0.808099985,2.90899992,,,0.971699953,-1.131799936,9.692500114,,,677,1.902299941,-0.323699951,12.60150003
1.68301E+18,13.58948242,0.255600005,1.174399972,3.517999887,,,0.930899978,-1.174399972,9.691399574,,,678,1.186499983,0,13.20939946
1.68301E+18,13.60948242,-0.359699994,1.25150001,2.360399961,,,0.889199972,-1.202499986,9.6918993,,,679,0.529499978,0.049000025,12.05229926
1.68301E+18,13.62948242,0.575899959,0.707699955,1.23939991,,,0.875400007,-1.188300014,9.694899559,,,680,1.451299965,-0.480600059,10.93429947
1.68301E+18,13.64948242,1.725099921,0.2183,1.500299931,,,0.883300006,-1.149999976,9.698800087,,,681,2.608399928,-0.931699976,11.19910002
1.68301E+18,13.66948242,1.450599909,-0.0143,2.527799845,,,0.893099964,-1.12319994,9.701000214,,,682,2.343699872,-1.13749994,12.22880006
1.68301E+18,13.68948242,-0.261799991,-0.313799977,2.779500008,,,0.889499962,-1.098199964,9.704199791,,,683,0.627699971,-1.411999941,12.4836998
1.68301E+18,13.70948242,-1.427099943,-0.870700002,2.046499968,,,0.877900004,-1.041499972,9.711500168,,,684,-0.549199939,-1.912199974,11.75800014
1.68301E+18,13.72948242,-1.006099939,-1.455699921,0.9199,,,0.888399959,-0.946799994,9.720299721,,,685,-0.117699981,-2.402499914,10.64019972
1.68301E+18,13.74948242,-0.287099987,-1.807099938,-0.694700003,,,0.924499989,-0.840599954,9.726699829,,,686,0.637400001,-2.647699893,9.031999826
1.68301E+18,13.76948242,0.228199989,-1.757499933,-2.169399977,,,0.968099952,-0.743099988,9.730400085,,,687,1.19629994,-2.500599921,7.561000109
1.68301E+18,13.78948242,0.502299964,-1.406799912,-3.034600019,,,0.997999966,-0.672100008,9.732500076,,,688,1.500299931,-2.07889992,6.697900057
1.68301E+18,13.80948242,0.340399981,-0.8398,-3.241699934,,,1.012799978,-0.631099999,9.733699799,,,689,1.353199959,-1.470899999,6.491999865
1.68301E+18,13.82948413,-0.147,-0.513899982,-3.389199972,,,1.019799948,-0.613699973,9.734099388,,,690,0.872799948,-1.127599955,6.344899416
1.68301E+18,13.8494856,-0.555099964,-0.449499995,-3.830699921,,,1.02579999,-0.599699974,9.73429966,,,691,0.470700026,-1.049199969,5.903599739
1.68301E+18,13.86948096,-0.801499963,-0.310399979,-4.06649971,,,1.02699995,-0.591699958,9.734700203,,,692,0.225499988,-0.902099937,5.668200493
1.68301E+18,13.88948096,-0.887600005,-0.0076,-3.616099834,,,1.015100002,-0.600300014,9.7354002,,,693,0.127499998,-0.607900014,6.119300365
1.68301E+18,13.90948096,-0.781799972,0.274499983,-2.901299953,,,0.987699986,-0.627499998,9.736499786,,,694,0.205900013,-0.353000015,6.835199833
1.68301E+18,13.92948096,-0.389899999,0.443800002,-2.019500017,,,0.958700001,-0.65959996,9.737299919,,,695,0.568800002,-0.215799958,7.717799902
1.68301E+18,13.94948096,0.134800002,0.600799978,-1.274500012,,,0.934099972,-0.689099967,9.737699509,,,696,1.068899974,-0.08829999,8.463199496
1.68301E+18,13.96948096,0.214000002,0.7676,-0.881899953,,,0.923399985,-0.708700001,9.737299919,,,697,1.137399986,0.058899999,8.855399966
1.68301E+18,13.98948242,-0.188199997,0.936699986,-0.694599986,,,0.923699975,-0.720999956,9.736299515,,,698,0.735499978,0.21570003,9.041699529
1.68301E+18,14.00948096,-0.493900001,0.909699976,-0.468699992,,,0.925399959,-0.72329998,9.736000061,,,699,0.431499958,0.186399996,9.267300069
1.68301E+18,14.02948096,-0.150299996,0.987199962,0.246999994,,,0.924999952,-0.722499967,9.736100197,,,700,0.774699956,0.264699996,9.983100191
1.68301E+18,14.04948096,0.141499996,1.064399958,1.404099941,,,0.917499959,-0.73089999,9.736199379,,,701,1.058999956,0.333499968,11.14029932
1.68301E+18,14.06948242,0.398099989,1.383000016,2.727999926,,,0.906099975,-0.745599985,9.736100197,,,702,1.304199964,0.637400031,12.46410012
1.68301E+18,14.08948242,0.34919998,1.351999998,3.336699963,,,0.905900002,-0.753799975,9.735499382,,,703,1.255099982,0.598200023,13.07219934
1.68301E+18,14.10948242,0.381699979,0.711299956,2.807999849,,,0.942099988,-0.721099973,9.734600067,,,704,1.323799968,-0.009800017,12.54259992
1.68301E+18,14.12948242,1.095299959,-0.486799985,3.61439991,,,1.013000011,-0.650699973,9.73239994,,,705,2.108299971,-1.137499958,13.34679985
1.68301E+18,14.14948242,1.420799971,-0.617299974,5.430299759,,,1.060099959,-0.59859997,9.730699539,,,706,2.48089993,-1.215899944,15.1609993
1.68301E+18,14.16948242,0.881599963,-0.102199994,4.393099785,,,1.08949995,-0.584199965,9.72840023,,,707,1.971099913,-0.686399959,14.12150002
1.68301E+18,14.18948242,0.662199974,-0.3213,1.837700009,,,1.142099977,-0.551400006,9.724199295,,,708,1.804299951,-0.872700006,11.5618993
1.68301E+18,14.20948242,1.541499972,-1.559999943,1.772799969,,,1.204299927,-0.479699999,9.720499992,,,709,2.745799899,-2.039699942,11.49329996
1.68301E+18,14.22948242,1.968899965,-2.310899973,3.762300014,,,1.218099952,-0.415199995,9.72179985,,,710,3.186999917,-2.726099968,13.48409986
1.68301E+18,14.24948242,1.131500006,-2.267799854,5.0218997,,,1.182699919,-0.389699996,9.727199554,,,711,2.314199924,-2.65749985,14.74909925
1.68301E+18,14.26948242,0.226799995,-2.245199919,3.359499931,,,1.146099925,-0.373099983,9.732199669,,,712,1.37289992,-2.618299901,13.0916996
1.68301E+18,14.28948413,0.258899987,-2.241600037,0.152799994,,,1.162999988,-0.317799985,9.732199669,,,713,1.421899974,-2.559400022,9.884999663
1.68301E+18,14.3094856,0.388300002,-2.362699986,-2.360999823,,,1.229699969,-0.255600005,9.725799561,,,714,1.617999971,-2.618299991,7.364799738
1.68301E+18,14.32948413,-0.448699981,-2.288599968,-3.843299866,,,1.30189991,-0.211999997,9.717499733,,,715,0.853199929,-2.500599965,5.874199867
1.68301E+18,14.34948242,-1.73879993,-2.129799843,-4.016600132,,,1.326900005,-0.204099998,9.714300156,,,716,-0.411899924,-2.333899841,5.697700024
1.68301E+18,14.36948242,-2.286000013,-1.592399955,-3.540999889,,,1.28579998,-0.231600001,9.719200134,,,717,-1.000200033,-1.823999956,6.178200245
1.68301E+18,14.38948242,-1.929799914,-0.963999987,-3.008299828,,,1.223799944,-0.281399995,9.725899696,,,718,-0.70599997,-1.245399982,6.717599869
1.68301E+18,14.40948242,-0.987199962,-0.647499979,-2.832799911,,,1.202899933,-0.333000004,9.726799965,,,719,0.215699971,-0.980499983,6.894000053
1.68301E+18,14.42948242,-0.171299994,-0.447899997,-2.946699858,,,1.220700026,-0.375799984,9.723099709,,,720,1.049400032,-0.823699981,6.776399851
1.68301E+18,14.44948242,0.087799996,-0.437099993,-2.972899914,,,1.235999942,-0.406199992,9.719900131,,,721,1.323799938,-0.843299985,6.747000217
1.68301E+18,14.46948242,-0.169599995,-0.369800001,-2.55099988,,,1.228799939,-0.434199989,9.719599724,,,722,1.059199944,-0.80399999,7.168599844
1.68301E+18,14.48948242,-0.498599976,-0.198200002,-1.591300011,,,1.204699993,-0.468599975,9.720999718,,,723,0.706100017,-0.666799977,8.129699707
1.68301E+18,14.50948242,-0.432199985,0.0669,-0.866999984,,,1.17750001,-0.50819999,9.722399712,,,724,0.745300025,-0.44129999,8.855399728
1.68301E+18,14.52948242,-0.0999,0.305599988,-0.769299984,,,1.159099936,-0.540899992,9.722799301,,,725,1.059199937,-0.235300004,8.953499317
1.68301E+18,14.54948413,0.26699999,0.447599977,-0.789200008,,,1.144999981,-0.565299988,9.723099709,,,726,1.411999971,-0.117700011,8.933899701
1.68301E+18,14.56948413,0.694000006,0.657899976,-0.162,,,1.129899979,-0.58919996,9.723400116,,,727,1.823899984,0.068700016,9.561400115
1.68301E+18,14.58948242,0.87379998,0.851300001,1.621299982,,,1.097199917,-0.625800014,9.724899292,,,728,1.970999897,0.225499988,11.34619927
1.68301E+18,14.60948242,0.988099992,1.055400014,3.492499828,,,1.051499963,-0.672899961,9.726799965,,,729,2.039599955,0.382500052,13.21929979
1.68301E+18,14.62948242,0.840699971,1.055699944,3.88139987,,,0.992999971,-0.712499976,9.730099678,,,730,1.833699942,0.343199968,13.61149955
1.68301E+18,14.64948242,0.937299967,0.904299974,2.398200035,,,0.96509999,-0.717999995,9.732500076,,,731,1.902399957,0.18629998,12.13070011
1.68301E+18,14.66948242,1.06069994,0.695800006,1.701699972,,,0.978999972,-0.695800006,9.73279953,,,732,2.039699912,0,11.4344995
1.68301E+18,14.68948242,0.539699972,0.415899992,3.652299881,,,0.98029995,-0.680700004,9.733699799,,,733,1.519999921,-0.264800012,13.38599968
1.68301E+18,14.70948242,-0.254799992,0.536799967,5.118499756,,,0.921599984,-0.693799973,9.738499641,,,734,0.666799992,-0.157000005,14.8569994
1.68301E+18,14.72948242,-0.628799975,0.522499979,4.150099754,,,0.844599962,-0.689300001,9.745800018,,,735,0.215799987,-0.166800022,13.89589977
1.68301E+18,14.74948242,0.597799957,0.304800004,0.995499969,,,0.814199984,-0.628399968,9.75249958,,,736,1.411999941,-0.323599964,10.74799955
1.68301E+18,14.76948242,2.012500048,-0.395799994,-0.770799994,,,0.870599985,-0.525900006,9.753699303,,,737,2.883100033,-0.921700001,8.982899308
1.68301E+18,14.7894856,2.075700045,-1.211899996,0.062799998,,,0.924999952,-0.425699979,9.753600121,,,738,3.000699997,-1.637599975,9.816400118
1.68301E+18,14.80948242,0.558499992,-1.353899956,1.805499911,,,0.922199965,-0.362100005,9.756400108,,,739,1.480699956,-1.715999961,11.56190002
1.68301E+18,14.82948242,-1.128000021,-1.331699967,2.418400049,,,0.882799983,-0.325499982,9.761400223,,,740,-0.245200038,-1.657199949,12.17980027
1.68301E+18,14.84948242,-1.532099962,-1.533599973,1.413999915,,,0.855399966,-0.270700008,9.765500069,,,741,-0.676699996,-1.80429998,11.17949998
1.68301E+18,14.86948242,-0.373599976,-1.65079999,-0.271999985,,,0.883599997,-0.192699999,9.764800072,,,742,0.51000002,-1.843499988,9.492800087
1.68301E+18,14.88948242,0.302100003,-1.585199952,-2.014099836,,,0.933499992,-0.121099994,9.761300087,,,743,1.235599995,-1.706299946,7.747200251
1.68301E+18,14.90948242,0.275999993,-1.359699965,-2.816200018,,,0.959599972,-0.071899995,9.759299278,,,744,1.235599965,-1.43159996,6.94309926
1.68301E+18,14.92948242,-0.173099995,-0.906299949,-3.140100002,,,0.957699955,-0.0546,9.759599686,,,745,0.78459996,-0.960899949,6.619499683
1.68301E+18,14.94948242,-0.621800005,-0.426599979,-3.07159996,,,0.955199957,-0.063699998,9.759799957,,,746,0.333399951,-0.490299977,6.688199997
1.68301E+18,14.96948242,-0.658800006,-0.099199995,-2.913800001,,,0.962799966,-0.087099999,9.758799553,,,747,0.30399996,-0.186299995,6.844999552
1.68301E+18,14.98948242,-0.625199974,0.095199995,-2.941399813,,,0.978299975,-0.114799999,9.756999969,,,748,0.353100002,-0.019600004,6.815600157
1.68301E+18,15.00948242,-0.733599961,0.20009999,-2.891000032,,,0.988599956,-0.141199991,9.755599976,,,749,0.254999995,0.058899999,6.864599943
1.68301E+18,15.02948242,-0.755699992,0.316799998,-2.596099854,,,0.991099954,-0.169699997,9.754899979,,,750,0.235399961,0.147100002,7.158800125
1.68301E+18,15.04948242,-0.583299994,0.517799973,-2.027199984,,,0.985399961,-0.203999996,9.754799843,,,751,0.402099967,0.313799977,7.727599859
1.68301E+18,15.06948242,-0.512300014,0.731599987,-1.575500011,,,0.98299998,-0.241299987,9.754199982,,,752,0.470699966,0.4903,8.17869997
1.68301E+18,15.08948242,-0.689300001,0.881099999,-1.280399919,,,0.983500004,-0.273099989,9.753299713,,,753,0.294200003,0.60800001,8.472899795
1.68301E+18,15.10948242,-0.985799968,1.039999962,-1.171599984,,,0.985799968,-0.294699997,9.75249958,,,754,0,0.745299965,8.580899596
1.68301E+18,15.12948242,-1.037099957,1.113499999,-1.111099958,,,0.99789995,-0.309300005,9.750800133,,,755,-0.039200008,0.804199994,8.639700174
1.68301E+18,15.14948242,-0.601799965,1.169999957,-0.442399979,,,1.013599992,-0.316799998,9.74889946,,,756,0.411800027,0.853199959,9.306499481
1.68301E+18,15.16948242,-0.118000001,1.277599931,0.568599999,,,1.020200014,-0.326299995,9.747900009,,,757,0.902200013,0.951299936,10.31650001
1.68301E+18,15.18948242,0.252700001,1.437600017,1.598899961,,,1.021999955,-0.33919999,9.747300148,,,758,1.274699956,1.098400027,11.34620011
1.68301E+18,15.20948242,0.449799985,1.417599916,2.589599848,,,1.021099925,-0.348699987,9.747099876,,,759,1.47089991,1.06889993,12.33669972
1.68301E+18,15.22948242,0.670300007,1.166399956,3.238199949,,,1.035899997,-0.342599988,9.745699883,,,760,1.706200004,0.823799968,12.98389983
1.68301E+18,15.24948242,0.855499983,0.480299979,3.44749999,,,1.076300025,-0.313499987,9.742300034,,,761,1.931800008,0.166799992,13.18980002
1.68301E+18,15.26948242,1.075500011,-0.164499998,4.717400074,,,1.130900025,-0.266900003,9.737500191,,,762,2.206400037,-0.431400001,14.45490026
1.68301E+18,15.28948242,0.953999996,-0.140599996,5.918200016,,,1.174000025,-0.241799995,9.733099937,,,763,2.128000021,-0.382399991,15.65129995
1.68301E+18,15.3094856,0.2403,0.122299999,4.825399876,,,1.220799923,-0.230199993,9.727600098,,,764,1.461099923,-0.107899994,14.55299997
1.68301E+18,15.3294856,-0.103199996,0.064099997,1.675699949,,,1.289799929,-0.191599995,9.719499588,,,765,1.186599933,-0.127499998,11.39519954
1.68301E+18,15.34948242,0.382099986,-1.087100029,-0.135199994,,,1.392799973,-0.119099997,9.706500053,,,766,1.77489996,-1.206200026,9.57130006
1.68301E+18,15.36948242,0.932699978,-1.923999906,0.875799954,,,1.469900012,-0.046999998,9.695699692,,,767,2.40259999,-1.970999904,10.57149965
1.68301E+18,15.38948242,0.559499979,-1.730699897,3.335799932,,,1.460600019,-0.034399997,9.697199821,,,768,2.020099998,-1.765099894,13.03299975
1.68301E+18,15.40948242,-0.394499987,-1.285099983,3.669499874,,,1.394799948,-0.0583,9.706699371,,,769,1.00029996,-1.343399983,13.37619925
1.68301E+18,15.42948242,-0.262999982,-1.471199989,1.525399923,,,1.351499915,-0.048699997,9.712900162,,,770,1.088499933,-1.519899987,11.23830009
1.68301E+18,15.44948242,0.579599977,-1.824599981,-1.225999951,,,1.381600022,0.0006,9.708799362,,,771,1.961199999,-1.823999981,8.482799411
1.68301E+18,15.46948242,0.620000005,-1.984299898,-3.177399874,,,1.449100018,0.042599998,9.698800087,,,772,2.069100022,-1.9416999,6.521400213
1.68301E+18,15.4894856,-0.607299984,-2.140599966,-3.898299932,,,1.480099916,0.0616,9.694099426,,,773,0.872799933,-2.078999966,5.795799494
1.68301E+18,15.50948242,-1.845999956,-2.043799877,-3.765100002,,,1.453699946,0.053099997,9.69810009,,,774,-0.39230001,-1.99069988,5.933000088
1.68301E+18,15.52948242,-2.090299845,-1.608099937,-3.31159997,,,1.403800011,0.019399999,9.705599785,,,775,-0.686499834,-1.588699939,6.393999815
1.68301E+18,15.54948242,-1.566100001,-1.054399967,-2.884899855,,,1.370000005,-0.0341,9.710399628,,,776,-0.196099997,-1.088499967,6.825499773
1.68301E+18,15.56948242,-1.026299953,-0.612199962,-2.74029994,,,1.349900007,-0.093800001,9.712800026,,,777,0.323600054,-0.705999963,6.972500086
1.68301E+18,15.58948242,-0.60799998,-0.251199991,-2.664700031,,,1.323899984,-0.15079999,9.715600014,,,778,0.715900004,-0.40199998,7.050899982
1.68301E+18,15.60948242,-0.36469999,-0.0006,-2.139099836,,,1.286499977,-0.205200002,9.71969986,,,779,0.921799988,-0.205800002,7.580600023
1.68301E+18,15.62948242,-0.151799992,0.148000002,-1.52609992,,,1.24029994,-0.255899996,9.724499702,,,780,1.088499948,-0.107899994,8.198399782
1.68301E+18,15.64948242,-0.036800001,0.241999999,-1.108899951,,,1.194000006,-0.300799996,9.729000092,,,781,1.157200005,-0.058799997,8.620100141
1.68301E+18,15.66948242,0.256699979,0.369399995,-0.896599948,,,1.155300021,-0.339899987,9.73239994,,,782,1.412,0.029500008,8.835799992
1.68301E+18,15.68948242,0.472599983,0.630499959,-0.085499994,,,1.115999937,-0.385299981,9.735300064,,,783,1.58859992,0.245199978,9.64980007
1.68301E+18,15.70948242,0.6699,0.720200002,0.951499999,,,1.075500011,-0.435799986,9.737699509,,,784,1.745400012,0.284400016,10.68919951
1.68301E+18,15.72948242,0.998699963,0.757399976,2.037400007,,,1.031099916,-0.482799977,9.740300179,,,785,2.029799879,0.274599999,11.77770019
1.68301E+18,15.74948242,1.259299994,0.809399962,2.917599916,,,0.986299992,-0.524999976,9.742699623,,,786,2.245599985,0.284399986,12.66029954
1.68301E+18,15.76948242,1.222899914,0.556100011,3.45449996,,,0.944299996,-0.556100011,9.745200157,,,787,2.16719991,0,13.19970012
1.68301E+18,15.78948242,0.999799967,0.336400002,2.609899998,,,0.922199965,-0.571799994,9.746399879,,,788,1.921999931,-0.235399991,12.35629988
1.68301E+18,15.80948242,0.967999995,-0.158299997,2.670199871,,,0.934399962,-0.577099979,9.74489975,,,789,1.902399957,-0.735399976,12.41509962
1.68301E+18,15.82948242,0.586099982,-0.209899992,4.395899773,,,0.914199948,-0.603899956,9.745200157,,,790,1.500299931,-0.813799948,14.14109993
1.68301E+18,15.84948242,-0.260499984,0.32189998,4.443900108,,,0.858699977,-0.665199995,9.746299744,,,791,0.598199993,-0.343300015,14.19019985
1.68301E+18,15.86948242,-0.506999969,0.71359998,2.784399986,,,0.801199973,-0.703799963,9.748399734,,,792,0.294200003,0.009800017,12.53279972
1.68301E+18,15.88948242,0.815999985,0.58859998,0.704099953,,,0.792199969,-0.696399987,9.749699593,,,793,1.608199954,-0.107800007,10.45379955
1.68301E+18,15.90948242,2.137399912,0.0296,0.380599976,,,0.833999991,-0.647399962,9.749599457,,,794,2.971399903,-0.617799962,10.13019943
1.68301E+18,15.92948413,2.094099998,-0.302699983,1.802399993,,,0.867399991,-0.599399984,9.749799728,,,795,2.961499989,-0.902099967,11.55219972
1.68301E+18,15.94948413,0.108499996,-0.54460001,2.477299929,,,0.872099996,-0.563499987,9.75150013,,,796,0.980599992,-1.108099997,12.22880006
1.68301E+18,15.96948242,-1.814899921,-0.914099991,1.550799966,,,0.853799999,-0.507799983,9.756099701,,,797,-0.961099923,-1.421899974,11.30689967
1.68301E+18,15.98948242,-1.863699913,-1.546299934,-0.237399995,,,0.863399982,-0.414899975,9.759699821,,,798,-1.000299931,-1.961199909,9.522299826
1.68301E+18,16.00948242,-0.861799955,-1.738399982,-1.981699944,,,0.920599997,-0.311100006,9.758299828,,,799,0.058800042,-2.049499989,7.776599884
1.68301E+18,16.02948242,-0.469499975,-1.599499941,-3.077399969,,,0.969699979,-0.234299988,9.755700111,,,800,0.500200003,-1.833799928,6.678300142
1.68301E+18,16.04948242,-0.504899979,-1.212299943,-3.411199808,,,0.975600004,-0.189999998,9.756099701,,,801,0.470700026,-1.402299941,6.344899893
1.68301E+18,16.06948242,-0.513000011,-0.75849998,-3.423399925,,,0.954299986,-0.173099995,9.758500099,,,802,0.441299975,-0.931599975,6.335100174
1.68301E+18,16.08948242,-0.32189998,-0.396499991,-3.365999937,,,0.939699948,-0.172199994,9.759900093,,,803,0.617799968,-0.568699986,6.393900156
1.68301E+18,16.10948413,-0.247999996,-0.181899995,-3.121199846,,,0.934499979,-0.180799991,9.760299683,,,804,0.686499983,-0.362699986,6.639099836
1.68301E+18,16.12948413,-0.414599985,-0.062600002,-2.984599829,,,0.924499989,-0.192299992,9.76099968,,,805,0.509900004,-0.254899994,6.776399851
1.68301E+18,16.14948242,-0.405499995,0.116699994,-2.691900015,,,0.905699968,-0.204999998,9.762499809,,,806,0.500199974,-0.088300005,7.070599794
1.68301E+18,16.16948242,-0.163299993,0.372199982,-2.213399887,,,0.879199982,-0.225099996,9.764499664,,,807,0.715899989,0.147099987,7.551099777
1.68301E+18,16.18948242,-0.063599996,0.613099992,-1.724299908,,,0.857899964,-0.25029999,9.765799522,,,808,0.794299968,0.362800002,8.041499615
1.68301E+18,16.20948242,-0.0407,0.694299996,-1.136500001,,,0.844799995,-0.272699982,9.766300201,,,809,0.804099996,0.421600014,8.6298002
1.68301E+18,16.22948242,-0.064800002,0.790299952,-0.88229996,,,0.82979995,-0.290199995,9.76709938,,,810,0.764999948,0.500099957,8.884799421
1.68301E+18,16.24948242,-0.14729999,0.879399955,-0.774599969,,,0.824000001,-0.300799996,9.767299652,,,811,0.676700011,0.57859996,8.992699683
1.68301E+18,16.26948242,0.057399999,0.93719995,-0.303499997,,,0.825100005,-0.309599996,9.766900063,,,812,0.882500004,0.627599955,9.463400066
1.68301E+18,16.28948242,0.2579,0.887899995,0.432699978,,,0.830599964,-0.319199979,9.76609993,,,813,1.088499963,0.568700016,10.19879991
1.68301E+18,16.30948242,0.321199983,0.862800002,1.110299945,,,0.835900009,-0.333199978,9.765199661,,,814,1.157099992,0.529600024,10.87549961
1.68301E+18,16.32948242,0.503399968,1.087899923,2.160599947,,,0.84009999,-0.352400005,9.764200211,,,815,1.343499959,0.735499918,11.92480016
1.68301E+18,16.34948242,0.494800001,1.299000025,3.04489994,,,0.84859997,-0.377099991,9.762499809,,,816,1.343399972,0.921900034,12.80739975
1.68301E+18,16.36948242,0.358799994,1.059199929,3.263299942,,,0.876800001,-0.38259998,9.759799957,,,817,1.235599995,0.67659995,13.0230999
1.68301E+18,16.38948242,0.856099963,0.327099979,3.189599991,,,0.938499987,-0.3565,9.755099297,,,818,1.79459995,-0.029400021,12.94469929
1.68301E+18,16.40948242,1.19509995,-0.138699993,3.628199816,,,1.021099925,-0.3222,9.748000145,,,819,2.216199875,-0.460899994,13.37619996
1.68301E+18,16.42948242,0.4824,0.0296,3.047699928,,,1.096300006,-0.313999981,9.740099907,,,820,1.578700006,-0.284399981,12.78779984
1.68301E+18,16.44948242,-0.201999992,0.139300004,2.133699894,,,1.163100004,-0.315799981,9.732299805,,,821,0.961100012,-0.176499978,11.8659997
1.68301E+18,16.46948242,0.124599993,-0.405200005,1.699099898,,,1.218799949,-0.310599983,9.725599289,,,822,1.343399942,-0.715799987,11.42469919
1.68301E+18,16.48948242,0.593299985,-1.150300026,2.7026999,,,1.250199914,-0.291199982,9.72219944,,,823,1.843499899,-1.441500008,12.42489934
1.68301E+18,16.50948242,0.50940001,-1.511500001,4.378799915,,,1.245899916,-0.282999992,9.722999573,,,824,1.755299926,-1.794499993,14.10179949
1.68301E+18,16.52948242,0.044299997,-1.639599919,4.424699783,,,1.220700026,-0.282399982,9.726200104,,,825,1.265000023,-1.921999902,14.15089989
1.68301E+18,16.54948242,0.0669,-1.772499919,2.26609993,,,1.217599988,-0.257400006,9.72729969,,,826,1.284499988,-2.029899925,11.99339962
1.68301E+18,16.56948242,0.321799994,-2.044499874,-0.250400007,,,1.256999969,-0.201099992,9.723599434,,,827,1.578799963,-2.245599866,9.473199427
1.68301E+18,16.58948242,0.059299998,-2.296599865,-2.761600018,,,1.333199978,-0.145099998,9.714499474,,,828,1.392499976,-2.441699862,6.952899456
1.68301E+18,16.60948242,-0.972599983,-2.217799902,-4.154399872,,,1.404099941,-0.106199995,9.704999924,,,829,0.431499958,-2.323999897,5.550600052
1.68301E+18,16.62948242,-2.09800005,-1.799899936,-3.975299835,,,1.421299934,-0.112299994,9.702400208,,,830,-0.676700115,-1.912199929,5.727100372
1.68301E+18,16.64948242,-2.572700024,-1.125199914,-3.470000029,,,1.386099935,-0.149599999,9.706999779,,,831,-1.186600089,-1.274799913,6.23699975
1.68301E+18,16.6694856,-2.019500017,-0.493799984,-2.846099854,,,1.352599978,-0.202399999,9.710700035,,,832,-0.666900039,-0.696199983,6.864600182
1.68301E+18,16.68948413,-1.044399977,-0.0004,-2.513399839,,,1.33859992,-0.254500002,9.711500168,,,833,0.294199944,-0.254900002,7.198100328
1.68301E+18,16.70948242,-0.378800005,0.169200003,-2.386199951,,,1.329999924,-0.286899984,9.711699486,,,834,0.951199919,-0.117699981,7.325499535
1.68301E+18,16.72948413,-0.0713,0.1558,-2.112900019,,,1.316799998,-0.302899987,9.71309948,,,835,1.245499998,-0.147099987,7.600199461
1.68301E+18,16.74948242,0.158500001,0.164099991,-1.683099985,,,1.302600026,-0.311199993,9.714699745,,,836,1.461100027,-0.147100002,8.03159976
1.68301E+18,16.76948242,0.291999996,0.277199984,-1.537899971,,,1.286800027,-0.316399992,9.7166996,,,837,1.578800023,-0.039200008,8.178799629
1.68301E+18,16.78948242,0.332899988,0.468099982,-1.27579999,,,1.265499949,-0.32099998,9.719299316,,,838,1.598399937,0.147100002,8.443499327
1.68301E+18,16.80948242,0.394799978,0.635599971,-0.661799967,,,1.232999921,-0.331599981,9.723099709,,,839,1.627799898,0.30399999,9.061299741
1.68301E+18,16.82948242,0.456199974,0.785399973,0.323799998,,,1.191200018,-0.344099998,9.727899551,,,840,1.647399992,0.441299975,10.05169955
1.68301E+18,16.84948242,0.694499969,0.874199986,1.818399906,,,1.139299989,-0.354499996,9.733699799,,,841,1.833799958,0.519699991,11.5520997
1.68301E+18,16.86948242,0.862999976,0.764999986,3.459299803,,,1.078699946,-0.363000005,9.740300179,,,842,1.941699922,0.40199998,13.19959998
1.68301E+18,16.88948242,1.01849997,0.433099985,4.051399708,,,1.021199942,-0.364499986,9.746500015,,,843,2.039699912,0.068599999,13.79789972
1.68301E+18,16.90948242,1.236199975,0.259900004,2.840999842,,,0.989799976,-0.33829999,9.750599861,,,844,2.225999951,-0.078399986,12.5915997
1.68301E+18,16.92948242,1.242599964,-0.158699989,1.684700012,,,1.012899995,-0.292299986,9.749799728,,,845,2.255499959,-0.450999975,11.43449974
1.68301E+18,16.94948242,0.803200006,-0.653999984,2.383899927,,,1.050099969,-0.2579,9.746799469,,,846,1.853299975,-0.911899984,12.1306994
1.68301E+18,16.96948242,-0.156199992,-0.473199993,3.244799852,,,1.028999925,-0.262199998,9.74889946,,,847,0.872799933,-0.735399991,12.99369931
1.68301E+18,16.98948413,-1.261199951,0.084100001,2.455999851,,,0.976799965,-0.299799979,9.753199577,,,848,-0.284399986,-0.215699978,12.20919943
1.68301E+18,17.00948242,-1.409099936,0.1171,0.57949996,,,0.938299954,-0.313199997,9.756599426,,,849,-0.470799983,-0.196099997,10.33609939
1.68301E+18,17.02948242,0.236299992,-0.323199987,-0.281800002,,,0.959999979,-0.29459998,9.755000114,,,850,1.19629997,-0.617799968,9.473200113
1.68301E+18,17.04948413,1.965599895,-0.595799983,0.62409997,,,1.005699992,-0.267100006,9.751199722,,,851,2.971299887,-0.862899989,10.37529969
1.68301E+18,17.06948413,2.080199957,-0.822799981,2.449399948,,,1.018599987,-0.265599996,9.749899864,,,852,3.098799944,-1.088399976,12.19929981
1.68301E+18,17.08948242,0.279799998,-0.805599988,2.426599979,,,0.985199988,-0.273000002,9.753199577,,,853,1.264999986,-1.078599989,12.17979956
