time,seconds_elapsed,z,y,x
1683006722604484000,0.043484130859375,-0.4799000024795532,-0.32339999079704285,-1.013700008392334
1683006722624487200,0.063487060546875,-0.4799000024795532,-0.32339999079704285,-1.013700008392334
1683006722644482600,0.083482666015625,0.01979999989271164,0.001500000013038516,0.06809999793767929
1683006722664482600,0.103482666015625,0.08540000021457672,-0.203699991106987,0.07859999686479568
1683006722684482600,0.123482666015625,-0.018400000408291817,-0.4090999960899353,0.14549998939037323
1683006722704482600,0.143482666015625,0.03319999948143959,-0.4077000021934509,0.0284000001847744
1683006722724482600,0.163482666015625,-0.24309998750686646,-0.3863999843597412,0.37619999051094055
1683006722744482600,0.183482666015625,-0.8280999660491943,-0.6991999745368958,0.5475000143051147
1683006722764482600,0.203482666015625,-1.0069999694824219,-0.837399959564209,0.3294999897480011
1683006722784482600,0.223482666015625,-0.20679999887943268,-0.41990000009536743,0.08370000123977661
1683006722804482600,0.243482666015625,0.1054999977350235,0.20549999177455902,0.30809998512268066
1683006722824482600,0.263482666015625,0.037299998104572296,0.6083999872207642,0.2466999888420105
1683006722844482600,0.283482666015625,-0.45729997754096985,0.6166999936103821,0.10279999673366547
1683006722864482600,0.303482666015625,-0.06599999964237213,0.07889999449253082,-0.07660000026226044
1683006722884482600,0.323482666015625,-0.0762999951839447,0.10569999366998672,-0.4341999888420105
1683006722904482600,0.343482666015625,-0.3059999942779541,0.46480000019073486,-0.12629999220371246
1683006722924482600,0.363482666015625,-0.13759998977184296,0.4952999949455261,0.753600001335144
1683006722944482600,0.383482666015625,0.5417999625205994,-0.09559999406337738,1.0851999521255493
1683006722964482600,0.403482666015625,2.3861000537872314,-0.2378999888896942,0.20059999823570251
1683006722984482600,0.423482666015625,0.9558999538421631,-0.08969999849796295,0.7062000036239624
1683006723004482600,0.443482666015625,1.2339999675750732,-0.5981999635696411,0.9777999520301819
1683006723024482600,0.463482666015625,0.7350999712944031,-0.6782999634742737,-0.05819999799132347
1683006723044482600,0.483482666015625,0.02459999918937683,-0.20969998836517334,-0.9820999503135681
1683006723064482600,0.503482666015625,-0.11379999667406082,-0.9833999872207642,-0.9151999950408936
1683006723084482600,0.523482666015625,0.1589999943971634,-0.5475999712944031,-1.1375999450683594
1683006723104482600,0.543482666015625,-0.22019998729228973,-0.24039998650550842,-0.833299994468689
1683006723124482600,0.563482666015625,-0.412200003862381,0.20160000026226044,-1.0677000284194946
1683006723144482600,0.583482666015625,-0.3059999942779541,0.3643999993801117,-1.198699951171875
1683006723164482600,0.603482666015625,-0.11639999598264694,0.17159999907016754,-0.5961999893188477
1683006723184482600,0.623482666015625,-0.24229998886585236,-0.14970000088214874,0.11649999767541885
1683006723204482600,0.643482666015625,-0.32009997963905334,-0.24889999628067017,0.4284999966621399
1683006723224482600,0.663482666015625,-0.16659998893737793,-0.25679999589920044,0.8192999958992004
1683006723244482600,0.683482666015625,0.15449999272823334,-0.11129999905824661,1.1608999967575073
1683006723264482600,0.703482666015625,0.34630000591278076,0.10080000013113022,1.0404000282287598
1683006723284482600,0.723482666015625,0.1290999948978424,0.1467999964952469,0.7526999711990356
1683006723304482600,0.743482666015625,-0.023899998515844345,0.5173999667167664,0.7163999676704407
1683006723324482600,0.763482666015625,-0.3479999899864197,0.4185999929904938,0.1030999943614006
1683006723344482600,0.783482666015625,-0.5264999866485596,0.5273000001907349,-0.3885999917984009
1683006723364482600,0.803482666015625,-0.5655999779701233,0.5256999731063843,-0.8050000071525574
1683006723384482600,0.823482666015625,-0.4668999910354614,0.5361999869346619,-1.0508999824523926
1683006723404482600,0.843482666015625,-0.06399999558925629,0.6854000091552734,-1.0763999223709106
1683006723424482600,0.863482666015625,0.10909999907016754,0.6662999987602234,-0.8455999493598938
1683006723444482600,0.883482666015625,0.19499999284744263,0.7734999656677246,-0.3734000027179718
1683006723464482600,0.903482666015625,0.04169999808073044,0.7973999977111816,-0.0916999951004982
1683006723484482600,0.923482666015625,-0.05209999904036522,0.8696999549865723,-0.09119999408721924
1683006723504482600,0.943482666015625,0.1428000032901764,0.9299999475479126,-0.12029999494552612
1683006723524482600,0.963482666015625,0.0786999985575676,0.945099949836731,0.14169999957084656
1683006723544482600,0.983482666015625,0.16419999301433563,1.0078999996185303,0.23479999601840973
1683006723564482600,1.003482666015625,1.0127999782562256,0.9608999490737915,0.45799997448921204
1683006723584482600,1.023482666015625,0.7780999541282654,1.1146999597549438,0.5977999567985535
1683006723604482600,1.043482666015625,0.22269999980926514,0.9788999557495117,0.550599992275238
1683006723624482600,1.063482666015625,0.36409997940063477,0.7389999628067017,1.157099962234497
1683006723644482600,1.083482666015625,0.5856999754905701,0.9168999791145325,1.3285999298095703
1683006723664482600,1.103482666015625,0.4822999835014343,0.7310999631881714,2.059299945831299
1683006723684482600,1.123482666015625,0.7386999726295471,0.5313999652862549,3.2925000190734863
1683006723704482600,1.143482666015625,1.371899962425232,0.31610000133514404,4.778800010681152
1683006723724482600,1.163482666015625,1.2202999591827393,-0.17559999227523804,5.429999828338623
1683006723744482600,1.183482666015625,0.41849997639656067,0.09649999439716339,3.065199851989746
1683006723764482600,1.203482666015625,0.07050000131130219,-0.4763000011444092,1.2853000164031982
1683006723784482600,1.223482666015625,0.4830999970436096,-0.5460999608039856,0.2793999910354614
1683006723804482600,1.243482666015625,0.25360000133514404,-0.15109999477863312,-1.124899983406067
1683006723824482600,1.263482666015625,-0.447299987077713,0.12809999287128448,-2.194200038909912
1683006723844482600,1.283482666015625,-0.8211999535560608,0.094200000166893,-1.7003999948501587
1683006723864482600,1.303482666015625,-0.8641999959945679,-0.07580000162124634,-0.43379998207092285
1683006723884482600,1.323482666015625,-0.7511000037193298,-0.20589999854564667,0.6868000030517578
1683006723904482600,1.343482666015625,-0.703000009059906,-0.31869998574256897,0.9443999528884888
1683006723924482600,1.363482666015625,-0.289900004863739,-0.5328999757766724,0.4903999865055084
1683006723944482600,1.383482666015625,0.14339999854564667,-0.7515000104904175,-0.24879999458789825
1683006723964482600,1.403482666015625,0.36800000071525574,-0.8226000070571899,-0.8061999678611755
1683006723984482600,1.423482666015625,0.019700000062584877,-0.7928000092506409,-1.4326999187469482
1683006724004482600,1.443482666015625,-0.7045999765396118,-0.7888000011444092,-1.9631999731063843
1683006724024482600,1.463482666015625,-1.1518999338150024,-0.7374999523162842,-2.297600030899048
1683006724044482600,1.483482666015625,-1.0925999879837036,-0.6340999603271484,-2.201200008392334
1683006724064482600,1.503482666015625,-0.8208000063896179,-0.5284000039100647,-1.8899999856948853
1683006724084482600,1.523482666015625,-0.5252999663352966,-0.368399977684021,-1.6072999238967896
1683006724104482600,1.543482666015625,-0.3303000032901764,-0.243599995970726,-1.3241000175476074
1683006724124482600,1.563482666015625,-0.25999999046325684,-0.1809999942779541,-1.118399977684021
1683006724144482600,1.583482666015625,-0.4242999851703644,-0.18289999663829803,-1.087899923324585
1683006724164482600,1.603482666015625,-0.5234000086784363,-0.03659999743103981,-1.0666999816894531
1683006724184482600,1.623482666015625,-0.7954999804496765,0.08329999446868896,-0.8806999921798706
1683006724204482600,1.643482666015625,-0.5701999664306641,0.2506999969482422,-0.6173999905586243
1683006724224482600,1.663482666015625,-0.49149999022483826,0.40699997544288635,-0.6355999708175659
1683006724244482600,1.683482666015625,-0.5701000094413757,0.4724999964237213,-0.20260000228881836
1683006724264482600,1.703482666015625,-0.6895999908447266,0.6164000034332275,0.5051999688148499
1683006724284482600,1.723482666015625,-0.7938999533653259,0.651699960231781,1.3087999820709229
1683006724304482600,1.743482666015625,-0.8317999839782715,0.495199978351593,2.3073999881744385
1683006724324482600,1.763482666015625,-0.640999972820282,0.4165000021457672,2.66129994392395
1683006724344482600,1.783482666015625,-0.4675000011920929,0.10929999500513077,2.626999855041504
1683006724364482600,1.803482666015625,0.05849999934434891,-0.5266000032424927,2.7152998447418213
1683006724384482600,1.823482666015625,0.6273999810218811,-1.1740999221801758,3.4621999263763428
1683006724404482600,1.843482666015625,0.9301999807357788,-1.4915999174118042,4.369699954986572
1683006724424482600,1.863482666015625,0.6071000099182129,-1.2901999950408936,4.1930999755859375
1683006724444482600,1.883482666015625,0.06629999727010727,-0.8554999828338623,2.2630999088287354
1683006724464482600,1.903482666015625,-0.12119999527931213,-1.0533000230789185,-0.02449999935925007
1683006724484482600,1.923482666015625,0.271699994802475,-1.6693999767303467,-0.6628999710083008
1683006724504482600,1.943482666015625,0.7441999912261963,-2.207200050354004,0.23089998960494995
1683006724524484000,1.963484130859375,0.647599995136261,-2.060299873352051,1.1353999376296997
1683006724544482600,1.983482666015625,-0.032600000500679016,-1.6243000030517578,0.7120999693870544
1683006724564482600,2.003482666015625,-0.3837999999523163,-1.3214999437332153,-0.7346999645233154
1683006724584482600,2.023482666015625,-0.015199999324977398,-1.3280999660491943,-1.51829993724823
1683006724604482600,2.043482666015625,0.016200000420212746,-1.299399971961975,-1.8874999284744263
1683006724624482600,2.063482666015625,-0.47419998049736023,-1.180299997329712,-2.1222000122070312
1683006724644482600,2.083482666015625,-1.0713999271392822,-1.079699993133545,-2.1756999492645264
1683006724664482600,2.103482666015625,-0.9820999503135681,-0.9074999690055847,-2.2777998447418213
1683006724684482600,2.123482666015625,-0.45159998536109924,-0.6973999738693237,-2.2191998958587646
1683006724704482600,2.143482666015625,-0.20189999043941498,-0.5641999840736389,-2.2065999507904053
1683006724724482600,2.163482666015625,-0.30230000615119934,-0.5934999585151672,-1.9885998964309692
1683006724744482600,2.183482666015625,-0.4348999857902527,-0.6736999750137329,-1.361199975013733
1683006724764482600,2.203482666015625,-0.33059999346733093,-0.5049999952316284,-0.911799967288971
1683006724784482600,2.223482666015625,-0.19339999556541443,-0.26479998230934143,-0.7859999537467957
1683006724804485600,2.243485595703125,0.009800000116229057,0.03610000014305115,-0.9323999881744385
1683006724824482600,2.263482666015625,0.09339999407529831,0.43939998745918274,-0.762499988079071
1683006724844482600,2.283482666015625,0.18559999763965607,0.8483999967575073,-0.12079999595880508
1683006724864482600,2.303482666015625,0.2515999972820282,1.1279000043869019,0.8357999920845032
1683006724884482600,2.323482666015625,0.2741999924182892,1.121500015258789,2.095099925994873
1683006724904482600,2.343482666015625,0.4351999759674072,0.8896999955177307,3.3790998458862305
1683006724924482600,2.363482666015625,0.6596999764442444,0.6768999695777893,3.57069993019104
1683006724944482600,2.383482666015625,0.46320000290870667,0.4560999870300293,2.459699869155884
1683006724964482600,2.403482666015625,0.45419999957084656,0.14239999651908875,1.5719999074935913
1683006724984482600,2.423482666015625,0.42549997568130493,-0.2921999990940094,2.441999912261963
1683006725004484000,2.443484130859375,0.25929999351501465,-0.4584999978542328,3.9505999088287354
1683006725024484000,2.463484130859375,0.30399999022483826,-0.531499981880188,4.519799709320068
1683006725044484000,2.483484130859375,0.7721999883651733,-0.33709999918937683,2.9609999656677246
1683006725064484000,2.503484130859375,1.3848999738693237,-0.3536999821662903,0.5967000126838684
1683006725084482600,2.523482666015625,1.7786999940872192,-0.618399977684021,-0.41689997911453247
1683006725104482600,2.543482666015625,0.896399974822998,-1.0394999980926514,-0.2936999797821045
1683006725124482600,2.563482666015625,-0.8055999875068665,-1.3808000087738037,-0.13910000026226044
1683006725144482600,2.583482666015625,-1.7415999174118042,-1.4179999828338623,-0.1673000007867813
1683006725164482600,2.603482666015625,-1.5561000108718872,-1.3265999555587769,-0.2838999927043915
1683006725184482600,2.623482666015625,-0.5001999735832214,-1.2781999111175537,-0.8460999727249146
1683006725204484000,2.643484130859375,0.22059999406337738,-1.2424999475479126,-1.6780999898910522
1683006725224482600,2.663482666015625,0.4152999818325043,-1.2577999830245972,-2.314300060272217
1683006725244482600,2.683482666015625,0.11559999734163284,-1.2283999919891357,-2.7254998683929443
1683006725264482600,2.703482666015625,-0.19609999656677246,-1.0988999605178833,-2.9591000080108643
1683006725284484000,2.723484130859375,-0.4495999813079834,-0.8733999729156494,-2.7228000164031982
1683006725304482600,2.743482666015625,-0.7963999509811401,-0.6370999813079834,-2.0583999156951904
1683006725324482600,2.763482666015625,-1.05649995803833,-0.43299999833106995,-1.3950999975204468
1683006725344482600,2.783482666015625,-1.138800024986267,-0.15269999206066132,-0.9364999532699585
1683006725364482600,2.803482666015625,-1.0296999216079712,-0.08269999921321869,-0.526199996471405
1683006725384482600,2.823482666015625,-0.6967999935150146,0.06799999624490738,-0.6538999676704407
1683006725404482600,2.843482666015625,-0.5281000137329102,0.19759999215602875,-1.191100001335144
1683006725424485600,2.863485595703125,-0.5263000130653381,0.3123999834060669,-1.4426000118255615
1683006725444484000,2.883484130859375,-0.5853999853134155,0.3422999978065491,-1.2324999570846558
1683006725464482600,2.903482666015625,-0.7749999761581421,0.33969998359680176,-0.3955000042915344
1683006725484482600,2.923482666015625,-0.8467999696731567,0.2945999801158905,0.5069000124931335
1683006725504482600,2.943482666015625,-0.750499963760376,0.3716000020503998,1.3194999694824219
1683006725524484000,2.963484130859375,-0.6191999912261963,0.5410000085830688,1.9073998928070068
1683006725544482600,2.983482666015625,-0.6901999711990356,0.6381999850273132,2.262399911880493
1683006725564484000,3.003484130859375,-0.7964999675750732,0.41659998893737793,2.366299867630005
1683006725584484000,3.023484130859375,-0.6992999911308289,-0.3084000051021576,2.7007999420166016
1683006725604482600,3.043482666015625,-0.23729999363422394,-1.121399998664856,4.239999771118164
1683006725624482600,3.063482666015625,0.2791000008583069,-1.4500999450683594,4.823999881744385
1683006725644482600,3.083482666015625,0.47929999232292175,-1.4794999361038208,3.8023998737335205
1683006725664482600,3.103482666015625,0.606499969959259,-1.5461000204086304,1.4126999378204346
1683006725684482600,3.123482666015625,1.240299940109253,-2.3120999336242676,0.3228999972343445
1683006725704482600,3.143482666015625,2.0444998741149902,-3.006500005722046,1.8118999004364014
1683006725724482600,3.163482666015625,1.9519000053405762,-2.86329984664917,3.3245999813079834
1683006725744496600,3.18349658203125,0.8314999938011169,-2.427299976348877,2.391199827194214
1683006725764482600,3.203482666015625,-0.057099997997283936,-2.287099838256836,-0.4140999913215637
1683006725784482600,3.223482666015625,-0.13179999589920044,-2.1854000091552734,-2.577899932861328
1683006725804484000,3.243484130859375,-0.2680000066757202,-2.044100046157837,-3.2597999572753906
1683006725824485600,3.263485595703125,-0.613599956035614,-1.6899999380111694,-2.9628000259399414
1683006725844482600,3.283482666015625,-0.6572999954223633,-1.1449999809265137,-2.461599826812744
1683006725864482600,3.303482666015625,-0.6694999933242798,-0.7264999747276306,-1.902999997138977
1683006725884482600,3.323482666015625,-0.5978999733924866,-0.45170000195503235,-1.848699927330017
1683006725904482600,3.343482666015625,-0.4258999824523926,-0.287200003862381,-1.9749000072479248
1683006725924482600,3.363482666015625,-0.439300000667572,-0.20309999585151672,-1.993499994277954
1683006725944485600,3.383485595703125,-0.590999960899353,-0.15600000321865082,-1.751099944114685
1683006725964482600,3.403482666015625,-0.576200008392334,-0.05209999904036522,-1.23580002784729
1683006725984482600,3.423482666015625,-0.4400999844074249,0.05979999899864197,-0.6229999661445618
1683006726004482600,3.443482666015625,-0.3813999891281128,0.10339999943971634,-0.4713999927043915
1683006726024482600,3.463482666015625,-0.25369998812675476,0.14069999754428864,-0.7013999819755554
1683006726044484000,3.483484130859375,-0.1589999943971634,0.15129999816417694,-0.9390999674797058
1683006726064484000,3.503484130859375,-0.16349999606609344,0.179299995303154,-0.9902999997138977
1683006726084482600,3.523482666015625,-0.041600000113248825,0.17170000076293945,-0.4462999999523163
1683006726104482600,3.543482666015625,0.2701999843120575,0.2946999967098236,0.6730999946594238
1683006726124482600,3.563482666015625,0.6214999556541443,0.6294999718666077,2.0557000637054443
1683006726144482600,3.583482666015625,1.0389999151229858,0.9072999954223633,3.291800022125244
1683006726164482600,3.603482666015625,1.2035999298095703,1.022499918937683,3.1963999271392822
1683006726184482600,3.623482666015625,1.612399935722351,0.8009999990463257,2.596099853515625
1683006726204482600,3.643482666015625,1.8005999326705933,0.18549999594688416,3.313999891281128
1683006726224484000,3.663484130859375,1.4501999616622925,-0.13419999182224274,4.186699867248535
1683006726244485600,3.683485595703125,0.6604999899864197,-0.19679999351501465,3.75219988822937
1683006726264482600,3.703482666015625,0.22759999334812164,0.003000000026077032,1.8073999881744385
1683006726284482600,3.723482666015625,0.5478999614715576,0.06839999556541443,-0.4843999743461609
1683006726304484000,3.743484130859375,0.972000002861023,-0.3791999816894531,-0.6538000106811523
1683006726324482600,3.763482666015625,0.6319999694824219,-0.6930999755859375,0.6642000079154968
1683006726344482600,3.783482666015625,-0.5866999626159668,-0.8414999842643738,1.494399905204773
1683006726364482600,3.803482666015625,-1.5973999500274658,-0.9975999593734741,1.0744999647140503
1683006726384482600,3.823482666015625,-1.5424000024795532,-1.3463000059127808,0.11719999462366104
1683006726404482600,3.843482666015625,-0.7013999819755554,-1.5159000158309937,-1.0794999599456787
1683006726424482600,3.863482666015625,-0.23649999499320984,-1.6097999811172485,-2.1068999767303467
1683006726444482600,3.883482666015625,0.014299999922513962,-1.4800000190734863,-2.585599899291992
1683006726464482600,3.903482666015625,-0.14559999108314514,-1.1857999563217163,-2.418799877166748
1683006726484484000,3.923484130859375,-0.6259999871253967,-0.7455999851226807,-2.2826998233795166
1683006726504484000,3.943484130859375,-0.9749999642372131,-0.4664999842643738,-2.146899938583374
1683006726524482600,3.963482666015625,-1.027999997138977,-0.366599977016449,-1.962399959564209
1683006726544482600,3.983482666015625,-0.932699978351593,-0.23979999125003815,-1.827199935913086
1683006726564482600,4.003482666015625,-0.670799970626831,-0.11999999731779099,-1.456399917602539
1683006726584484000,4.023484130859375,-0.38269999623298645,0.033299997448921204,-1.0946999788284302
1683006726604482600,4.043482666015625,-0.0908999964594841,0.2554999887943268,-1.0052000284194946
1683006726624482600,4.063482666015625,-0.15469999611377716,0.4607999920845032,-1.1495000123977661
1683006726644482600,4.083482666015625,-0.4926999807357788,0.5099999904632568,-1.2846999168395996
1683006726664482600,4.103482666015625,-0.7192999720573425,0.49609997868537903,-1.204800009727478
1683006726684482600,4.123482666015625,-0.6204999685287476,0.5561000108718872,-0.8011999726295471
1683006726704482600,4.143482666015625,-0.3483999967575073,0.8176999688148499,-0.15109999477863312
1683006726724482600,4.163482666015625,-0.241799995303154,1.1385999917984009,0.7346999645233154
1683006726744482600,4.183482666015625,-0.23399999737739563,1.1755999326705933,1.9919999837875366
1683006726764484000,4.203484130859375,-0.2133999913930893,1.065500020980835,3.0897998809814453
1683006726784482600,4.223482666015625,-0.3398999869823456,0.9785999655723572,3.421599864959717
1683006726804482600,4.243482666015625,-0.40219998359680176,0.35339999198913574,3.5297999382019043
1683006726824482600,4.263482666015625,0.14810000360012054,-0.4966000020503998,4.364999771118164
1683006726844482600,4.283482666015625,0.6315000057220459,-0.6872000098228455,4.347700119018555
1683006726864484000,4.303484130859375,0.6017999649047852,-0.5600999593734741,3.0874998569488525
1683006726884482600,4.323482666015625,0.4368000030517578,-0.6765999794006348,1.699299931526184
1683006726904482600,4.343482666015625,0.5435999631881714,-1.4852999448776245,1.3767999410629272
1683006726924482600,4.363482666015625,1.0333999395370483,-2.3378000259399414,2.0887999534606934
1683006726944485600,4.383485595703125,1.2587000131607056,-2.609299898147583,2.1527998447418213
1683006726964482600,4.403482666015625,0.7170000076293945,-2.6180999279022217,1.0509999990463257
1683006726984482600,4.423482666015625,0.18129999935626984,-2.520900011062622,-0.5662999749183655
1683006727004482600,4.443482666015625,-0.3254999816417694,-2.2216999530792236,-2.0327000617980957
1683006727024482600,4.463482666015625,-0.8014999628067017,-2.01419997215271,-2.4981000423431396
1683006727044482600,4.483482666015625,-1.159600019454956,-1.6933999061584473,-2.2908999919891357
1683006727064484000,4.503484130859375,-1.230199933052063,-1.243499994277954,-2.3237998485565186
1683006727084482600,4.523482666015625,-0.9176999926567078,-0.9388999938964844,-2.4758999347686768
1683006727104482600,4.543482666015625,-0.4461999833583832,-0.8115999698638916,-2.585899829864502
1683006727124482600,4.563482666015625,-0.11469999700784683,-0.7208999991416931,-2.574899911880493
1683006727144482600,4.583482666015625,-0.044099997729063034,-0.7462999820709229,-2.357300043106079
1683006727164482600,4.603482666015625,0.06729999929666519,-0.6610999703407288,-1.9947999715805054
1683006727184482600,4.623482666015625,0.05269999802112579,-0.5992000102996826,-1.4984999895095825
1683006727204482600,4.643482666015625,0.17649999260902405,-0.38580000400543213,-1.0900999307632446
1683006727224482600,4.663482666015625,0.28759998083114624,-0.08159999549388885,-1.061900019645691
1683006727244482600,4.683482666015625,0.2523999810218811,0.19990000128746033,-1.1207000017166138
1683006727264482600,4.703482666015625,0.23179998993873596,0.4138000011444092,-1.0608999729156494
1683006727284482600,4.723482666015625,0.2223999947309494,0.5801999568939209,-0.4813999831676483
1683006727304482600,4.743482666015625,0.35359999537467957,0.7129999995231628,0.538100004196167
1683006727324482600,4.763482666015625,0.5026000142097473,0.7576000094413757,1.8004999160766602
1683006727344482600,4.783482666015625,0.6550999879837036,0.741599977016449,3.0220999717712402
1683006727364484000,4.803484130859375,0.7293999791145325,0.6315000057220459,3.194399833679199
1683006727384485600,4.823485595703125,0.82669997215271,0.3903999924659729,2.39739990234375
1683006727404482600,4.843482666015625,0.9749999642372131,-0.08649999648332596,2.614300012588501
1683006727424482600,4.863482666015625,0.7597000002861023,-0.5238999724388123,3.7440998554229736
1683006727444482600,4.883482666015625,0.20559999346733093,-0.5340999960899353,4.3506999015808105
1683006727464482600,4.903482666015625,-0.2157999873161316,-0.23240000009536743,3.720599889755249
1683006727484484000,4.923484130859375,-0.3675999939441681,0.27459999918937683,1.5138999223709106
1683006727504482600,4.943482666015625,-0.18699999153614044,0.5012999773025513,-0.9916999936103821
1683006727524482600,4.963482666015625,0.3262999951839447,0.10830000042915344,-1.536099910736084
1683006727544482600,4.983482666015625,0.6316999793052673,-0.45389997959136963,0.004299999680370092
1683006727564482600,5.003482666015625,-0.1459999978542328,-0.8470999598503113,1.7551000118255615
1683006727584482600,5.023482666015625,-0.9929999709129333,-1.2829999923706055,2.21589994430542
1683006727604482600,5.043482666015625,-0.8120999932289124,-1.5733999013900757,0.9304999709129333
1683006727624482600,5.063482666015625,-0.05649999901652336,-1.507099986076355,-0.6238999962806702
1683006727644482600,5.083482666015625,0.6728999614715576,-1.1744999885559082,-1.6998999118804932
1683006727664482600,5.103482666015625,0.8395999670028687,-0.943399965763092,-2.351599931716919
1683006727684484000,5.123484130859375,0.43939998745918274,-0.6855999827384949,-2.643199920654297
1683006727704482600,5.143482666015625,-0.3367999792098999,-0.45249998569488525,-2.703199863433838
1683006727724482600,5.163482666015625,-0.7407999634742737,-0.2013999968767166,-2.6461000442504883
1683006727744482600,5.183482666015625,-0.7337999939918518,0.02410000003874302,-2.6262998580932617
1683006727764482600,5.203482666015625,-0.4189999997615814,0.21319998800754547,-2.281899929046631
1683006727784482600,5.223482666015625,-0.09009999781847,0.44529998302459717,-1.8393999338150024
1683006727804485600,5.243485595703125,0.0071000000461936,0.722599983215332,-1.642799973487854
1683006727824484000,5.263484130859375,0.04580000042915344,0.8944999575614929,-1.6134999990463257
1683006727844482600,5.283482666015625,0.24799999594688416,0.9820999503135681,-1.4358999729156494
1683006727864482600,5.303482666015625,0.20399999618530273,1.06659996509552,-1.2365000247955322
1683006727884482600,5.323482666015625,-0.10579999536275864,1.1157000064849854,-0.9283999800682068
1683006727904482600,5.343482666015625,-0.1525000035762787,1.1169999837875366,-0.19939999282360077
1683006727924482600,5.363482666015625,-0.17009998857975006,1.0763999223709106,0.5485999584197998
1683006727944482600,5.383482666015625,-0.26100000739097595,1.11489999294281,1.0619999170303345
1683006727964482600,5.403482666015625,-0.3148999810218811,1.070199966430664,1.4294999837875366
1683006727984482600,5.423482666015625,-0.21369999647140503,0.9062999486923218,2.2286999225616455
1683006728004482600,5.443482666015625,-0.21729999780654907,0.7206999659538269,3.037099838256836
1683006728024482600,5.463482666015625,-0.3271999955177307,0.14190000295639038,3.6676998138427734
1683006728044485600,5.483485595703125,0.21329998970031738,-0.8175999522209167,4.640599727630615
1683006728064485600,5.503485595703125,0.7671999931335449,-1.303399920463562,5.554599761962891
1683006728084482600,5.523482666015625,0.8211999535560608,-1.0952999591827393,4.814599990844727
1683006728104482600,5.543482666015625,0.1673000007867813,-0.774399995803833,2.4861998558044434
1683006728124482600,5.563482666015625,-0.18529999256134033,-1.1505999565124512,0.22579999268054962
1683006728144482600,5.583482666015625,0.004799999762326479,-2.182800054550171,0.03280000016093254
1683006728164482600,5.603482666015625,0.5564000010490417,-2.7294998168945312,0.9819999933242798
1683006728184482600,5.623482666015625,0.26499998569488525,-2.466399908065796,1.2143999338150024
1683006728204482600,5.643482666015625,-0.5327000021934509,-1.9651999473571777,0.16939999163150787
1683006728224482600,5.663482666015625,-0.7408999800682068,-1.6339999437332153,-1.2869999408721924
1683006728244482600,5.683482666015625,-0.5210999846458435,-1.4113999605178833,-2.3559000492095947
1683006728264482600,5.703482666015625,-0.5110999941825867,-1.1722999811172485,-2.567999839782715
1683006728284484000,5.723484130859375,-0.8424999713897705,-0.9044999480247498,-2.1064000129699707
1683006728304485600,5.743485595703125,-1.0231999158859253,-0.564300000667572,-1.8549998998641968
1683006728324482600,5.763482666015625,-0.7742999792098999,-0.17249999940395355,-1.9860999584197998
1683006728344482600,5.783482666015625,-0.30059999227523804,-0.05779999867081642,-2.0269999504089355
1683006728364484000,5.803484130859375,-0.029099998995661736,-0.005399999674409628,-2.2435998916625977
1683006728384484000,5.823484130859375,0.16249999403953552,-0.10920000076293945,-2.186300039291382
1683006728404482600,5.843482666015625,0.27239999175071716,-0.03449999913573265,-1.9041999578475952
1683006728424482600,5.863482666015625,0.37279999256134033,0.23749999701976776,-1.1414999961853027
1683006728444482600,5.883482666015625,0.5390999913215637,0.5034999847412109,-0.49570000171661377
1683006728464482600,5.903482666015625,0.7475000023841858,0.7662000060081482,-0.1923999935388565
1683006728484482600,5.923482666015625,0.9156999588012695,0.8367999792098999,-0.22299998998641968
1683006728504482600,5.943482666015625,0.9884999990463257,0.9062999486923218,-0.39010000228881836
1683006728524482600,5.963482666015625,0.8872999548912048,0.7964999675750732,-0.046699997037649155
1683006728544482600,5.983482666015625,0.8752999901771545,0.6617000102996826,0.8155999779701233
1683006728564482600,6.003482666015625,1.1024999618530273,0.45619997382164,2.0695998668670654
1683006728584482600,6.023482666015625,1.1619999408721924,0.27129998803138733,2.891199827194214
1683006728604482600,6.043482666015625,0.9102999567985535,0.29339998960494995,2.4291000366210938
1683006728624482600,6.063482666015625,0.5888999700546265,0.16779999434947968,1.9702999591827393
1683006728644482600,6.083482666015625,0.46320000290870667,-0.43699997663497925,2.964399814605713
1683006728664482600,6.103482666015625,0.36169999837875366,-0.6200000047683716,3.8195998668670654
1683006728684484000,6.123484130859375,-0.007499999832361937,-0.4810999929904938,3.6440999507904053
1683006728704485600,6.143485595703125,-0.2020999938249588,-0.35899999737739563,2.3880999088287354
1683006728724482600,6.163482666015625,0.4722999930381775,-0.29420000314712524,0.40799999237060547
1683006728744482600,6.183482666015625,1.0972999334335327,-0.4860000014305115,-0.6085000038146973
1683006728764482600,6.203482666015625,1.2883999347686768,-0.8323000073432922,-0.11509999632835388
1683006728784482600,6.223482666015625,0.49289998412132263,-0.887499988079071,0.523099958896637
1683006728804482600,6.243482666015625,-0.965399980545044,-0.9594999551773071,0.8042999505996704
1683006728824482600,6.263482666015625,-1.725600004196167,-1.0612999200820923,0.4453999996185303
1683006728844482600,6.283482666015625,-1.5745999813079834,-0.9236999750137329,-0.4724999964237213
1683006728864482600,6.303482666015625,-0.9373999834060669,-0.7752000093460083,-1.378499984741211
1683006728884482600,6.323482666015625,-0.5533999800682068,-0.7146999835968018,-1.9496999979019165
1683006728904482600,6.343482666015625,-0.2175999879837036,-0.5322999954223633,-2.45169997215271
1683006728924482600,6.363482666015625,-0.13729999959468842,-0.41269999742507935,-2.718899965286255
1683006728944484000,6.383484130859375,-0.16699999570846558,-0.3019999861717224,-2.7309999465942383
1683006728964484000,6.403484130859375,-0.09879999607801437,-0.09219999611377716,-2.5067999362945557
1683006728984482600,6.423482666015625,-0.06629999727010727,0.07999999821186066,-2.1250998973846436
1683006729004482600,6.443482666015625,-0.12379999458789825,0.25099998712539673,-1.7031999826431274
1683006729024482600,6.463482666015625,-0.11840000003576279,0.43469998240470886,-1.2508999109268188
1683006729044482600,6.483482666015625,-0.2020999938249588,0.5974999666213989,-0.9652999639511108
1683006729064482600,6.503482666015625,-0.3854999840259552,0.7436999678611755,-0.8664000034332275
1683006729084482600,6.523482666015625,-0.5569999814033508,0.7835999727249146,-0.7964999675750732
1683006729104482600,6.543482666015625,-0.6141999959945679,0.8274999856948853,-0.6664999723434448
1683006729124482600,6.563482666015625,-0.6179999709129333,0.8115999698638916,-0.25119999051094055
1683006729144482600,6.583482666015625,-0.627299964427948,0.7515000104904175,0.36980000138282776
1683006729164484000,6.603484130859375,-0.5620999932289124,0.7823999524116516,0.9314000010490417
1683006729184482600,6.623482666015625,-0.39409998059272766,0.7294999957084656,1.7281999588012695
1683006729204482600,6.643482666015625,-0.20059999823570251,0.5910999774932861,2.710700035095215
1683006729224482600,6.663482666015625,-0.335099995136261,0.3310999870300293,3.2619998455047607
1683006729244482600,6.683482666015625,-0.3586999773979187,-0.2696000039577484,3.422299861907959
1683006729264482600,6.703482666015625,-0.05299999937415123,-0.79749995470047,4.114200115203857
1683006729284482600,6.723482666015625,-0.006000000052154064,-0.9320999979972839,4.4440999031066895
1683006729304482600,6.743482666015625,-0.1996999979019165,-0.7634999752044678,3.6347999572753906
1683006729324482600,6.763482666015625,-0.2842999994754791,-0.7989000082015991,2.4226999282836914
1683006729344482600,6.783482666015625,-0.4702000021934509,-1.3559999465942383,1.1624000072479248
1683006729364484000,6.803484130859375,-0.1876000016927719,-2.350800037384033,0.4813999831676483
1683006729384485600,6.823485595703125,0.29749998450279236,-2.9296000003814697,0.4845999777317047
1683006729404482600,6.843482666015625,0.2744999825954437,-2.71560001373291,0.19039998948574066
1683006729424482600,6.863482666015625,-0.11079999804496765,-2.264699935913086,-0.3249000012874603
1683006729444482600,6.883482666015625,-0.14169999957084656,-1.8410999774932861,-1.3514000177383423
1683006729464482600,6.903482666015625,0.03460000082850456,-1.3797999620437622,-2.344399929046631
1683006729484484000,6.923484130859375,0.20709998905658722,-1.0233999490737915,-2.401399850845337
1683006729504485600,6.943485595703125,0.0421999990940094,-0.5862999558448792,-1.8802999258041382
1683006729524482600,6.963482666015625,-0.3490999937057495,-0.25669997930526733,-1.8420000076293945
1683006729544482600,6.983482666015625,-0.5271999835968018,0.1289999932050705,-1.9602999687194824
1683006729564482600,7.003482666015625,-0.34459999203681946,0.31459999084472656,-1.8509999513626099
1683006729584484000,7.023484130859375,0.030499998480081558,0.5515999794006348,-1.8772000074386597
1683006729604482600,7.043482666015625,0.1785999983549118,0.5637999773025513,-1.5310999155044556
1683006729624482600,7.063482666015625,0.19489999115467072,0.6543999910354614,-1.274999976158142
1683006729644485600,7.083485595703125,0.2474999874830246,0.8052999973297119,-1.0780999660491943
1683006729664482600,7.103482666015625,0.3147999942302704,0.8539999723434448,-1.1370999813079834
1683006729684485600,7.123485595703125,0.468099981546402,0.8260999917984009,-1.0006999969482422
1683006729704484000,7.143484130859375,0.545799970626831,0.8822000026702881,-1.0121999979019165
1683006729724482600,7.163482666015625,0.5565999746322632,0.8601999878883362,-0.4943999946117401
1683006729744482600,7.183482666015625,0.6362000107765198,0.9660999774932861,0.5726000070571899
1683006729764482600,7.203482666015625,0.7507999539375305,0.9973999857902527,2.1482999324798584
1683006729784482600,7.223482666015625,0.8279999494552612,0.7423999905586243,3.6440999507904053
1683006729804482600,7.243482666015625,0.7271999716758728,0.5503000020980835,3.971299886703491
1683006729824485600,7.263485595703125,0.43539997935295105,0.3093000054359436,2.4158999919891357
1683006729844484000,7.283484130859375,0.6353999972343445,-0.19039998948574066,1.871899962425232
1683006729864482600,7.303482666015625,0.788100004196167,-0.4416999816894531,3.407599925994873
1683006729884482600,7.323482666015625,0.4203999936580658,-0.21739999949932098,4.176199913024902
1683006729904482600,7.343482666015625,0.08329999446868896,0.10319999605417252,2.9626998901367188
1683006729924482600,7.363482666015625,0.5498999953269958,0.2638999819755554,0.43639999628067017
1683006729944482600,7.383482666015625,1.3517999649047852,-0.07369999587535858,-0.8700999617576599
1683006729964482600,7.403482666015625,1.7526999711990356,-0.4456999897956848,-0.31119999289512634
1683006729984484000,7.423484130859375,0.7131999731063843,-0.6518999934196472,0.6280999779701233
1683006730004482600,7.443482666015625,-0.6502000093460083,-0.9297999739646912,1.2120000123977661
1683006730024482600,7.463482666015625,-1.4674999713897705,-1.0740000009536743,0.7750999927520752
1683006730044482600,7.483482666015625,-1.2493000030517578,-1.1471999883651733,0.035499997437000275
1683006730064482600,7.503482666015625,-0.6599000096321106,-1.0734000205993652,-0.8786999583244324
1683006730084484000,7.523484130859375,-0.28689998388290405,-0.911899983882904,-1.861199975013733
1683006730104482600,7.543482666015625,-0.09489999711513519,-0.849299967288971,-2.235100030899048
1683006730124482600,7.563482666015625,-0.08940000087022781,-0.7770000100135803,-2.0887999534606934
1683006730144482600,7.583482666015625,-0.16749998927116394,-0.6743999719619751,-2.4326000213623047
1683006730164482600,7.603482666015625,-0.06449999660253525,-0.6570999622344971,-3.089200019836426
1683006730184482600,7.623482666015625,0.02759999968111515,-0.4306999742984772,-3.3623998165130615
1683006730204482600,7.643482666015625,0.05649999901652336,-0.01899999938905239,-2.6549999713897705
1683006730224482600,7.663482666015625,-0.12729999423027039,0.3879999816417694,-1.6826999187469482
1683006730244482600,7.683482666015625,-0.2930999994277954,0.7299999594688416,-1.1019999980926514
1683006730264482600,7.703482666015625,-0.4088999927043915,0.8744999766349792,-0.707099974155426
1683006730284482600,7.723482666015625,-0.5758999586105347,0.858299970626831,-0.4097999930381775
1683006730304482600,7.743482666015625,-0.57669997215271,0.8420000076293945,-0.29819998145103455
1683006730324485600,7.763485595703125,-0.48989999294281006,0.8326999545097351,-0.15729999542236328
1683006730344484000,7.783484130859375,-0.4794999957084656,0.8944000005722046,0.1501999944448471
1683006730364482600,7.803482666015625,-0.45719999074935913,1.0097999572753906,0.5167999863624573
1683006730384485600,7.823485595703125,-0.39499998092651367,1.0211999416351318,1.1484999656677246
1683006730404484000,7.843484130859375,-0.4592999815940857,1.0924999713897705,1.9259999990463257
1683006730424482600,7.863482666015625,-0.7159000039100647,1.0942000150680542,2.5165998935699463
1683006730444482600,7.883482666015625,-1.0846999883651733,0.7419999837875366,2.586199998855591
1683006730464482600,7.903482666015625,-0.5152999758720398,-0.022499999031424522,3.0184998512268066
1683006730484484000,7.923484130859375,0.41659998893737793,-0.42649999260902405,4.265599727630615
1683006730504484000,7.943484130859375,0.6154999732971191,-0.3321000039577484,4.895699977874756
1683006730524482600,7.963482666015625,0.1785999983549118,-0.0510999970138073,3.48580002784729
1683006730544482600,7.983482666015625,0.11879999935626984,-0.15609999001026154,1.0649999380111694
1683006730564482600,8.003482666015625,0.6909999847412109,-0.8597999811172485,0.3125
1683006730584482600,8.023482666015624,1.257599949836731,-1.2894999980926514,1.5579999685287476
1683006730604482600,8.043482666015626,0.43639999628067017,-1.2967000007629395,3.034799814224243
1683006730624482600,8.063482666015625,-0.7117999792098999,-1.3746999502182007,2.760699987411499
1683006730644482600,8.083482666015625,-0.8199999928474426,-1.4871000051498413,0.39879998564720154
1683006730664484000,8.103484130859375,-0.10719999670982361,-1.6131999492645264,-1.8365999460220337
1683006730684482600,8.123482666015626,0.47189998626708984,-1.7730998992919922,-2.9860999584198
1683006730704482600,8.143482666015625,0.3431999981403351,-1.7192999124526978,-3.3938000202178955
1683006730724482600,8.163482666015625,-0.3321000039577484,-1.2172999382019043,-2.759500026702881
1683006730744484000,8.183484130859375,-0.9001999497413635,-0.8087999820709229,-1.931399941444397
1683006730764482600,8.203482666015624,-1.0008000135421753,-0.45799997448921204,-1.8853999376296997
1683006730784482600,8.223482666015625,-0.5346999764442444,-0.3693999946117401,-2.169299840927124
1683006730804482600,8.243482666015625,-0.15600000321865082,-0.4837999939918518,-2.3631999492645264
1683006730824482600,8.263482666015625,-0.19519999623298645,-0.5263000130653381,-2.1182000637054443
1683006730844482600,8.283482666015624,-0.40359997749328613,-0.4648999869823456,-1.463499903678894
1683006730864482600,8.303482666015626,-0.2807999849319458,-0.2879999876022339,-0.7896999716758728
1683006730884482600,8.323482666015625,0.06809999793767929,-0.18459999561309814,-0.724299967288971
1683006730904482600,8.343482666015625,0.5647000074386597,-0.1889999955892563,-0.9229999780654907
1683006730924482600,8.363482666015624,0.7875999808311462,-0.08489999920129776,-0.8751999735832214
1683006730944482600,8.383482666015626,0.6697999835014343,0.1517999917268753,-0.1696999967098236
1683006730964482600,8.403482666015625,0.4696999788284302,0.3544999957084656,0.9857999682426453
1683006730984482600,8.423482666015625,0.446399986743927,0.5360999703407288,2.208199977874756
1683006731004482600,8.443482666015624,0.46859997510910034,0.5781999826431274,2.9593000411987305
1683006731024482600,8.463482666015626,0.6560999751091003,0.6141999959945679,2.5253000259399414
1683006731044482600,8.483482666015625,0.7482999563217163,0.6487999558448792,1.593999981880188
1683006731064484000,8.503484130859375,0.49699997901916504,0.1704999953508377,1.732699990272522
1683006731084482600,8.523482666015624,0.06539999693632126,-0.12969999015331268,3.094899892807007
1683006731104482600,8.543482666015626,-0.210999995470047,0.1621999889612198,3.6021997928619385
1683006731124482600,8.563482666015625,-0.25849997997283936,0.4910999834537506,2.6963999271392822
1683006731144482600,8.583482666015625,0.5163999795913696,0.5922999978065491,0.8596999645233154
1683006731164482600,8.603482666015625,1.4442999362945557,0.18719999492168427,-0.34619998931884766
1683006731184482600,8.623482666015626,1.9655998945236206,-0.3653999865055084,-0.09969999641180038
1683006731204482600,8.643482666015625,1.2186999320983887,-0.8725000023841858,0.8131999969482422
1683006731224482600,8.663482666015625,-0.17379999160766602,-1.1057000160217285,1.1532999277114868
1683006731244482600,8.683482666015625,-0.789900004863739,-1.0753999948501587,0.8840000033378601
1683006731264482600,8.703482666015624,-0.7464999556541443,-0.9422000050544739,0.36159998178482056
1683006731284482600,8.723482666015625,-0.5144000053405762,-0.8422999978065491,-0.4529999792575836
1683006731304482600,8.743482666015625,-0.5816999673843384,-0.8208999633789062,-1.4721999168395996
1683006731324482600,8.763482666015625,-0.5381999611854553,-0.8101999759674072,-2.0685999393463135
1683006731344482600,8.783482666015624,-0.43449997901916504,-0.7615999579429626,-2.2929999828338623
1683006731364482600,8.803482666015626,-0.2911999821662903,-0.810699999332428,-2.400399923324585
1683006731384482600,8.823482666015625,-0.12719999253749847,-0.7039999961853027,-2.4976999759674072
1683006731404482600,8.843482666015625,0.0681999996304512,-0.5317999720573425,-2.1238999366760254
1683006731424484000,8.863484130859375,0.08489999920129776,-0.3637000024318695,-1.6130999326705933
1683006731444484000,8.883484130859374,-0.08159999549388885,-0.16929998993873596,-1.2984999418258667
1683006731464482600,8.903482666015625,-0.3549000024795532,-0.03739999979734421,-1.3555999994277954
1683006731484482600,8.923482666015625,-0.5105999708175659,0.04800000041723251,-1.4214999675750732
1683006731504482600,8.943482666015624,-0.6116999983787537,0.18439999222755432,-1.2806999683380127
1683006731524482600,8.963482666015626,-0.7275999784469604,0.42409998178482056,-1.0911999940872192
1683006731544482600,8.983482666015625,-0.8848999738693237,0.6905999779701233,-0.6571999788284302
1683006731564482600,9.003482666015625,-0.8412999510765076,0.9815999865531921,-0.19419999420642853
1683006731584482600,9.023482666015624,-0.47589999437332153,1.1747000217437744,0.4749999940395355
1683006731604482600,9.043482666015626,-0.07259999960660934,1.3090999126434326,1.125
1683006731624482600,9.063482666015625,0.061799999326467514,1.3579000234603882,1.6966999769210815
1683006731644482600,9.083482666015625,-0.14469999074935913,1.260699987411499,2.2577998638153076
1683006731664482600,9.103482666015625,-0.5151000022888184,1.0602999925613403,2.415599822998047
1683006731684482600,9.123482666015626,-0.6311999559402466,0.44189998507499695,2.7112998962402344
1683006731704482600,9.143482666015625,0.024699999019503593,-0.3982999920845032,3.567499876022339
1683006731724484000,9.163484130859375,0.762499988079071,-0.5447999835014343,3.8750998973846436
1683006731744482600,9.183482666015625,0.8396999835968018,-0.28209999203681946,3.2707998752593994
1683006731764482600,9.203482666015624,0.4941999912261963,-0.11129999905824661,1.4503999948501587
1683006731784482600,9.223482666015625,0.5257999897003174,-0.5171999931335449,-0.25119999051094055
1683006731804482600,9.243482666015625,1.271399974822998,-1.3345999717712402,-0.030700000002980232
1683006731824482600,9.263482666015625,1.734299898147583,-1.667699933052063,1.941100001335144
1683006731844482600,9.283482666015624,0.6909999847412109,-1.8500999212265015,3.817699909210205
1683006731864482600,9.303482666015626,-0.6244999766349792,-1.664699912071228,2.98580002784729
1683006731884482600,9.323482666015625,-0.9088000059127808,-1.6687999963760376,0.34450000524520874
1683006731904482600,9.343482666015625,-0.17399999499320984,-1.9575999975204468,-1.5901999473571777
1683006731924482600,9.363482666015624,0.006099999882280827,-2.175299882888794,-2.599400043487549
1683006731944482600,9.383482666015626,-0.6299999952316284,-2.1410999298095703,-2.634399890899658
1683006731964482600,9.403482666015625,-1.0743999481201172,-1.7508999109268188,-2.304800033569336
1683006731984482600,9.423482666015625,-0.9785999655723572,-1.2065999507904053,-2.1624999046325684
1683006732004484000,9.443484130859375,-0.5412999987602234,-0.7859999537467957,-2.251499891281128
1683006732024482600,9.463482666015626,-0.10649999976158142,-0.4876999855041504,-2.523399829864502
1683006732044482600,9.483482666015625,-0.08789999783039093,-0.37139999866485596,-2.5020999908447266
1683006732064482600,9.503482666015625,-0.0925000011920929,-0.25220000743865967,-2.012500047683716
1683006732084482600,9.523482666015624,-0.13650000095367432,-0.04039999842643738,-1.5633000135421753
1683006732104482600,9.543482666015626,-0.1428999900817871,0.24210000038146973,-1.2310999631881714
1683006732124482600,9.563482666015625,-0.09449999779462814,0.4666999876499176,-0.8294999599456787
1683006732144482600,9.583482666015625,-0.13759998977184296,0.6430000066757202,-0.5938000082969666
1683006732164484000,9.603484130859375,-0.13449999690055847,0.6685999631881714,-0.5931000113487244
1683006732184482600,9.623482666015626,0.14549998939037323,0.7804999947547913,-0.1808999925851822
1683006732204484000,9.643484130859376,0.45489999651908875,0.821399986743927,0.7305999994277954
1683006732224482600,9.663482666015625,0.6793000102043152,0.8228999972343445,1.6601999998092651
1683006732244482600,9.683482666015625,1.0437999963760376,0.6636999845504761,2.4911999702453613
1683006732264482600,9.703482666015624,1.246399998664856,0.5342000126838684,2.5
1683006732284482600,9.723482666015625,1.117900013923645,0.4927999973297119,1.9526000022888184
1683006732304482600,9.743482666015625,0.8675000071525574,0.10610000044107437,2.2503998279571533
1683006732324482600,9.763482666015625,0.45229998230934143,-0.09569999575614929,3.4492998123168945
1683006732344490200,9.783490234375,-0.03909999877214432,0.15389999747276306,3.8040997982025146
1683006732364484000,9.803484130859376,-0.149399995803833,0.42409998178482056,3.3444998264312744
1683006732384482600,9.823482666015625,0.1581999957561493,0.6096000075340271,1.5893999338150024
1683006732404482600,9.843482666015625,0.4260999858379364,0.41099998354911804,-0.6552000045776367
1683006732424482600,9.863482666015624,1.011799931526184,-0.1256999969482422,-1.0454000234603882
1683006732444484000,9.883484130859374,1.180400013923645,-0.5023999810218811,-0.07419999688863754
1683006732464482600,9.903482666015625,0.12129999697208405,-0.6481999754905701,1.0992000102996826
1683006732484482600,9.923482666015625,-0.7364999651908875,-0.6730999946594238,1.3869999647140503
1683006732504482600,9.943482666015624,-1.0440999269485474,-0.8668999671936035,0.7423999905586243
1683006732524482600,9.963482666015626,-0.36229997873306274,-1.004699945449829,-0.43789997696876526
1683006732544482600,9.983482666015625,0.16899999976158142,-1.0169999599456787,-1.2997000217437744
1683006732564482600,10.003482666015625,0.060499999672174454,-0.9879999756813049,-1.7882999181747437
1683006732584484000,10.023484130859375,-0.4104999899864197,-0.8150999546051025,-2.0329999923706055
1683006732604484000,10.043484130859374,-0.8399999737739563,-0.616100013256073,-2.209699869155884
1683006732624482600,10.063482666015625,-0.8592999577522278,-0.38359999656677246,-2.355599880218506
1683006732644482600,10.083482666015625,-0.7825999855995178,-0.19859999418258667,-2.4414000511169434
1683006732664482600,10.103482666015625,-0.6297999620437622,0.033299997448921204,-2.22379994392395
1683006732684482600,10.123482666015626,-0.5074999928474426,0.2757999897003174,-1.5360000133514404
1683006732704482600,10.143482666015625,-0.5475000143051147,0.49959999322891235,-1.2114999294281006
1683006732724482600,10.163482666015625,-0.5600999593734741,0.5683000087738037,-0.975600004196167
1683006732744482600,10.183482666015625,-0.6162999868392944,0.5702999830245972,-0.9062999486923218
1683006732764482600,10.203482666015624,-0.6451999545097351,0.663100004196167,-0.9633999466896057
1683006732784482600,10.223482666015625,-0.6550999879837036,0.7046999931335449,-0.6969000101089478
1683006732804482600,10.243482666015625,-0.5514000058174133,0.799299955368042,-0.0778999999165535
1683006732824484000,10.263484130859375,-0.4156000018119812,0.9091999530792236,0.5018999576568604
1683006732844482600,10.283482666015624,-0.24619999527931213,1.0615999698638916,0.8376999497413635
1683006732864482600,10.303482666015626,-0.03889999911189079,1.0530999898910522,1.261699914932251
1683006732884482600,10.323482666015625,0.16920000314712524,0.9124999642372131,2.047999858856201
1683006732904482600,10.343482666015625,0.085999995470047,0.769599974155426,2.64739990234375
1683006732924482600,10.363482666015624,0.003599999938160181,0.4509999752044678,2.8157999515533447
1683006732944482600,10.383482666015626,0.27649998664855957,-0.08379999548196793,3.2802999019622803
1683006732964482600,10.403482666015625,0.3730999827384949,-0.23919999599456787,3.4807000160217285
1683006732984482600,10.423482666015625,0.21719999611377716,-0.24409998953342438,3.2797999382019043
1683006733004482600,10.443482666015624,0.18549999594688416,-0.17149999737739563,2.3424999713897705
1683006733024482600,10.463482666015626,0.17999999225139618,-0.3601999878883362,0.827299952507019
1683006733044482600,10.483482666015625,0.38929998874664307,-1.0348999500274658,0.9585999846458435
1683006733064482600,10.503482666015625,0.7304999828338623,-1.5321999788284302,2.477599859237671
1683006733084482600,10.523482666015624,0.30859997868537903,-1.5296999216079712,3.3454999923706055
1683006733104482600,10.543482666015626,-0.31279999017715454,-1.4958999156951904,2.2128000259399414
1683006733124482600,10.563482666015625,-0.0705999955534935,-1.6448999643325806,0.06399999558925629
1683006733144482600,10.583482666015625,0.3384000062942505,-1.972599983215332,-1.5016999244689941
1683006733164482600,10.603482666015625,-0.07009999454021454,-2.1218998432159424,-2.72409987449646
1683006733184482600,10.623482666015626,-0.8197999596595764,-2.0062999725341797,-2.763399839401245
1683006733204482600,10.643482666015625,-1.1598999500274658,-1.5543999671936035,-2.1394999027252197
1683006733224482600,10.663482666015625,-1.0817999839782715,-0.9860000014305115,-2.0249998569488525
1683006733244484000,10.683484130859375,-0.7576000094413757,-0.7333999872207642,-2.0737998485565186
1683006733264488700,10.70348876953125,-0.27639999985694885,-0.6078999638557434,-2.5611000061035156
1683006733284482600,10.723482666015625,-0.1898999959230423,-0.5406999588012695,-2.4995999336242676
1683006733304482600,10.743482666015625,-0.49639999866485596,-0.4089999794960022,-1.8717999458312988
1683006733324482600,10.763482666015625,-0.6236000061035156,-0.18379999697208405,-1.1572999954223633
1683006733344482600,10.783482666015624,-0.5133000016212463,0.054499998688697815,-0.579800009727478
1683006733364482600,10.803482666015626,-0.1914999932050705,0.29490000009536743,-0.4139999747276306
1683006733384482600,10.823482666015625,0.19029998779296875,0.4830999970436096,-0.5422999858856201
1683006733404482600,10.843482666015625,0.38259997963905334,0.6355999708175659,-0.513700008392334
1683006733424482600,10.863482666015624,0.37279999256134033,0.6818000078201294,-0.093299999833107
1683006733444482600,10.883482666015626,0.349700003862381,0.7817999720573425,0.493399977684021
1683006733464484000,10.903484130859376,0.5835999846458435,0.9757999777793884,1.1591999530792236
1683006733484482600,10.923482666015625,0.8937999606132507,1.1338000297546387,1.698199987411499
1683006733504482600,10.943482666015624,0.8501999974250793,1.1090999841690063,1.7268999814987183
1683006733524482600,10.963482666015626,0.7766000032424927,1.003499984741211,1.45169997215271
1683006733544482600,10.983482666015625,0.7421999573707581,0.5187999606132507,2.0499000549316406
1683006733564482600,11.003482666015625,0.6926000118255615,0.02719999849796295,3.902899980545044
1683006733584484000,11.023484130859375,0.2565000057220459,0.10949999839067459,4.979700088500977
1683006733604484000,11.043484130859374,0.22839999198913574,0.24609999358654022,4.674099922180176
1683006733624482600,11.063482666015625,0.8152999877929688,0.4984999895095825,2.5153000354766846
1683006733644482600,11.083482666015625,1.1244999170303345,0.6906999945640564,-0.7096999883651733
1683006733664482600,11.103482666015625,1.1913999319076538,0.1923999935388565,-2.08870005607605
1683006733684482600,11.123482666015626,0.421099990606308,-0.8636999726295471,-1.2537000179290771
1683006733704482600,11.143482666015625,-0.8430999517440796,-1.3660999536514282,0.026099998503923416
1683006733724482600,11.163482666015625,-1.4717999696731567,-1.2537000179290771,1.0078999996185303
1683006733744482600,11.183482666015625,-0.8858000040054321,-1.0296000242233276,1.0871000289916992
1683006733764482600,11.203482666015624,0.5164999961853027,-0.9926999807357788,0.33570000529289246
1683006733784482600,11.223482666015625,1.1962000131607056,-1.0322999954223633,-0.8032000064849854
1683006733804482600,11.243482666015625,1.129599928855896,-1.1555999517440796,-1.57669997215271
1683006733824482600,11.263482666015625,0.3497999906539917,-1.2411999702453613,-1.9388999938964844
1683006733844482600,11.283482666015624,-0.49139997363090515,-1.0864999294281006,-2.302000045776367
1683006733864482600,11.303482666015626,-0.8805999755859375,-0.7578999996185303,-2.506700038909912
1683006733884482600,11.323482666015625,-0.7902999520301819,-0.39329999685287476,-2.4450998306274414
1683006733904482600,11.343482666015625,-0.583899974822998,-0.10669999569654465,-2.2955000400543213
1683006733924484000,11.363484130859375,-0.3888999819755554,0.13499999046325684,-1.98989999294281
1683006733944484000,11.383484130859374,-0.31189998984336853,0.38089999556541443,-1.7524999380111694
1683006733964482600,11.403482666015625,-0.2395000010728836,0.7191999554634094,-1.3865000009536743
1683006733984482600,11.423482666015625,-0.20349998772144318,0.9827999472618103,-1.0400999784469604
1683006734004482600,11.443482666015624,-0.32349997758865356,1.1725999116897583,-0.7040999531745911
1683006734024482600,11.463482666015626,-0.39100000262260437,1.1832000017166138,-0.5252000093460083
1683006734044482600,11.483482666015625,-0.4009999930858612,1.0537999868392944,-0.3653999865055084
1683006734064482600,11.503482666015625,-0.34389999508857727,0.9508999586105347,0.06879999488592148
1683006734084482600,11.523482666015624,-0.26339998841285706,0.9333999752998352,0.7092999815940857
1683006734104482600,11.543482666015626,-0.11949999630451202,0.989799976348877,1.3593999147415161
1683006734124482600,11.563482666015625,0.00039999998989515007,0.9091999530792236,2.1949000358581543
1683006734144482600,11.583482666015625,-0.052400000393390656,0.7852999567985535,2.9313998222351074
1683006734164482600,11.603482666015625,-0.22679999470710754,0.42549997568130493,3.1575000286102295
1683006734184482600,11.623482666015626,-0.2076999992132187,-0.3766999840736389,3.4931998252868652
1683006734204482600,11.643482666015625,0.2906000018119812,-0.9520999789237976,3.948699951171875
1683006734224482600,11.663482666015625,0.5389999747276306,-0.8054999709129333,3.896099805831909
1683006734244482600,11.683482666015625,0.28039997816085815,-0.1711999922990799,2.6562998294830322
1683006734264482600,11.703482666015624,-0.08069999516010284,0.11019999533891678,0.5044999718666077
1683006734284482600,11.723482666015625,-0.1533999890089035,-0.5810999870300293,-0.41349998116493225
1683006734304482600,11.743482666015625,0.3125,-1.375,0.616100013256073
1683006734324482600,11.763482666015625,0.4900999963283539,-1.4502999782562256,1.8695999383926392
1683006734344482600,11.783482666015624,0.18549999594688416,-1.2042999267578125,1.4819999933242798
1683006734364482600,11.803482666015626,0.39159998297691345,-1.2303999662399292,-0.19089999794960022
1683006734384482600,11.823482666015625,0.7092999815940857,-1.4443999528884888,-1.261299967765808
1683006734404482600,11.843482666015625,0.4203999936580658,-1.5293999910354614,-1.7666000127792358
1683006734424482600,11.863482666015624,-0.19449999928474426,-1.4143999814987183,-1.7735999822616577
1683006734444482600,11.883482666015626,-0.5813999772071838,-1.2970999479293823,-1.6283999681472778
1683006734464482600,11.903482666015625,-0.3520999848842621,-1.0598000288009644,-1.875
1683006734484482600,11.923482666015625,0.13660000264644623,-0.9382999539375305,-2.028599977493286
1683006734504484000,11.943484130859375,0.13319998979568481,-0.8260999917984009,-2.062299966812134
1683006734524484000,11.963484130859374,-0.41009998321533203,-0.7937999963760376,-2.009500026702881
1683006734544482600,11.983482666015625,-0.773099958896637,-0.7328999638557434,-1.635699987411499
1683006734564482600,12.003482666015625,-0.7572999596595764,-0.5791999697685242,-1.2036999464035034
1683006734584482600,12.023482666015624,-0.4764999747276306,-0.3367999792098999,-0.967799961566925
1683006734604482600,12.043482666015626,-0.026999998837709427,-0.04360000044107437,-0.8791999816894531
1683006734624482600,12.063482666015625,0.2741999924182892,0.2515999972820282,-0.8881999850273132
1683006734644484000,12.083484130859375,0.28200000524520874,0.5685999989509583,-0.7498999834060669
1683006734664482600,12.103482666015625,0.23589999973773956,0.8694999814033508,-0.40619999170303345
1683006734684482600,12.123482666015626,0.21089999377727509,1.0066999197006226,0.34779998660087585
1683006734704482600,12.143482666015625,0.2298000007867813,1.0586999654769897,1.286099910736084
1683006734724482600,12.163482666015625,0.4602999985218048,1.0720999240875244,2.321899890899658
1683006734744482600,12.183482666015625,0.8601999878883362,1.0627999305725098,2.611799955368042
1683006734764484000,12.203484130859374,1.3070999383926392,0.9362999796867371,1.6871999502182007
1683006734784482600,12.223482666015625,1.308899998664856,0.4664999842643738,1.402999997138977
1683006734804482600,12.243482666015625,0.9747999906539917,-0.08989999443292618,3.0214998722076416
1683006734824482600,12.263482666015625,0.4056999981403351,0.10049999505281448,3.9592998027801514
1683006734844482600,12.283482666015624,-0.11599999666213989,0.38359999656677246,3.131899833679199
1683006734864482600,12.303482666015626,0.35269999504089355,0.44110000133514404,1.6383999586105347
1683006734884482600,12.323482666015625,0.932699978351593,0.09939999878406525,0.3528999984264374
1683006734904482600,12.343482666015625,1.3202999830245972,-0.20809999108314514,0.18619999289512634
1683006734924482600,12.363482666015624,0.7703999876976013,-0.4493999779224396,0.6771000027656555
1683006734944482600,12.383482666015626,-0.7005000114440918,-0.5764999985694885,0.7525999546051025
1683006734964482600,12.403482666015625,-1.7594999074935913,-0.8658999800682068,0.44259998202323914
1683006734984484000,12.423484130859375,-1.9526000022888184,-1.156499981880188,-0.15230000019073486
1683006735004484000,12.443484130859375,-1.1713999509811401,-1.331399917602539,-0.5399999618530273
1683006735024482600,12.463482666015626,-0.41769999265670776,-1.38319993019104,-1.2408000230789185
1683006735044482600,12.483482666015625,0.29899999499320984,-1.36489999294281,-1.8136999607086182
1683006735064482600,12.503482666015625,0.6500999927520752,-1.1556999683380127,-2.2474000453948975
1683006735084482600,12.523482666015624,0.48799997568130493,-0.847599983215332,-2.414099931716919
1683006735104482600,12.543482666015626,-0.23469999432563782,-0.6777999997138977,-2.1689000129699707
1683006735124482600,12.563482666015625,-0.8930999636650085,-0.46309998631477356,-1.8270999193191528
1683006735144482600,12.583482666015625,-1.031499981880188,-0.05049999803304672,-1.4764000177383423
1683006735164482600,12.603482666015625,-0.9098999500274658,0.2619999945163727,-0.7827999591827393
1683006735184482600,12.623482666015626,-0.7379999756813049,0.4545999765396118,-0.6173999905586243
1683006735204482600,12.643482666015625,-0.4293999969959259,0.5418999791145325,-1.0187000036239624
1683006735224482600,12.663482666015625,-0.2590000033378601,0.5467999577522278,-1.5956999063491821
1683006735244485600,12.683485595703125,-0.29569998383522034,0.564799964427948,-2.1434998512268066
1683006735264482600,12.703482666015624,-0.3716000020503998,0.6387999653816223,-2.151399850845337
1683006735284482600,12.723482666015625,-0.48249998688697815,0.8172000050544739,-1.7764999866485596
1683006735304482600,12.743482666015625,-0.525600016117096,0.9843999743461609,-0.6565999984741211
1683006735324482600,12.763482666015625,-0.346699982881546,1.194000005722046,0.5595999956130981
1683006735344482600,12.783482666015624,-0.07939999550580978,1.406499981880188,1.6764999628067017
1683006735364484000,12.803484130859376,0.2505999803543091,1.4780999422073364,2.831899881362915
1683006735384484000,12.823484130859375,0.39389997720718384,1.254499912261963,3.2911999225616455
1683006735404482600,12.843482666015625,0.29569998383522034,0.6126999855041504,2.918299913406372
1683006735424482600,12.863482666015624,0.32670000195503235,-0.22769999504089355,3.077899932861328
1683006735444482600,12.883482666015626,0.4025000035762787,-0.5613999962806702,3.904899835586548
1683006735464482600,12.903482666015625,0.296999990940094,-0.6735000014305115,4.240999698638916
1683006735484482600,12.923482666015625,0.43369999527931213,-0.4909999966621399,3.3892998695373535
1683006735504482600,12.943482666015624,0.5794999599456787,-0.3174999952316284,1.069599986076355
1683006735524482600,12.963482666015626,0.804099977016449,-0.9641000032424927,-0.022299999371170998
1683006735544482600,12.983482666015625,1.472599983215332,-1.8707000017166138,1.5791000127792358
1683006735564482600,13.003482666015625,1.2037999629974365,-1.8588999509811401,3.3104000091552734
1683006735584482600,13.023482666015624,0.08630000054836273,-1.5956999063491821,3.00849986076355
1683006735604482600,13.043482666015626,-0.33249998092651367,-1.5834999084472656,0.630299985408783
1683006735624482600,13.063482666015625,0.05689999833703041,-1.7692999839782715,-1.3476999998092651
1683006735644482600,13.083482666015625,-0.15389999747276306,-2.0683999061584473,-2.3222999572753906
1683006735664482600,13.103482666015625,-0.7998999953269958,-2.0346999168395996,-2.604099988937378
1683006735684482600,13.123482666015626,-1.2553999423980713,-1.7704999446868896,-2.362499952316284
1683006735704482600,13.143482666015625,-1.0058000087738037,-1.278499960899353,-2.2405998706817627
1683006735724482600,13.163482666015625,-0.32359999418258667,-0.821899950504303,-2.2809998989105225
1683006735744484000,13.183484130859375,0.009800000116229057,-0.5676999688148499,-2.426100015640259
1683006735764485600,13.203485595703125,-0.2687999904155731,-0.47349998354911804,-2.2973999977111816
1683006735784482600,13.223482666015625,-0.6588000059127808,-0.37389999628067017,-1.9752999544143677
1683006735804482600,13.243482666015625,-0.6211000084877014,-0.23179998993873596,-1.506500005722046
1683006735824482600,13.263482666015625,-0.13699999451637268,0.00139999995008111,-1.1538000106811523
1683006735844482600,13.283482666015624,0.45809999108314514,0.28299999237060547,-0.9958999752998352
1683006735864482600,13.303482666015626,0.7573999762535095,0.5498999953269958,-1.0829999446868896
1683006735884482600,13.323482666015625,0.8517000079154968,0.6044999957084656,-1.0430999994277954
1683006735904482600,13.343482666015625,0.8568999767303467,0.7511000037193298,-0.46299999952316284
1683006735924482600,13.363482666015624,0.8183000087738037,0.8952999711036682,0.6078000068664551
1683006735944482600,13.383482666015626,0.8442999720573425,0.9923999905586243,1.8829998970031738
1683006735964482600,13.403482666015625,1.0622999668121338,1.1717000007629395,2.921799898147583
1683006735984482600,13.423482666015625,1.1110999584197998,1.3176000118255615,2.998699903488159
1683006736004482600,13.443482666015624,1.0246999263763428,1.1281999349594116,2.222100019454956
1683006736024482600,13.463482666015626,1.1797999143600464,0.4470999836921692,2.102799892425537
1683006736044482600,13.483482666015625,1.2943999767303467,-0.01719999872148037,3.4547998905181885
1683006736064482600,13.503482666015625,0.9626999497413635,0.017799999564886093,4.082900047302246
1683006736084485600,13.523485595703125,0.7652999758720398,0.10799999535083771,3.630999803543091
1683006736104482600,13.543482666015626,0.9967999458312988,0.4057999849319458,1.698799967765808
1683006736124484000,13.563484130859376,0.9010999798774719,0.5654999613761902,-1.2503999471664429
1683006736144484000,13.583484130859375,0.8563999533653259,-0.14479999244213104,-1.9223999977111816
1683006736164482600,13.603482666015625,0.09189999848604202,-0.8859999775886536,-0.5562999844551086
1683006736184482600,13.623482666015626,-0.7690999507904053,-0.9505999684333801,1.042799949645996
1683006736204482600,13.643482666015625,-1.357699990272522,-0.7946999669075012,1.775399923324585
1683006736224482600,13.663482666015625,-1.0753999948501587,-0.9440999627113342,0.991599977016449
1683006736244482600,13.683482666015625,0.15529999136924744,-1.1368999481201172,-0.4072999954223633
1683006736264482600,13.703482666015624,0.7554999589920044,-1.1303999423980713,-1.6631999015808105
1683006736284482600,13.723482666015625,0.6330999732017517,-1.0080000162124634,-2.1506998538970947
1683006736304482600,13.743482666015625,-0.4212999939918518,-0.9001999497413635,-2.3269999027252197
1683006736324482600,13.763482666015625,-1.121399998664856,-0.6703999638557434,-2.269700050354004
1683006736344482600,13.783482666015624,-1.3673999309539795,-0.5072999596595764,-2.241299867630005
1683006736364484000,13.803484130859376,-1.2822999954223633,-0.210999995470047,-2.339599847793579
1683006736384484000,13.823484130859375,-0.9287999868392944,0.06599999964237213,-2.035399913787842
1683006736404482600,13.843482666015625,-0.5210999846458435,0.30979999899864197,-1.6138999462127686
1683006736424482600,13.863482666015624,-0.2125999927520752,0.4268999993801117,-1.2410999536514282
1683006736444482600,13.883482666015626,-0.12219999730587006,0.5108999609947205,-1.0055999755859375
1683006736464482600,13.903482666015625,-0.24869999289512634,0.5705999732017517,-0.927299976348877
1683006736484482600,13.923482666015625,-0.3920999765396118,0.6365000009536743,-0.916700005531311
1683006736504482600,13.943482666015624,-0.5083999633789062,0.7137999534606934,-0.7389999628067017
1683006736524484000,13.963484130859374,-0.6209999918937683,0.8246999979019165,-0.4829999804496765
1683006736544484000,13.983484130859376,-0.6011999845504761,0.8605999946594238,-0.02159999869763851
1683006736564482600,14.003482666015625,-0.2872999906539917,0.9023999571800232,0.6462999582290649
1683006736584482600,14.023482666015624,0.10509999841451645,0.8800999522209167,1.4616999626159668
1683006736604482600,14.043482666015626,0.3401999771595001,0.7683999538421631,2.4226999282836914
1683006736624482600,14.063482666015625,0.30320000648498535,0.7218999862670898,3.226099967956543
1683006736644482600,14.083482666015625,0.044099997729063034,0.3507999777793884,3.656899929046631
1683006736664482600,14.103482666015625,0.2687000036239624,-0.7035999894142151,3.7346999645233154
1683006736684482600,14.123482666015626,0.9799999594688416,-1.250599980354309,3.31499981880188
1683006736704482600,14.143482666015625,1.2711999416351318,-0.9674999713897705,2.38100004196167
1683006736724482600,14.163482666015625,0.6830999851226807,-0.40609997510910034,0.8407999873161316
1683006736744484000,14.183484130859375,0.2806999981403351,-0.38029998540878296,-0.4283999800682068
1683006736764484000,14.203484130859374,0.31709998846054077,-0.9044999480247498,-0.14219999313354492
1683006736784482600,14.223482666015625,0.4705999791622162,-1.3030999898910522,1.5346999168395996
1683006736804482600,14.243482666015625,0.23489999771118164,-1.0662999153137207,2.798499822616577
1683006736824482600,14.263482666015625,-0.09539999812841415,-0.9212999939918518,2.363499879837036
1683006736844482600,14.283482666015624,0.4140999913215637,-0.9345999956130981,0.6929000020027161
1683006736864482600,14.303482666015626,0.8463000059127808,-0.9987999796867371,-0.9619999527931213
1683006736884482600,14.323482666015625,0.6168999671936035,-1.0913000106811523,-1.9555999040603638
1683006736904482600,14.343482666015625,-0.34779998660087585,-1.243499994277954,-2.2943999767303467
1683006736924482600,14.363482666015624,-1.2278000116348267,-1.1572999954223633,-2.4403998851776123
1683006736944484000,14.383484130859374,-1.489300012588501,-0.7971000075340271,-2.3315999507904053
1683006736964484000,14.403484130859376,-1.1610000133514404,-0.5087000131607056,-1.966399908065796
1683006736984482600,14.423482666015625,-0.7604999542236328,-0.24059998989105225,-1.9155999422073364
1683006737004482600,14.443482666015624,-0.491599977016449,-0.1776999980211258,-1.8371999263763428
1683006737024482600,14.463482666015626,-0.27699998021125793,-0.09059999883174896,-1.5932999849319458
1683006737044482600,14.483482666015625,-0.13809999823570251,-0.07319999486207962,-1.1929999589920044
1683006737064482600,14.503482666015625,-0.11620000004768372,-0.01889999955892563,-1.0479999780654907
1683006737084482600,14.523482666015624,-0.09200000017881393,-0.05859999731183052,-1.070599913597107
1683006737104482600,14.543482666015626,0.10130000114440918,-0.03799999877810478,-0.9168999791145325
1683006737124482600,14.563482666015625,0.3093999922275543,0.1630999892950058,-0.45829999446868896
1683006737144482600,14.583482666015625,0.482699990272522,0.3716000020503998,0.4526999890804291
1683006737164482600,14.603482666015625,0.717199981212616,0.5022000074386597,1.3930000066757202
1683006737184482600,14.623482666015626,1.0370999574661255,0.5328999757766724,2.1168999671936035
1683006737204484000,14.643484130859376,1.392699956893921,0.5507999658584595,2.4870998859405518
1683006737224482600,14.663482666015625,1.4840999841690063,0.4712999761104584,2.4470999240875244
1683006737244482600,14.683482666015625,1.2717000246047974,0.1410999894142151,2.203199863433838
1683006737264482600,14.703482666015624,1.0827000141143799,-0.0608999989926815,2.928499937057495
1683006737284482600,14.723482666015625,0.46699997782707214,0.1070999950170517,3.325399875640869
1683006737304482600,14.743482666015625,-0.11019999533891678,0.44759997725486755,2.6998000144958496
1683006737324482600,14.763482666015625,-0.040699999779462814,0.8174999952316284,0.9650999903678894
1683006737344482600,14.783482666015624,0.685699999332428,0.7132999897003174,-0.7177000045776367
1683006737364485600,14.803485595703124,1.1820999383926392,0.147599995136261,-0.4585999846458435
1683006737384484000,14.823484130859375,1.1062999963760376,-0.3587999939918518,1.4292999505996704
1683006737404482600,14.843482666015625,0.18209999799728394,-0.5184999704360962,2.7507998943328857
1683006737424482600,14.863482666015624,-0.6557999849319458,-0.7675999999046326,2.3757998943328857
1683006737444482600,14.883482666015626,-0.6523000001907349,-0.9271999597549438,0.5771999955177307
1683006737464482600,14.903482666015625,-0.3434000015258789,-1.2856999635696411,-0.5931000113487244
1683006737484482600,14.923482666015625,-0.4724999964237213,-1.4444999694824219,-1.7134000062942505
1683006737504482600,14.943482666015624,-0.7224999666213989,-1.4635999202728271,-2.547999858856201
1683006737524482600,14.963482666015626,-0.7585999965667725,-1.2727999687194824,-2.84309983253479
1683006737544482600,14.983482666015625,-0.6886999607086182,-1.0148999691009521,-2.6673998832702637
1683006737564482600,15.003482666015625,-0.4973999857902527,-0.7500999569892883,-2.549799919128418
1683006737584482600,15.023482666015624,-0.33309999108314514,-0.5245999693870544,-2.3925998210906982
1683006737604482600,15.043482666015626,-0.2870999872684479,-0.290800005197525,-2.3817999362945557
1683006737624482600,15.063482666015625,-0.1687999963760376,0.021800000220537186,-1.9279999732971191
1683006737644482600,15.083482666015625,-0.21459999680519104,0.2903999984264374,-1.218400001525879
1683006737664482600,15.103482666015625,-0.4715999960899353,0.5178999900817871,-0.9506999850273132
1683006737684482600,15.123482666015626,-0.6053000092506409,0.7283999919891357,-0.9771999716758728
1683006737704482600,15.143482666015625,-0.6979999542236328,0.8815999627113342,-1.0816999673843384
1683006737724482600,15.163482666015625,-0.8083999752998352,1.0205999612808228,-0.9598000049591064
1683006737744482600,15.183482666015625,-0.9617999792098999,0.988599956035614,-0.5644999742507935
1683006737764482600,15.203482666015624,-0.8640999794006348,0.9541999697685242,0.05509999766945839
1683006737784485600,15.223485595703124,-0.4696999788284302,1.0291999578475952,0.6451999545097351
1683006737804482600,15.243482666015625,-0.05649999901652336,1.0972999334335327,1.4514999389648438
1683006737824482600,15.263482666015625,0.2603999972343445,1.0582000017166138,2.3359999656677246
1683006737844482600,15.283482666015624,0.1946999877691269,0.9041000008583069,3.043299913406372
1683006737864482600,15.303482666015626,0.024299999698996544,0.3888999819755554,3.2990000247955322
1683006737884484000,15.323484130859375,0.05460000038146973,-0.29350000619888306,3.3589999675750732
1683006737904482600,15.343482666015625,0.3635999858379364,-0.6186999678611755,3.4106998443603516
1683006737924484000,15.363484130859375,0.46399998664855957,-0.46149998903274536,3.1510000228881836
1683006737944482600,15.383482666015626,0.3001999855041504,-0.10480000078678131,2.4201998710632324
1683006737964482600,15.403482666015625,0.044999998062849045,-0.13899999856948853,0.9340999722480774
1683006737984482600,15.423482666015625,0.04580000042915344,-0.8082000017166138,0.5146999955177307
1683006738004482600,15.443482666015624,0.40709999203681946,-1.4168999195098877,1.7596999406814575
1683006738024485600,15.463485595703125,0.2214999943971634,-1.4746999740600586,2.9830000400543213
1683006738044482600,15.483482666015625,-0.26319998502731323,-1.494499921798706,2.770400047302246
1683006738064482600,15.503482666015625,-0.22529999911785126,-1.6066999435424805,0.6850999593734741
1683006738084482600,15.523482666015624,0.18199999630451202,-1.7976999282836914,-1.3727999925613403
1683006738104482600,15.543482666015626,0.29809999465942383,-1.8971999883651733,-2.562000036239624
1683006738124482600,15.563482666015625,-0.41169998049736023,-1.9078999757766724,-2.9696998596191406
1683006738144482600,15.583482666015625,-1.2064999341964722,-1.6826999187469482,-2.639699935913086
1683006738164482600,15.603482666015625,-1.1876999139785767,-1.2208999395370483,-2.232800006866455
1683006738184482600,15.623482666015626,-0.6859999895095825,-0.7752999663352966,-2.194499969482422
1683006738204482600,15.643482666015625,-0.22579999268054962,-0.5376999974250793,-2.3992998600006104
1683006738224485600,15.663485595703126,-0.05209999904036522,-0.48169997334480286,-2.2425999641418457
1683006738244484000,15.683484130859375,-0.14469999074935913,-0.353300005197525,-1.8711999654769897
1683006738264482600,15.703482666015624,-0.12539999186992645,-0.12150000035762787,-1.2447999715805054
1683006738284482600,15.723482666015625,-0.00839999970048666,0.10179999470710754,-0.8237999677658081
1683006738304482600,15.743482666015625,0.12690000236034393,0.336899995803833,-0.7560999989509583
1683006738324482600,15.763482666015625,0.33059999346733093,0.5356000065803528,-0.6495000123977661
1683006738344482600,15.783482666015624,0.4333999752998352,0.7915999889373779,-0.43459999561309814
1683006738364482600,15.803482666015626,0.46859997510910034,0.9465000033378601,-0.023799998685717583
1683006738384482600,15.823482666015625,0.6342999935150146,0.9511999487876892,0.6313999891281128
1683006738404490200,15.843490234375,0.8693000078201294,0.8634999990463257,1.2862999439239502
1683006738424482600,15.863482666015624,1.1511999368667603,0.7919999957084656,1.9217000007629395
1683006738444482600,15.883482666015626,1.2973999977111816,0.7576999664306641,2.331199884414673
1683006738464482600,15.903482666015625,1.1970000267028809,0.8299999833106995,2.163599967956543
1683006738484482600,15.923482666015625,0.8962999582290649,0.46609997749328613,2.5170998573303223
1683006738504482600,15.943482666015624,0.7264999747276306,0.04010000079870224,4.124899864196777
1683006738524482600,15.963482666015626,0.6038999557495117,0.17639999091625214,4.496099948883057
1683006738544482600,15.983482666015625,0.5509999990463257,0.39079999923706055,3.5730998516082764
1683006738564482600,16.003482666015625,0.9253999590873718,0.6843000054359436,1.4936999082565308
1683006738584482600,16.023482666015624,0.8623999953269958,0.7202000021934509,-1.2211999893188477
1683006738604482600,16.043482666015624,0.6207999587059021,0.13019999861717224,-1.6401000022888184
1683006738624482600,16.063482666015624,-0.02850000001490116,-0.48819997906684875,-0.24629999697208405
1683006738644482600,16.083482666015627,-1.135200023651123,-0.8597999811172485,1.2619999647140503
1683006738664482600,16.103482666015626,-1.7477999925613403,-1.1165999174118042,1.7666999101638794
1683006738684482600,16.123482666015626,-1.3169000148773193,-1.3736000061035156,0.6807999610900879
1683006738704484000,16.143484130859374,-0.26969999074935913,-1.650399923324585,-0.5282999873161316
1683006738724485600,16.163485595703126,0.5669000148773193,-1.6822999715805054,-1.5053999423980713
1683006738744482600,16.183482666015625,0.5353999733924866,-1.7095999717712402,-2.020400047302246
1683006738764482600,16.203482666015624,0.11569999903440475,-1.6811999082565308,-2.1743998527526855
1683006738784482600,16.223482666015624,-0.31939998269081116,-1.430799961090088,-2.299799919128418
1683006738804482600,16.243482666015623,-0.5900999903678894,-1.1516000032424927,-2.1784000396728516
1683006738824482600,16.263482666015626,-0.5137999653816223,-0.7576999664306641,-2.1429998874664307
1683006738844482600,16.283482666015626,-0.5735999941825867,-0.45669999718666077,-2.216899871826172
1683006738864482600,16.303482666015626,-0.7523999810218811,-0.149399995803833,-1.9109998941421509
1683006738884482600,16.323482666015625,-0.7892999649047852,0.08129999786615372,-1.5377999544143677
1683006738904482600,16.343482666015625,-0.5634999871253967,0.31839999556541443,-1.3009999990463257
1683006738924484000,16.363484130859376,-0.3774999976158142,0.5780999660491943,-1.2875999212265015
1683006738944482600,16.383482666015624,-0.33480000495910645,0.8274999856948853,-1.3906999826431274
1683006738964482600,16.403482666015623,-0.3577999770641327,1.058899998664856,-1.327199935913086
1683006738984482600,16.423482666015627,-0.4145999848842621,1.3442000150680542,-0.9892999529838562
1683006739004482600,16.443482666015626,-0.44999998807907104,1.654599905014038,-0.2586999833583832
1683006739024482600,16.463482666015626,-0.49699997901916504,1.8209999799728394,0.9124999642372131
1683006739044482600,16.483482666015625,-0.49709999561309814,2.014699935913086,1.9747999906539917
1683006739064482600,16.503482666015625,-0.3990999758243561,2.0184998512268066,3.035799980163574
1683006739084482600,16.523482666015624,-0.2797999978065491,1.7860000133514404,3.8701999187469482
1683006739104482600,16.543482666015624,-0.057499997317790985,1.4306999444961548,3.763000011444092
1683006739124482600,16.563482666015624,0.17379999160766602,0.6340999603271484,3.401099920272827
1683006739144482600,16.583482666015627,0.6452999711036682,-0.025999998673796654,3.8925998210906982
1683006739164484000,16.603484130859375,0.8104999661445618,-0.22929999232292175,4.150599956512451
1683006739184484000,16.623484130859374,0.5992000102996826,-0.13899999856948853,3.2908999919891357
1683006739204482600,16.643482666015625,0.18310000002384186,-0.23269999027252197,0.8524999618530273
1683006739224482600,16.663482666015625,0.025499999523162842,-1.156000018119812,-0.6050999760627747
1683006739244482600,16.683482666015625,0.44739997386932373,-2.2054998874664307,0.5625
1683006739264482600,16.703482666015624,0.6119999885559082,-2.416599988937378,3.1166999340057373
1683006739284482600,16.723482666015624,-0.017899999395012856,-2.085700035095215,3.4702999591827393
1683006739304482600,16.743482666015623,-0.23649999499320984,-1.9139999151229858,1.1481000185012817
1683006739324482600,16.763482666015626,0.3252999782562256,-2.125699996948242,-1.264299988746643
1683006739344482600,16.783482666015626,0.510699987411499,-2.270599842071533,-2.6085000038146973
1683006739364482600,16.803482666015626,-0.052299998700618744,-2.261399984359741,-3.2963998317718506
1683006739384482600,16.823482666015625,-0.8540999889373779,-1.8838999271392822,-3.176999807357788
1683006739404482600,16.843482666015625,-1.1121000051498413,-1.3122999668121338,-2.7380998134613037
1683006739424482600,16.863482666015624,-0.9891999959945679,-0.7382000088691711,-2.3753998279571533
1683006739444482600,16.883482666015624,-0.7405999898910522,-0.3427000045776367,-2.107499837875366
1683006739464482600,16.903482666015623,-0.597000002861023,-0.05779999867081642,-1.8986999988555908
1683006739484482600,16.923482666015627,-0.44369998574256897,0.09149999916553497,-1.574199914932251
1683006739504482600,16.943482666015626,-0.20559999346733093,0.17749999463558197,-1.0743999481201172
1683006739524482600,16.963482666015626,0.11879999935626984,0.2669000029563904,-0.7411999702453613
1683006739544482600,16.983482666015625,0.41589999198913574,0.3840000033378601,-0.8096999526023865
1683006739564482600,17.003482666015625,0.4927999973297119,0.4585999846458435,-1.2218999862670898
1683006739584482600,17.023482666015624,0.6035999655723572,0.47099998593330383,-1.2314000129699707
1683006739604482600,17.043482666015624,0.6363999843597412,0.6121999621391296,-0.7001999616622925
1683006739624482600,17.063482666015624,0.5916999578475952,0.8553999662399292,0.30159997940063477
1683006739644482600,17.083482666015627,0.5622999668121338,1.0746999979019165,1.2038999795913696
1683006739664484000,17.103484130859375,0.6162999868392944,1.0622999668121338,1.9088999032974243
1683006739684484000,17.123484130859374,0.9677000045776367,0.9763000011444092,2.230799913406372
1683006739704482600,17.143482666015625,1.2401000261306763,0.8290999531745911,2.162099838256836
1683006739724482600,17.163482666015625,1.1962000131607056,0.13099999725818634,3.0645999908447266
1683006739744482600,17.183482666015625,1.1518999338150024,-0.2524999976158142,4.446199893951416
1683006739764482600,17.203482666015624,0.88919997215271,-0.2833999991416931,4.896500110626221
1683006739784482600,17.223482666015624,0.6523999571800232,-0.035999998450279236,3.671299934387207
1683006739804482600,17.243482666015623,0.7067999839782715,0.4390999972820282,0.42659997940063477
1683006739824482600,17.263482666015626,0.8513999581336975,0.4578999876976013,-2.2555999755859375
1683006739844482600,17.283482666015626,1.0490999221801758,0.042899999767541885,-2.1303999423980713
1683006739864482600,17.303482666015626,0.09600000083446503,-0.35519999265670776,-0.2821999788284302
1683006739884485600,17.323485595703126,-1.1229000091552734,-0.5008000135421753,1.5995999574661255
1683006739904485600,17.343485595703125,-2.0170998573303223,-0.5450999736785889,2.1782000064849854
1683006739924484000,17.363484130859376,-1.497399926185608,-0.9835000038146973,1.4566999673843384
1683006739944484000,17.383484130859376,0.053700000047683716,-1.128999948501587,-0.053700000047683716
1683006739964482600,17.403482666015623,1.1281999349594116,-1.3371999263763428,-1.0465999841690063
1683006739984482600,17.423482666015627,1.3280999660491943,-1.5752999782562256,-1.84089994430542
1683006740004482600,17.443482666015626,0.8276999592781067,-1.407599925994873,-2.517899990081787
1683006740024482600,17.463482666015626,-0.257099986076355,-1.1550999879837036,-2.7054998874664307
1683006740044482600,17.483482666015625,-0.6164999604225159,-0.7865999937057495,-2.440999984741211
1683006740064482600,17.503482666015625,-0.7087000012397766,-0.4958999752998352,-2.086699962615967
1683006740084482600,17.523482666015624,-0.8873999714851379,-0.29889997839927673,-2.0460000038146973
1683006740104485600,17.543485595703125,-1.0047999620437622,-0.08049999922513962,-1.8388999700546265
1683006740124484000,17.563484130859376,-0.9449999928474426,0.14239999651908875,-1.3281999826431274
1683006740144482600,17.583482666015627,-0.65829998254776,0.3536999821662903,-0.9736999869346619
1683006740164482600,17.603482666015626,-0.849399983882904,0.4341000020503998,-0.8633999824523926
1683006740184482600,17.623482666015626,-0.06499999761581421,0.9573999643325806,-1.226599931716919
1683006740204482600,17.643482666015625,-0.7152000069618225,0.8004999756813049,-0.8772000074386597
1683006740224482600,17.663482666015625,-0.646399974822998,0.8980000019073486,-0.32420000433921814
1683006740244482600,17.683482666015625,-0.6223999857902527,1.1217999458312988,0.4153999984264374
1683006740264482600,17.703482666015624,-0.4511999785900116,1.149899959564209,1.2237999439239502
1683006740284482600,17.723482666015624,-0.3208000063896179,1.0821999311447144,2.147599935531616
1683006740304482600,17.743482666015623,-0.1753999888896942,1.0641999244689941,2.735999822616577
1683006740324482600,17.763482666015626,-0.15060000121593475,0.9442999958992004,2.8248000144958496
1683006740344482600,17.783482666015626,-0.11620000004768372,0.37039998173713684,2.541800022125244
1683006740364482600,17.803482666015626,0.22999998927116394,-0.319599986076355,2.6708998680114746
1683006740384482600,17.823482666015625,0.6726999878883362,-0.5496999621391296,3.065699815750122
1683006740404485600,17.843485595703125,0.5358999967575073,-0.17479999363422394,2.853799819946289
1683006740424485600,17.863485595703125,0.15219999849796295,0.3367999792098999,1.57260000705719
1683006740444482600,17.883482666015624,-0.020399998873472214,-0.1501999944448471,0.4754999876022339
1683006740464482600,17.903482666015623,0.3046000003814697,-1.0364999771118164,0.9508999586105347
1683006740484482600,17.923482666015627,0.6377999782562256,-1.6014000177383423,2.5625998973846436
1683006740504482600,17.943482666015626,0.13319998979568481,-1.695599913597107,3.1908998489379883
1683006740524482600,17.963482666015626,-0.25849997997283936,-1.6919000148773193,1.4057999849319458
1683006740544482600,17.983482666015625,0.38819998502731323,-1.952699899673462,-0.9637999534606934
1683006740564482600,18.003482666015625,0.982699990272522,-2.05079984664917,-2.2851998805999756
1683006740584482600,18.023482666015624,0.8136999607086182,-2.1664998531341553,-2.3777999877929688
1683006740604482600,18.043482666015624,-0.12879998981952667,-2.0262999534606934,-1.9850999116897583
1683006740624482600,18.063482666015624,-0.642799973487854,-1.6028999090194702,-1.6073999404907227
1683006740644482600,18.083482666015627,-0.7800999879837036,-1.2594000101089478,-1.435499906539917
1683006740664482600,18.103482666015626,-0.6054999828338623,-0.9813999533653259,-1.9268999099731445
1683006740684485600,18.123485595703126,-0.18859998881816864,-0.8969999551773071,-2.061800003051758
1683006740704484000,18.143484130859374,0.02669999934732914,-0.7745999693870544,-1.9916999340057373
1683006740724482600,18.163482666015625,-0.12759999930858612,-0.7215999960899353,-1.757200002670288
1683006740744482600,18.183482666015625,-0.23019999265670776,-0.5605999827384949,-1.5525999069213867
1683006740764482600,18.203482666015624,-0.15779998898506165,-0.29739999771118164,-1.2589999437332153
1683006740784482600,18.223482666015624,-0.06129999831318855,0.03830000013113022,-1.014799952507019
1683006740804482600,18.243482666015623,0.0016999999061226845,0.29580000042915344,-0.7813000082969666
1683006740824482600,18.263482666015626,0.04639999940991402,0.43389999866485596,-0.5970999598503113
1683006740844482600,18.283482666015626,0.2541999816894531,0.6000999808311462,-0.1768999993801117
1683006740864482600,18.303482666015626,0.5378000140190125,0.6748999953269958,0.7918999791145325
1683006740884482600,18.323482666015625,0.7094999551773071,0.8021000027656555,1.6901999711990356
1683006740904482600,18.343482666015625,0.7856999635696411,0.9408999681472778,2.165799856185913
1683006740924484000,18.363484130859376,1.0205999612808228,0.8693000078201294,2.1522998809814453
1683006740944482600,18.383482666015624,1.1064000129699707,0.8841999769210815,1.6897000074386597
1683006740964482600,18.403482666015623,0.8816999793052673,0.6801999807357788,1.8456000089645386
1683006740984482600,18.423482666015627,0.7937999963760376,0.3659999966621399,3.0486998558044434
1683006741004482600,18.443482666015626,0.6820999979972839,0.5791000127792358,3.5048999786376953
1683006741024482600,18.463482666015626,0.765999972820282,0.5397999882698059,3.187299966812134
1683006741044482600,18.483482666015625,1.1550999879837036,0.32589998841285706,2.1250998973846436
1683006741064482600,18.503482666015625,1.188099980354309,0.08779999613761902,0.09389999508857727
1683006741084482600,18.523482666015624,0.9764999747276306,-0.3595999777317047,-1.1129000186920166
1683006741104482600,18.543482666015624,0.8253999948501587,-0.967199981212616,-0.8477999567985535
1683006741124482600,18.563482666015624,0.32739999890327454,-1.1769999265670776,0.02579999901354313
1683006741144482600,18.583482666015627,-0.536300003528595,-1.1050000190734863,0.9470999836921692
1683006741164482600,18.603482666015626,-0.9606999754905701,-0.9613999724388123,0.8460999727249146
1683006741184482600,18.623482666015626,-0.6042999625205994,-1.069000005722046,0.15629999339580536
1683006741204482600,18.643482666015625,0.09019999951124191,-1.0989999771118164,-0.6284999847412109
1683006741224482600,18.663482666015625,0.1160999983549118,-1.0405999422073364,-1.26419997215271
1683006741244482600,18.683482666015625,-0.2985999882221222,-1.0343999862670898,-1.5870000123977661
1683006741264482600,18.703482666015624,-0.7213999629020691,-1.0618000030517578,-1.8996999263763428
1683006741284482600,18.723482666015624,-0.9407999515533447,-0.8831999897956848,-2.279599905014038
1683006741304482600,18.743482666015623,-0.9370999932289124,-0.6373999714851379,-2.159299850463867
1683006741324482600,18.763482666015626,-0.7209999561309814,-0.33069998025894165,-1.6279999017715454
1683006741344482600,18.783482666015626,-0.38599997758865356,-0.01589999906718731,-1.2448999881744385
1683006741364482600,18.803482666015626,-0.18979999423027039,0.22059999406337738,-0.9595999717712402
1683006741384482600,18.823482666015625,-0.09959999471902847,0.44599997997283936,-0.7709999680519104
1683006741404482600,18.843482666015625,-0.21959999203681946,0.5995999574661255,-0.7960000038146973
1683006741424484000,18.863484130859376,-0.49889999628067017,0.704800009727478,-1.0468999147415161
1683006741444482600,18.883482666015624,-0.8136999607086182,0.8032000064849854,-1.250100016593933
1683006741464482600,18.903482666015623,-1.062399983406067,0.8619999885559082,-1.3350999355316162
1683006741484482600,18.923482666015627,-1.0633000135421753,0.9448999762535095,-1.0572999715805054
1683006741504482600,18.943482666015626,-0.8746999502182007,1.0882999897003174,-0.18239998817443848
1683006741524482600,18.963482666015626,-0.6074000000953674,1.1292999982833862,0.6326000094413757
1683006741544482600,18.983482666015625,-0.18029999732971191,1.1434999704360962,1.2699999809265137
1683006741564482600,19.003482666015625,0.12600000202655792,1.1198999881744385,1.68149995803833
1683006741584482600,19.023482666015624,0.2078000009059906,1.0181999206542969,2.1424999237060547
1683006741604482600,19.043482666015624,0.1445000022649765,0.7396999597549438,2.535099983215332
1683006741624482600,19.063482666015624,0.041099999099969864,0.33709999918937683,2.5256998538970947
1683006741644482600,19.083482666015627,0.19099999964237213,-0.29789999127388,2.9784998893737793
1683006741664482600,19.103482666015626,0.5102999806404114,-0.5339999794960022,3.520900011062622
1683006741684482600,19.123482666015626,0.5888999700546265,-0.45339998602867126,3.4961998462677
1683006741704482600,19.143482666015625,0.7057999968528748,0.0421999990940094,2.3620998859405518
1683006741724482600,19.163482666015625,0.6563999652862549,0.2963999807834625,0.776199996471405
1683006741744482600,19.183482666015625,0.7028999924659729,-0.052299998700618744,0.033299997448921204
1683006741764482600,19.203482666015624,0.644599974155426,-0.8524999618530273,0.914900004863739
1683006741784484000,19.223484130859376,0.5496999621391296,-1.312999963760376,2.72409987449646
1683006741804482600,19.243482666015623,-0.16040000319480896,-1.1639000177383423,2.6689000129699707
1683006741824482600,19.263482666015626,-0.36249998211860657,-1.3138999938964844,0.6644999980926514
1683006741844482600,19.283482666015626,0.4253000020980835,-1.583299994468689,-1.1796000003814697
1683006741864482600,19.303482666015626,0.4056999981403351,-1.9083999395370483,-2.1198999881744385
1683006741884482600,19.323482666015625,-0.6466000080108643,-2.186699867248535,-2.4159998893737793
1683006741904482600,19.343482666015625,-1.3794000148773193,-1.9892998933792114,-2.331399917602539
1683006741924482600,19.363482666015624,-1.5001999139785767,-1.5121999979019165,-2.148699998855591
1683006741944482600,19.383482666015624,-1.1532000303268433,-1.0913000106811523,-2.0615999698638916
1683006741964482600,19.403482666015623,-0.6525999903678894,-0.7634999752044678,-2.0909998416900635
1683006741984482600,19.423482666015627,-0.4652999937534332,-0.7204999923706055,-1.8472999334335327
1683006742004482600,19.443482666015626,-0.5640000104904175,-0.6674000024795532,-1.4674999713897705
1683006742024485600,19.463485595703126,-0.4659999907016754,-0.4350999891757965,-0.9792999625205994
1683006742044485600,19.483485595703126,-0.21130000054836273,-0.15850000083446503,-0.5292999744415283
1683006742064482600,19.503482666015625,0.11899999529123306,0.06340000033378601,-0.43219998478889465
1683006742084482600,19.523482666015624,0.4245999753475189,0.2897000014781952,-0.6787999868392944
1683006742104482600,19.543482666015624,0.4730999767780304,0.40849998593330383,-0.9147999882698059
1683006742124482600,19.563482666015624,0.3885999917984009,0.5755999684333801,-0.7477999925613403
1683006742144482600,19.583482666015627,0.2524999976158142,0.6327999830245972,-0.1297999918460846
1683006742164482600,19.603482666015626,0.3637999892234802,0.6985999941825867,0.39800000190734863
1683006742184482600,19.623482666015626,0.854200005531311,0.655299961566925,1.062399983406067
1683006742204482600,19.643482666015625,1.584399938583374,0.7156999707221985,1.5799999237060547
1683006742224482600,19.663482666015625,1.8671000003814697,0.9013999700546265,1.2942999601364136
1683006742244482600,19.683482666015625,1.8224999904632568,0.7393999695777893,1.364300012588501
1683006742264482600,19.703482666015624,1.5860999822616577,0.2992999851703644,2.828399896621704
1683006742284482600,19.723482666015624,1.1949999332427979,0.37599998712539673,4.126999855041504
1683006742304482600,19.743482666015623,0.7678999900817871,0.44419997930526733,4.307799816131592
1683006742324482600,19.763482666015626,0.8561999797821045,0.4537999927997589,2.5541000366210938
1683006742344482600,19.783482666015626,1.0282000303268433,0.33489999175071716,-0.1907999962568283
1683006742364485600,19.803485595703126,0.9810999631881714,-0.19449999928474426,-1.305899977684021
1683006742384485600,19.823485595703126,0.33169999718666077,-0.9412999749183655,-0.8504999876022339
1683006742404484000,19.843484130859373,-0.8269000053405762,-1.3561999797821045,0.22829999029636383
1683006742424484000,19.863484130859376,-1.3672000169754028,-1.386799931526184,1.3421000242233276
1683006742444482600,19.883482666015624,-0.7989999651908875,-1.2431999444961548,1.7394999265670776
1683006742464482600,19.903482666015623,0.21469999849796295,-1.0994999408721924,0.9514999985694885
1683006742484482600,19.923482666015627,0.5076999664306641,-1.0925999879837036,-0.37449997663497925
1683006742504482600,19.943482666015626,0.5072000026702881,-1.11489999294281,-1.257200002670288
1683006742524482600,19.963482666015626,0.12399999797344208,-1.0582000017166138,-1.6868999004364014
1683006742544482600,19.983482666015625,-0.5407999753952026,-0.9549999833106995,-1.8808999061584473
1683006742564482600,20.003482666015625,-0.9687999486923218,-0.6714000105857849,-2.241799831390381
1683006742584482600,20.023482666015624,-1.0678999423980713,-0.4432999789714813,-2.180299997329712
1683006742604485600,20.043485595703125,-0.9334999918937683,-0.1396999955177307,-1.765299916267395
1683006742624485600,20.063485595703124,-0.6757999658584595,0.028599999845027924,-1.1341999769210815
1683006742644485600,20.083485595703124,-0.4918999969959259,0.2800999879837036,-0.8955999612808228
1683006742664484000,20.103484130859375,-0.5146999955177307,0.48669999837875366,-0.8240999579429626
1683006742684482600,20.123482666015626,-0.6579999923706055,0.6414999961853027,-0.8896999955177307
1683006742704482600,20.143482666015625,-0.8334999680519104,0.7878999710083008,-1.0930999517440796
1683006742724482600,20.163482666015625,-0.9972999691963196,0.9333999752998352,-1.0713999271392822
1683006742744482600,20.183482666015625,-1.0901999473571777,1.0765999555587769,-1.1582000255584717
1683006742764482600,20.203482666015624,-0.9574999809265137,1.1399999856948853,-0.9116999506950378
1683006742784482600,20.223482666015624,-0.691100001335144,1.148800015449524,-0.28329998254776
1683006742804482600,20.243482666015623,-0.3285999894142151,1.171299934387207,0.5011000037193298
1683006742824482600,20.263482666015626,-0.017999999225139618,1.1756999492645264,1.4021999835968018
1683006742844484000,20.283484130859375,0.02850000001490116,1.1064000129699707,2.15559983253479
1683006742864484000,20.303484130859374,-0.07360000163316727,0.8183000087738037,2.740999937057495
1683006742884482600,20.323482666015625,-0.2474999874830246,0.29350000619888306,2.865000009536743
1683006742904482600,20.343482666015625,0.11239999532699585,-0.5180999636650085,3.4891998767852783
1683006742924482600,20.363482666015624,0.6556000113487244,-0.9662999510765076,4.33929967880249
1683006742944482600,20.383482666015624,0.7712999582290649,-0.9651999473571777,4.082600116729736
1683006742964482600,20.403482666015623,0.7346999645233154,-0.859499990940094,3.0418999195098877
1683006742984482600,20.423482666015627,0.6140999794006348,-0.9102999567985535,1.1888999938964844
1683006743004482600,20.443482666015626,0.2498999983072281,-1.1538000106811523,-0.6916999816894531
1683006743024482600,20.463482666015626,0.44419997930526733,-1.6869999170303345,-0.8356999754905701
1683006743044482600,20.483482666015625,0.8313999772071838,-1.8292999267578125,0.802299976348877
1683006743064482600,20.503482666015625,0.7493000030517578,-1.3148000240325928,2.0571999549865723
1683006743084482600,20.523482666015624,-0.011799999512732029,-0.9127999544143677,1.3019999265670776
1683006743104482600,20.543482666015624,-0.28610000014305115,-1.132699966430664,-0.5902999639511108
1683006743124482600,20.563482666015624,-0.25939998030662537,-1.5261999368667603,-1.5087999105453491
1683006743144482600,20.583482666015627,-0.660099983215332,-1.81659996509552,-1.6434999704360962
1683006743164485600,20.603485595703123,-1.1625999212265015,-1.7235000133514404,-1.5257999897003174
1683006743184482600,20.623482666015626,-1.169600009918213,-1.3453999757766724,-1.5561000108718872
1683006743204482600,20.643482666015625,-0.7102000117301941,-0.996399998664856,-1.7904999256134033
1683006743224482600,20.663482666015625,-0.4306999742984772,-0.7947999835014343,-2.277400016784668
1683006743244482600,20.683482666015625,-0.5164999961853027,-0.6732000112533569,-2.4305999279022217
1683006743264482600,20.703482666015624,-0.824999988079071,-0.6452999711036682,-2.1050000190734863
1683006743284482600,20.723482666015624,-1.0211999416351318,-0.6182000041007996,-1.594599962234497
1683006743304482600,20.743482666015623,-0.8101999759674072,-0.3836999833583832,-0.8187999725341797
1683006743324482600,20.763482666015626,-0.4382999837398529,-0.13050000369548798,-0.09139999747276306
1683006743344482600,20.783482666015626,-0.0004999999655410647,0.17520000040531158,0.0949999988079071
1683006743364482600,20.803482666015626,0.43359997868537903,0.42319998145103455,-0.002899999963119626
1683006743384482600,20.823482666015625,0.7665999531745911,0.674299955368042,-0.30539998412132263
1683006743404482600,20.843482666015625,0.723800003528595,0.9129999876022339,-0.3917999863624573
1683006743424482600,20.863482666015624,0.4980999827384949,1.1563999652862549,0.06129999831318855
1683006743444482600,20.883482666015624,0.23839999735355377,1.277400016784668,0.7386999726295471
1683006743464482600,20.903482666015623,0.4244999885559082,1.1871999502182007,1.6796000003814697
1683006743484482600,20.923482666015627,0.652899980545044,1.0473999977111816,2.294999837875366
1683006743504482600,20.943482666015626,0.873699963092804,0.9351999759674072,1.6727999448776245
1683006743524482600,20.963482666015626,0.7750999927520752,0.7515000104904175,0.5607999563217163
1683006743544482600,20.983482666015625,0.7195000052452087,0.025200000032782555,1.1080999374389648
1683006743564482600,21.003482666015625,0.7179999947547913,-0.26569998264312744,2.586699962615967
1683006743584482600,21.023482666015624,0.39469999074935913,0.023099999874830246,3.2231998443603516
1683006743604482600,21.043482666015624,0.16409999132156372,0.16699999570846558,3.1225998401641846
1683006743624482600,21.063482666015624,0.4307999908924103,0.31679999828338623,1.4330999851226807
1683006743644482600,21.083482666015627,0.13599999248981476,0.2662999927997589,-0.5198999643325806
1683006743664482600,21.103482666015626,0.2238999903202057,-0.3385999798774719,-0.3634999990463257
1683006743684482600,21.123482666015626,0.2531000077724457,-0.6407999992370605,0.44029998779296875
1683006743704482600,21.143482666015625,-0.6116999983787537,-0.9368000030517578,1.1934000253677368
1683006743724482600,21.163482666015625,-1.337999939918518,-1.263800024986267,1.1380000114440918
1683006743744482600,21.183482666015625,-1.1440999507904053,-1.5996999740600586,0.2782999873161316
1683006743764482600,21.203482666015624,-0.7188999652862549,-1.6466999053955078,-0.7540000081062317
1683006743784482600,21.223482666015624,-0.3463999927043915,-1.4423999786376953,-1.4778000116348267
1683006743804482600,21.243482666015623,-0.46449998021125793,-1.1114000082015991,-1.9066998958587646
1683006743824482600,21.263482666015626,-0.840399980545044,-0.7185999751091003,-1.7002999782562256
1683006743844482600,21.283482666015626,-0.9000999927520752,-0.3328999876976013,-1.327199935913086
1683006743864482600,21.303482666015626,-0.8455999493598938,-0.008899999782443047,-1.3156999349594116
1683006743884482600,21.323482666015625,-0.722599983215332,0.23669999837875366,-1.382599949836731
1683006743904484000,21.343484130859373,-0.5644999742507935,0.43449997901916504,-1.2835999727249146
1683006743924482600,21.363482666015624,-0.30719998478889465,0.6541000008583069,-1.1061999797821045
1683006743944482600,21.383482666015624,-0.2402999997138977,0.8271999955177307,-0.9473999738693237
1683006743964482600,21.403482666015623,-0.2824999988079071,0.8980000019073486,-0.8671999573707581
1683006743984482600,21.423482666015627,-0.373199999332428,0.9452999830245972,-0.9052000045776367
1683006744004482600,21.443482666015626,-0.6028000116348267,1.0447999238967896,-1.2376999855041504
1683006744024482600,21.463482666015626,-0.8299999833106995,1.1431000232696533,-1.4514999389648438
1683006744044482600,21.483482666015625,-1.0490000247955322,1.174399971961975,-1.3410999774932861
1683006744064482600,21.503482666015625,-1.0077999830245972,1.1601999998092651,-0.7605999708175659
1683006744084482600,21.523482666015624,-0.9228999614715576,1.1527999639511108,0.34759998321533203
1683006744104482600,21.543482666015624,-0.7567999958992004,1.1969000101089478,1.3069000244140625
1683006744124482600,21.563482666015624,-0.2929999828338623,1.1796000003814697,2.3339998722076416
1683006744144482600,21.583482666015627,0.09719999879598618,1.1299999952316284,3.076200008392334
1683006744164482600,21.603482666015626,0.37689998745918274,0.8817999958992004,3.3474998474121094
1683006744184491800,21.62349169921875,0.5442999601364136,0.4007999897003174,3.512399911880493
1683006744204482600,21.643482666015625,0.8579999804496765,-0.30309998989105225,4.013000011444092
1683006744224482600,21.663482666015625,0.9279999732971191,-0.6988999843597412,3.790299892425537
1683006744244482600,21.683482666015625,0.6983999609947205,-0.707099974155426,2.7655999660491943
1683006744264482600,21.703482666015624,0.3564999997615814,-0.5630999803543091,1.270900011062622
1683006744284482600,21.723482666015624,0.06030000001192093,-0.5712999701499939,-0.27129998803138733
1683006744304482600,21.743482666015623,0.08739999681711197,-1.0073000192642212,-0.5792999863624573
1683006744324482600,21.763482666015626,0.39729997515678406,-1.4503999948501587,0.46209999918937683
1683006744344482600,21.783482666015626,0.5643999576568604,-1.48989999294281,1.7832999229431152
1683006744364482600,21.803482666015626,0.3734999895095825,-1.4016000032424927,1.7882999181747437
1683006744384482600,21.823482666015625,0.23979999125003815,-1.507099986076355,0.3344999849796295
1683006744404482600,21.843482666015625,0.5141000151634216,-1.7086999416351318,-1.1629999876022339
1683006744424482600,21.863482666015624,0.0030999998562037945,-1.9678999185562134,-2.0012998580932617
1683006744444482600,21.883482666015624,-1.0820999145507812,-2.1270999908447266,-2.1473000049591064
1683006744464482600,21.903482666015623,-1.8559999465942383,-1.7745999097824097,-2.179499864578247
1683006744484482600,21.923482666015627,-2.0176000595092773,-1.3767999410629272,-1.5572999715805054
1683006744504482600,21.943482666015626,-1.261699914932251,-0.8563999533653259,-1.3131999969482422
1683006744524482600,21.963482666015626,-0.4481000006198883,-0.541700005531311,-1.5834999084472656
1683006744544482600,21.983482666015625,-0.027799999341368675,-0.44449999928474426,-1.76419997215271
1683006744564482600,22.003482666015625,0.12889999151229858,-0.39149999618530273,-1.4570999145507812
1683006744584482600,22.023482666015624,-0.03720000013709068,-0.3369999825954437,-1.2417999505996704
1683006744604482600,22.043482666015624,-0.12639999389648438,-0.0608999989926815,-1.007699966430664
1683006744624482600,22.063482666015624,-0.16200000047683716,0.42479997873306274,-0.7138999700546265
1683006744644482600,22.083482666015627,-0.12619999051094055,0.7529999613761902,-0.21319998800754547
1683006744664482600,22.103482666015626,0.08509999513626099,1.0889999866485596,-0.06509999930858612
1683006744684482600,22.123482666015626,0.3188000023365021,1.4211000204086304,-0.3075000047683716
1683006744704482600,22.143482666015625,0.2313999980688095,1.4193999767303467,-0.11819999665021896
1683006744724482600,22.163482666015625,0.14350000023841858,1.295199990272522,0.5885999798774719
1683006744744482600,22.183482666015625,0.34869998693466187,1.0875999927520752,1.6073999404907227
1683006744764482600,22.203482666015624,0.5924999713897705,0.9328999519348145,2.349400043487549
1683006744784482600,22.223482666015624,0.9357999563217163,0.9297999739646912,2.257200002670288
1683006744804482600,22.243482666015623,0.9995999932289124,0.7408999800682068,1.6270999908447266
1683006744824482600,22.263482666015626,0.7001000046730042,0.12389999628067017,1.9966999292373657
1683006744844482600,22.283482666015626,0.27549999952316284,-0.19629999995231628,3.658900022506714
1683006744864482600,22.303482666015626,0.07339999824762344,-0.2246999889612198,4.366600036621094
1683006744884482600,22.323482666015625,0.5328999757766724,-0.2922999858856201,3.6703999042510986
1683006744904482600,22.343482666015625,1.3845999240875244,-0.004299999680370092,1.2591999769210815
1683006744924482600,22.363482666015624,1.7716000080108643,0.21490000188350677,-1.5297999382019043
1683006744944482600,22.383482666015624,1.920799970626831,-0.31790000200271606,-2.234499931335449
1683006744964485600,22.403485595703124,0.8351999521255493,-1.0793999433517456,-0.6642999649047852
1683006744984485600,22.423485595703124,-0.948699951171875,-1.4198999404907227,0.7152000069618225
1683006745004485600,22.443485595703127,-2.0255000591278076,-1.1639999151229858,1.0521999597549438
1683006745024482600,22.463482666015626,-2.0207998752593994,-1.065500020980835,0.524899959564209
1683006745044482600,22.483482666015625,-0.4756999909877777,-1.0576999187469482,-0.29269999265670776
1683006745064482600,22.503482666015625,0.2863999903202057,-0.984499990940094,-1.3019999265670776
1683006745084482600,22.523482666015624,0.2842999994754791,-1.191999912261963,-1.810499906539917
1683006745104482600,22.543482666015624,-0.08410000056028366,-1.222999930381775,-2.122999906539917
1683006745124482600,22.563482666015624,-0.5727999806404114,-1.1692999601364136,-2.2000999450683594
1683006745144482600,22.583482666015627,-0.6940999627113342,-1.0511000156402588,-2.1492998600006104
1683006745164482600,22.603482666015626,-0.45969998836517334,-0.7701999545097351,-2.058799982070923
1683006745184491800,22.62349169921875,-0.06279999762773514,-0.45260000228881836,-1.6933999061584473
1683006745204482600,22.643482666015625,0.09009999781847,-0.16929998993873596,-1.327199935913086
1683006745224482600,22.663482666015625,0.13689999282360077,0.15330000221729279,-0.9487999677658081
1683006745244482600,22.683482666015625,-0.2515999972820282,0.3506999909877777,-0.8438000082969666
1683006745264482600,22.703482666015624,-0.780299961566925,0.5724999904632568,-0.7972999811172485
1683006745284485600,22.723485595703124,-1.1850999593734741,0.8658999800682068,-0.35920000076293945
1683006745304482600,22.743482666015623,-1.7515000104904175,1.146399974822998,-0.04149999842047691
1683006745324482600,22.763482666015626,-2.066499948501587,1.3481999635696411,0.20549999177455902
1683006745344482600,22.783482666015626,-1.626599907875061,1.410499930381775,0.1492999941110611
1683006745364482600,22.803482666015626,-0.7781999707221985,1.3931999206542969,-0.05260000005364418
1683006745384482600,22.823482666015625,-0.17109999060630798,1.4204999208450317,0.20509999990463257
1683006745404482600,22.843482666015625,-0.07719999551773071,1.3258999586105347,1.1958999633789062
1683006745424482600,22.863482666015624,-0.3042999804019928,1.3193999528884888,2.263000011444092
1683006745444482600,22.883482666015624,-0.567799985408783,1.1043999195098877,2.7985999584198
1683006745464482600,22.903482666015623,-0.4203999936580658,0.4802999794483185,2.8626999855041504
1683006745484482600,22.923482666015627,0.16179999709129333,-0.25599998235702515,3.005699872970581
1683006745504485600,22.943485595703127,0.6732999682426453,-0.6776999831199646,3.179800033569336
1683006745524482600,22.963482666015626,0.9574999809265137,-0.7145000100135803,3.246799945831299
1683006745544482600,22.983482666015625,1.0856999158859253,-0.2728999853134155,1.9325999021530151
1683006745564482600,23.003482666015625,0.9939000010490417,-0.042500000447034836,0.36550000309944153
1683006745584482600,23.023482666015624,1.0444999933242798,-0.5115999579429626,0.14959999918937683
1683006745604482600,23.043482666015624,1.0795999765396118,-1.0504999160766602,0.941100001335144
1683006745624482600,23.063482666015624,0.6413999795913696,-1.136199951171875,2.122999906539917
1683006745644482600,23.083482666015627,-0.14249999821186066,-1.1181999444961548,2.72379994392395
1683006745664482600,23.103482666015626,-0.6342999935150146,-1.1132999658584595,1.5399999618530273
1683006745684482600,23.123482666015626,-0.42309999465942383,-1.2798999547958374,-0.06079999729990959
1683006745704482600,23.143482666015625,-0.16599999368190765,-1.7775999307632446,-1.2443000078201294
1683006745724482600,23.163482666015625,-0.25049999356269836,-2.018699884414673,-2.2311999797821045
1683006745744482600,23.183482666015625,-0.436599999666214,-1.9815999269485474,-2.544100046157837
1683006745764482600,23.203482666015624,-0.6974999904632568,-1.661099910736084,-2.4395999908447266
1683006745784482600,23.223482666015624,-0.753600001335144,-1.2382999658584595,-2.129199981689453
1683006745804482600,23.243482666015623,-0.5444999933242798,-0.7793999910354614,-1.8355998992919922
1683006745824482600,23.263482666015626,-0.4096999764442444,-0.3473999798297882,-1.6582999229431152
1683006745844482600,23.283482666015626,-0.5667999982833862,-0.07979999482631683,-1.5326999425888062
1683006745864482600,23.303482666015626,-0.6328999996185303,-0.01489999983459711,-0.9781999588012695
1683006745884482600,23.323482666015625,-0.468099981546402,0.009499999694526196,-0.4931999742984772
1683006745904482600,23.343482666015625,-0.21239998936653137,-0.0697999969124794,-0.22299998998641968
1683006745924482600,23.363482666015624,0.03999999910593033,-0.18369999527931213,-0.44290000200271606
1683006745944482600,23.383482666015624,0.2888000011444092,-0.19329999387264252,-0.9369999766349792
1683006745964482600,23.403482666015623,0.6054999828338623,-0.1021999940276146,-0.8513999581336975
1683006745984482600,23.423482666015627,0.7930999994277954,0.12389999628067017,-0.44200000166893005
1683006746004482600,23.443482666015626,0.8326999545097351,0.29269999265670776,0.3005000054836273
1683006746024482600,23.463482666015626,0.8445000052452087,0.4666000008583069,0.9652999639511108
1683006746044482600,23.483482666015625,0.818399965763092,0.5777999758720398,1.5037999153137207
1683006746064482600,23.503482666015625,0.6656000018119812,0.7597000002861023,1.6801999807357788
1683006746084482600,23.523482666015624,0.3425999879837036,0.7691999673843384,1.3276000022888184
1683006746104484000,23.543484130859376,0.35349997878074646,0.5397999882698059,1.4358999729156494
1683006746124482600,23.563482666015624,0.9567999839782715,0.350600004196167,2.984999895095825
1683006746144482600,23.583482666015627,1.3753999471664429,0.6525999903678894,4.006099700927734
1683006746164482600,23.603482666015626,1.0440999269485474,0.7209999561309814,4.196099758148193
1683006746184491800,23.62349169921875,0.5073999762535095,0.6882999539375305,2.5980000495910645
1683006746204482600,23.643482666015625,0.24629999697208405,0.5579000115394592,0.039799999445676804
1683006746224482600,23.663482666015625,0.04619999974966049,0.053599998354911804,-1.878600001335144
1683006746244482600,23.683482666015625,0.028299998492002487,-0.7692999839782715,-1.4829999208450317
1683006746264482600,23.703482666015624,-0.05069999769330025,-1.0857999324798584,0.26249998807907104
1683006746284482600,23.723482666015624,-0.15039999783039093,-1.0509999990463257,1.7288999557495117
1683006746304482600,23.743482666015623,-0.2712000012397766,-1.2034000158309937,1.2317999601364136
1683006746324482600,23.763482666015626,0.17719998955726624,-1.500499963760376,-0.5570999979972839
1683006746344482600,23.783482666015626,0.5442000031471252,-1.5958999395370483,-1.4977999925613403
1683006746364482600,23.803482666015626,0.33629998564720154,-1.434899926185608,-1.4752999544143677
1683006746384482600,23.823482666015625,-0.7213000059127808,-1.171199917793274,-1.2681999206542969
1683006746404482600,23.843482666015625,-1.2422000169754028,-0.9080999493598938,-1.2982999086380005
1683006746424482600,23.863482666015624,-1.4312999248504639,-0.7937999963760376,-1.7206000089645386
1683006746444482600,23.883482666015624,-0.9704999923706055,-0.6728999614715576,-2.0636000633239746
1683006746464482600,23.903482666015623,-0.31439998745918274,-0.5273000001907349,-2.1510000228881836
1683006746484482600,23.923482666015627,0.06650000065565109,-0.3310999870300293,-1.9839999675750732
1683006746504482600,23.943482666015626,0.3093999922275543,-0.0007999999797903001,-1.648800015449524
1683006746524482600,23.963482666015626,0.40149998664855957,0.24329999089241028,-1.125499963760376
1683006746544482600,23.983482666015625,0.1582999974489212,0.555400013923645,-1.0429999828338623
1683006746564482600,24.003482666015625,-0.07209999859333038,0.710599958896637,-1.1464999914169312
1683006746584482600,24.023482666015624,-0.31779998540878296,0.9104999899864197,-1.2789000272750854
1683006746604482600,24.043482666015624,-0.713699996471405,1.0913000106811523,-1.2144999504089355
1683006746624482600,24.063482666015624,-0.8732999563217163,1.3632999658584595,-0.8359999656677246
1683006746644482600,24.083482666015627,-0.7639999985694885,1.4515999555587769,-0.10459999740123749
1683006746664482600,24.103482666015626,-0.5443999767303467,1.5364999771118164,0.3220999836921692
1683006746684482600,24.123482666015626,-0.21159999072551727,1.5561000108718872,0.5920000076293945
1683006746704482600,24.143482666015625,0.18539999425411224,1.4982999563217163,1.1864999532699585
1683006746724482600,24.163482666015625,0.2782000005245209,1.4120999574661255,1.9577999114990234
1683006746744482600,24.183482666015625,0.2029999941587448,1.2721999883651733,2.9036998748779297
1683006746764482600,24.203482666015624,-0.053999997675418854,0.7335000038146973,3.4463999271392822
1683006746784482600,24.223482666015624,0.29659998416900635,0.060099996626377106,3.9774999618530273
1683006746804482600,24.243482666015623,0.8556999564170837,-0.16339999437332153,4.058599948883057
1683006746824482600,24.263482666015626,0.8511999845504761,-0.26159998774528503,3.4637999534606934
1683006746844482600,24.283482666015626,0.738599956035614,-0.28200000524520874,2.1501998901367188
1683006746864484000,24.303484130859374,0.5224999785423279,-0.6060000061988831,0.511900007724762
1683006746884484000,24.323484130859374,0.9386999607086182,-1.2922999858856201,0.42329999804496765
1683006746904482600,24.343482666015625,1.4090999364852905,-1.743899941444397,1.5504000186920166
1683006746924482600,24.363482666015624,1.0643999576568604,-1.6589999198913574,2.498699903488159
1683006746944482600,24.383482666015624,0.33079999685287476,-1.5329999923706055,1.7972999811172485
1683006746964482600,24.403482666015623,0.18869999051094055,-1.5816999673843384,-0.07689999788999557
1683006746984482600,24.423482666015627,0.04099999740719795,-1.5568000078201294,-1.3467999696731567
1683006747004482600,24.443482666015626,-0.7366999983787537,-1.6735999584197998,-1.7238999605178833
1683006747024482600,24.463482666015626,-1.589900016784668,-1.6001999378204346,-1.742900013923645
1683006747044482600,24.483482666015625,-1.8345999717712402,-1.170300006866455,-1.6283999681472778
1683006747064482600,24.503482666015625,-1.4505000114440918,-0.7254999876022339,-1.689099907875061
1683006747084482600,24.523482666015624,-0.6983999609947205,-0.4180999994277954,-1.972599983215332
1683006747104482600,24.543482666015624,-0.282399982213974,-0.32409998774528503,-2.1679999828338623
1683006747124482600,24.563482666015624,-0.33820000290870667,-0.27070000767707825,-2.0316998958587646
1683006747144482600,24.583482666015627,-0.3750999867916107,-0.18320000171661377,-1.5044000148773193
1683006747164482600,24.603482666015626,-0.2612999975681305,-0.0044999998062849045,-1.0066999197006226
1683006747184491800,24.62349169921875,-0.15649999678134918,0.07009999454021454,-0.8725000023841858
1683006747204482600,24.643482666015625,0.060499999672174454,0.2069999873638153,-1.0321999788284302
1683006747224482600,24.663482666015625,0.350600004196167,0.36969998478889465,-1.1323000192642212
