time,seconds_elapsed,z,y,x
1683006722604484000,0.043484130859375,0.9016000032424927,-0.27469998598098755,9.761199951171875
1683006722624487200,0.063487060546875,0.9016000032424927,-0.27469998598098755,9.761199951171875
1683006722644482600,0.083482666015625,2.73580002784729,0.21409998834133148,9.414799690246582
1683006722664482600,0.103482666015625,2.738800048828125,0.203699991106987,9.414199829101562
1683006722684482600,0.123482666015625,2.7348999977111816,0.1736999899148941,9.415900230407715
1683006722704482600,0.143482666015625,2.741999864578247,0.05469999834895134,9.415299415588379
1683006722724482600,0.163482666015625,2.7242000102996826,0.033399999141693115,9.420599937438965
1683006722744482600,0.183482666015625,2.671799898147583,-0.006799999624490738,9.435599327087402
1683006722764482600,0.203482666015625,2.517199993133545,-0.13339999318122864,9.477099418640137
1683006722784482600,0.223482666015625,2.423099994659424,-0.3154999911785126,9.497300148010254
1683006722804482600,0.243482666015625,2.4147000312805176,-0.34279999136924744,9.498499870300293
1683006722824482600,0.263482666015625,2.414299964904785,-0.2651999890804291,9.501099586486816
1683006722844482600,0.283482666015625,2.359799861907959,-0.13619999587535858,9.517499923706055
1683006722864482600,0.303482666015625,2.311699867248535,-0.0004999999655410647,9.530200004577637
1683006722884482600,0.323482666015625,2.29259991645813,0.04129999876022339,9.534799575805664
1683006722904482600,0.343482666015625,2.267400026321411,0.054899998009204865,9.54069995880127
1683006722924482600,0.363482666015625,2.2558999061584473,0.08320000022649765,9.54319953918457
1683006722944482600,0.383482666015625,2.370699882507324,0.017099998891353607,9.51569938659668
1683006722964482600,0.403482666015625,2.4779000282287598,-0.0364999994635582,9.488299369812012
1683006722984482600,0.423482666015625,2.5351998805999756,-0.05729999765753746,9.473099708557129
1683006723004482600,0.443482666015625,2.560999870300293,-0.03909999877214432,9.46619987487793
1683006723024482600,0.463482666015625,2.6088998317718506,0.060499999672174454,9.45300006866455
1683006723044482600,0.483482666015625,2.5936999320983887,0.20969998836517334,9.455100059509277
1683006723064482600,0.503482666015625,2.5752999782562256,0.3262999951839447,9.456799507141113
1683006723084482600,0.523482666015625,2.645599842071533,0.41029998660087585,9.434100151062012
1683006723104482600,0.543482666015625,2.740499973297119,0.4659999907016754,9.40429973602295
1683006723124482600,0.563482666015625,2.8344998359680176,0.51419997215271,9.373899459838867
1683006723144482600,0.583482666015625,2.8752999305725098,0.5769999623298645,9.357799530029297
1683006723164482600,0.603482666015625,2.881899833679199,0.6128000020980835,9.353499412536621
1683006723184482600,0.623482666015625,2.831199884414673,0.649899959564209,9.366499900817871
1683006723204482600,0.643482666015625,2.7520999908447266,0.6803999543190002,9.387899398803711
1683006723224482600,0.663482666015625,2.6770999431610107,0.6882999539375305,9.408899307250977
1683006723244482600,0.683482666015625,2.6108999252319336,0.6506999731063843,9.43019962310791
1683006723264482600,0.703482666015625,2.5759999752044678,0.6051999926567078,9.44279956817627
1683006723284482600,0.723482666015625,2.5381999015808105,0.5591999888420105,9.455900192260742
1683006723304482600,0.743482666015625,2.485299825668335,0.5121999979019165,9.472599983215332
1683006723324482600,0.763482666015625,2.436800003051758,0.46389999985694885,9.487699508666992
1683006723344482600,0.783482666015625,2.399600028991699,0.423799991607666,9.49899959564209
1683006723364482600,0.803482666015625,2.350399971008301,0.3763999938964844,9.513299942016602
1683006723384482600,0.823482666015625,2.2712998390197754,0.34630000591278076,9.533699989318848
1683006723404482600,0.843482666015625,2.211699962615967,0.295199990272522,9.549399375915527
1683006723424482600,0.863482666015625,2.156100034713745,0.23579999804496765,9.563699722290039
1683006723444482600,0.883482666015625,2.0799999237060547,0.17759999632835388,9.581799507141113
1683006723464482600,0.903482666015625,1.9782999753952026,0.12439999729394913,9.604199409484863
1683006723484482600,0.923482666015625,1.8858999013900757,0.07159999758005142,9.623299598693848
1683006723504482600,0.943482666015625,1.8380999565124512,0.011399999260902405,9.632800102233887
1683006723524482600,0.963482666015625,1.823699951171875,-0.05269999802112579,9.63539981842041
1683006723544482600,0.983482666015625,1.8460999727249146,-0.11549999564886093,9.630599975585938
1683006723564482600,1.003482666015625,1.9290999174118042,-0.17639999091625214,9.613399505615234
1683006723584482600,1.023482666015625,1.987299919128418,-0.20269998908042908,9.60099983215332
1683006723604482600,1.043482666015625,1.993499994277954,-0.22379998862743378,9.599199295043945
1683006723624482600,1.063482666015625,1.979599952697754,-0.27809998393058777,9.600699424743652
1683006723644482600,1.083482666015625,1.993399977684021,-0.3382999897003174,9.59589958190918
1683006723664482600,1.103482666015625,2.00849986076355,-0.3878999948501587,9.590899467468262
1683006723684482600,1.123482666015625,1.9874999523162842,-0.4332999885082245,9.593299865722656
1683006723704482600,1.143482666015625,1.9523999691009521,-0.4925999939441681,9.597599983215332
1683006723724482600,1.163482666015625,1.9078999757766724,-0.550000011920929,9.603499412536621
1683006723744482600,1.183482666015625,1.8956999778747559,-0.5672000050544739,9.604899406433105
1683006723764482600,1.203482666015625,1.9299999475479126,-0.5336999893188477,9.59999942779541
1683006723784482600,1.223482666015625,1.9585999250411987,-0.5031999945640564,9.595799446105957
1683006723804482600,1.243482666015625,1.952799916267395,-0.4861999750137329,9.597899436950684
1683006723824482600,1.263482666015625,1.9084999561309814,-0.46149998903274536,9.607999801635742
1683006723844482600,1.283482666015625,1.831299901008606,-0.4373999834060669,9.624199867248535
1683006723864482600,1.303482666015625,1.7369999885559082,-0.4242999851703644,9.642199516296387
1683006723884482600,1.323482666015625,1.6434999704360962,-0.41179999709129333,9.659099578857422
1683006723904482600,1.343482666015625,1.5463999509811401,-0.3872999846935272,9.676199913024902
1683006723924482600,1.363482666015625,1.476599931716919,-0.33980000019073486,9.688799858093262
1683006723944482600,1.383482666015625,1.4646999835968018,-0.27799999713897705,9.692599296569824
1683006723964482600,1.403482666015625,1.4852999448776245,-0.21679998934268951,9.690999984741211
1683006723984482600,1.423482666015625,1.5001999139785767,-0.1582999974489212,9.689899444580078
1683006724004482600,1.443482666015625,1.4988999366760254,-0.10349999368190765,9.690799713134766
1683006724024482600,1.463482666015625,1.4951999187469482,-0.0568000003695488,9.691800117492676
1683006724044482600,1.483482666015625,1.4848999977111816,-0.02279999852180481,9.693499565124512
1683006724064482600,1.503482666015625,1.4679999351501465,-0.0009999999310821295,9.696099281311035
1683006724084482600,1.523482666015625,1.4569000005722046,0.015399999916553497,9.697799682617188
1683006724104482600,1.543482666015625,1.4483000040054321,0.027799999341368675,9.698999404907227
1683006724124482600,1.563482666015625,1.4465999603271484,0.033900000154972076,9.699299812316895
1683006724144482600,1.583482666015625,1.4539999961853027,0.03579999879002571,9.698100090026855
1683006724164482600,1.603482666015625,1.4648000001907349,0.03659999743103981,9.696499824523926
1683006724184482600,1.623482666015625,1.462399959564209,0.034299999475479126,9.6968994140625
1683006724204482600,1.643482666015625,1.452799916267395,0.023799998685717583,9.698399543762207
1683006724224482600,1.663482666015625,1.462399959564209,0.014599999412894249,9.6968994140625
1683006724244482600,1.683482666015625,1.4722999334335327,-0.0017999999690800905,9.695399284362793
1683006724264482600,1.703482666015625,1.4838999509811401,-0.018199998885393143,9.693699836730957
1683006724284482600,1.723482666015625,1.480299949645996,-0.033900000154972076,9.694199562072754
1683006724304482600,1.743482666015625,1.4692999124526978,-0.044099997729063034,9.695799827575684
1683006724324482600,1.763482666015625,1.4745999574661255,-0.043800000101327896,9.694999694824219
1683006724344482600,1.783482666015625,1.5069999694824219,-0.030899999663233757,9.690099716186523
1683006724364482600,1.803482666015625,1.5692999362945557,-0.00279999990016222,9.68019962310791
1683006724384482600,1.823482666015625,1.6377999782562256,0.02669999934732914,9.66879940032959
1683006724404482600,1.843482666015625,1.6683999300003052,0.04019999876618385,9.66349983215332
1683006724424482600,1.863482666015625,1.6678999662399292,0.0348999984562397,9.663599967956543
1683006724444482600,1.883482666015625,1.6791999340057373,0.02199999988079071,9.661699295043945
1683006724464482600,1.903482666015625,1.719599962234497,0.023599999025464058,9.654600143432617
1683006724484482600,1.923482666015625,1.767899990081787,0.04149999842047691,9.64579963684082
1683006724504482600,1.943482666015625,1.775999903678894,0.04969999939203262,9.644299507141113
1683006724524484000,1.963484130859375,1.7353999614715576,0.030299998819828033,9.651800155639648
1683006724544482600,1.983482666015625,1.670300006866455,-0.013299999758601189,9.663299560546875
1683006724564482600,2.003482666015625,1.6389999389648438,-0.05130000039935112,9.668499946594238
1683006724584482600,2.023482666015625,1.6430999040603638,-0.08389999717473984,9.66759967803955
1683006724604482600,2.043482666015625,1.660599946975708,-0.1224999949336052,9.664199829101562
1683006724624482600,2.063482666015625,1.6607999801635742,-0.1630999892950058,9.663599967956543
1683006724644482600,2.083482666015625,1.6302999258041382,-0.20489999651908875,9.667900085449219
1683006724664482600,2.103482666015625,1.5999000072479248,-0.24959999322891235,9.67199993133545
1683006724684482600,2.123482666015625,1.5891000032424927,-0.3027999997138977,9.672200202941895
1683006724704482600,2.143482666015625,1.5943999290466309,-0.35749998688697815,9.669499397277832
1683006724724482600,2.163482666015625,1.5966999530792236,-0.4066999852657318,9.667200088500977
1683006724744482600,2.183482666015625,1.5822999477386475,-0.45389997959136963,9.667499542236328
1683006724764482600,2.203482666015625,1.556399941444397,-0.5049999952316284,9.669099807739258
1683006724784482600,2.223482666015625,1.5270999670028687,-0.558899998664856,9.67080020904541
1683006724804485600,2.243485595703125,1.51010000705719,-0.6146999597549438,9.670100212097168
1683006724824482600,2.263482666015625,1.5049999952316284,-0.6746999621391296,9.666899681091309
1683006724844482600,2.283482666015625,1.500999927520752,-0.7405999898910522,9.662699699401855
1683006724864482600,2.303482666015625,1.5037000179290771,-0.8042999505996704,9.65719985961914
1683006724884482600,2.323482666015625,1.5006999969482422,-0.8567000031471252,9.65310001373291
1683006724904482600,2.343482666015625,1.4769999980926514,-0.8896999955177307,9.653800010681152
1683006724924482600,2.363482666015625,1.4388999938964844,-0.9024999737739563,9.65839958190918
1683006724944482600,2.383482666015625,1.4293999671936035,-0.8876000046730042,9.661199569702148
1683006724964482600,2.403482666015625,1.4775999784469604,-0.858299970626831,9.656599998474121
1683006724984482600,2.423482666015625,1.5356999635696411,-0.8355000019073486,9.649499893188477
1683006725004484000,2.443484130859375,1.525399923324585,-0.8359000086784363,9.651100158691406
1683006725024484000,2.463484130859375,1.4610999822616577,-0.8412999510765076,9.660599708557129
1683006725044484000,2.483484130859375,1.4047999382019043,-0.8297999501228333,9.669899940490723
1683006725064484000,2.503484130859375,1.4196999073028564,-0.7935999631881714,9.67080020904541
1683006725084482600,2.523482666015625,1.486899971961975,-0.7446999549865723,9.664599418640137
1683006725104482600,2.543482666015625,1.545300006866455,-0.6961999535560608,9.6589994430542
1683006725124482600,2.563482666015625,1.5508999824523926,-0.6491000056266785,9.661399841308594
1683006725144482600,2.583482666015625,1.5160999298095703,-0.6019999980926514,9.670000076293945
1683006725164482600,2.603482666015625,1.4775999784469604,-0.5561999678611755,9.678699493408203
1683006725184482600,2.623482666015625,1.4709999561309814,-0.5162999629974365,9.681900024414062
1683006725204484000,2.643484130859375,1.4953999519348145,-0.47360000014305115,9.680299758911133
1683006725224482600,2.663482666015625,1.5164999961853027,-0.42879998683929443,9.679100036621094
1683006725244482600,2.683482666015625,1.5317999124526978,-0.3895999789237976,9.678400039672852
1683006725264482600,2.703482666015625,1.549399971961975,-0.362199991941452,9.676599502563477
1683006725284484000,2.723484130859375,1.5576999187469482,-0.352400004863739,9.675700187683105
1683006725304482600,2.743482666015625,1.541700005531311,-0.353300005197525,9.678199768066406
1683006725324482600,2.763482666015625,1.5173999071121216,-0.3612000048160553,9.681699752807617
1683006725344482600,2.783482666015625,1.5016999244689941,-0.3668999969959259,9.684000015258789
1683006725364482600,2.803482666015625,1.4905999898910522,-0.3682999908924103,9.685599327087402
1683006725384482600,2.823482666015625,1.4911999702453613,-0.362199991941452,9.685799598693848
1683006725404482600,2.843482666015625,1.5087999105453491,-0.3446999788284302,9.683699607849121
1683006725424485600,2.863485595703125,1.5362999439239502,-0.3222000002861023,9.680099487304688
1683006725444484000,2.883484130859375,1.565999984741211,-0.30300000309944153,9.675999641418457
1683006725464482600,2.903482666015625,1.5889999866485596,-0.2906999886035919,9.672599792480469
1683006725484482600,2.923482666015625,1.5921999216079712,-0.2847999930381775,9.6722993850708
1683006725504482600,2.943482666015625,1.5841000080108643,-0.2833999991416931,9.673699378967285
1683006725524484000,2.963484130859375,1.580299973487854,-0.28610000014305115,9.674200057983398
1683006725544482600,2.983482666015625,1.5923999547958374,-0.28519999980926514,9.672200202941895
1683006725564484000,3.003484130859375,1.6301000118255615,-0.2694999873638153,9.666399955749512
1683006725584484000,3.023484130859375,1.6994999647140503,-0.23089998960494995,9.655399322509766
1683006725604482600,3.043482666015625,1.7572999000549316,-0.1826999932527542,9.646100044250488
1683006725624482600,3.063482666015625,1.7899999618530273,-0.14829999208450317,9.64069938659668
1683006725644482600,3.083482666015625,1.83489990234375,-0.11889999359846115,9.632699966430664
1683006725664482600,3.103482666015625,1.903899908065796,-0.08169999718666077,9.619699478149414
1683006725684482600,3.123482666015625,1.9957998991012573,-0.031599998474121094,9.601299285888672
1683006725704482600,3.143482666015625,2.0349998474121094,0.00559999980032444,9.593099594116211
1683006725724482600,3.163482666015625,2,-0.00019999999494757503,9.600500106811523
1683006725744496600,3.18349658203125,1.9436999559402466,-0.024299999698996544,9.61199951171875
1683006725764482600,3.203482666015625,1.9399999380111694,-0.017400000244379044,9.612799644470215
1683006725784482600,3.223482666015625,2.0048999786376953,-0.00139999995008111,9.599499702453613
1683006725804484000,3.243484130859375,2.072399854660034,-0.015199999324977398,9.585100173950195
1683006725824485600,3.263485595703125,2.0845999717712402,-0.06529999524354935,9.582300186157227
1683006725844482600,3.283482666015625,2.040099859237671,-0.1395999938249588,9.590999603271484
1683006725864482600,3.303482666015625,1.9835999011993408,-0.22459998726844788,9.601299285888672
1683006725884482600,3.323482666015625,1.951200008392334,-0.3033999800682068,9.60569953918457
1683006725904482600,3.343482666015625,1.9458999633789062,-0.36969998478889465,9.604499816894531
1683006725924482600,3.363482666015625,1.9397000074386597,-0.4244000017642975,9.603499412536621
1683006725944485600,3.383485595703125,1.9148999452590942,-0.4715999960899353,9.606200218200684
1683006725964482600,3.403482666015625,1.8804999589920044,-0.5164999961853027,9.610699653625488
1683006725984482600,3.423482666015625,1.8423999547958374,-0.5600000023841858,9.615699768066406
1683006726004482600,3.443482666015625,1.803399920463562,-0.5936999917030334,9.620999336242676
1683006726024482600,3.463482666015625,1.7737998962402344,-0.6114000082015991,9.625399589538574
1683006726044484000,3.483484130859375,1.7573999166488647,-0.621999979019165,9.627799987792969
1683006726064484000,3.503484130859375,1.7423999309539795,-0.6304000020027161,9.629899978637695
1683006726084482600,3.523482666015625,1.708799958229065,-0.6423999667167664,9.635199546813965
1683006726104482600,3.543482666015625,1.6517999172210693,-0.6672999858856201,9.643400192260742
1683006726124482600,3.563482666015625,1.5750999450683594,-0.7078999876976013,9.653299331665039
1683006726144482600,3.583482666015625,1.4909999370574951,-0.7601999640464783,9.662699699401855
1683006726164482600,3.603482666015625,1.4244999885559082,-0.796999990940094,9.6697998046875
1683006726184482600,3.623482666015625,1.4078999757766724,-0.8009999990463257,9.671899795532227
1683006726204482600,3.643482666015625,1.4256999492645264,-0.7935000061988831,9.669899940490723
1683006726224484000,3.663484130859375,1.4230999946594238,-0.7972999811172485,9.670000076293945
1683006726244485600,3.683485595703125,1.398800015449524,-0.8033999800682068,9.672999382019043
1683006726264482600,3.703482666015625,1.3805999755859375,-0.7973999977111816,9.67609977722168
1683006726284482600,3.723482666015625,1.4132999181747437,-0.7744999527931213,9.673299789428711
1683006726304484000,3.743484130859375,1.4794999361038208,-0.738599956035614,9.666199684143066
1683006726324482600,3.763482666015625,1.5155999660491943,-0.7188999652862549,9.662099838256836
1683006726344482600,3.783482666015625,1.4986999034881592,-0.7078999876976013,9.665499687194824
1683006726364482600,3.803482666015625,1.4600999355316162,-0.6791999936103821,9.673500061035156
1683006726384482600,3.823482666015625,1.4443999528884888,-0.6247000098228455,9.679499626159668
1683006726404482600,3.843482666015625,1.4663000106811523,-0.5630999803543091,9.679999351501465
1683006726424482600,3.863482666015625,1.5015000104904175,-0.5083000063896179,9.677599906921387
1683006726444482600,3.883482666015625,1.5252999067306519,-0.4713999927043915,9.675799369812012
1683006726464482600,3.903482666015625,1.5282999277114868,-0.4615999758243561,9.675799369812012
1683006726484484000,3.923484130859375,1.518399953842163,-0.47029998898506165,9.676899909973145
1683006726504484000,3.943484130859375,1.504599928855896,-0.4846999943256378,9.678400039672852
1683006726524482600,3.963482666015625,1.4888999462127686,-0.49629998207092285,9.68019962310791
1683006726544482600,3.983482666015625,1.472100019454956,-0.5054000020027161,9.682299613952637
1683006726564482600,4.003482666015625,1.455299973487854,-0.517300009727478,9.684199333190918
1683006726584484000,4.023484130859375,1.4417999982833862,-0.5333999991416931,9.68529987335205
1683006726604482600,4.043482666015625,1.4441999197006226,-0.5496999621391296,9.684100151062012
1683006726624482600,4.063482666015625,1.4589999914169312,-0.558899998664856,9.681300163269043
1683006726644482600,4.083482666015625,1.4733999967575073,-0.5590000152587891,9.679100036621094
1683006726664482600,4.103482666015625,1.4842000007629395,-0.5548999905586243,9.67770004272461
1683006726684482600,4.123482666015625,1.493299961090088,-0.5561000108718872,9.676300048828125
1683006726704482600,4.143482666015625,1.5055999755859375,-0.5724999904632568,9.673399925231934
1683006726724482600,4.163482666015625,1.5166999101638794,-0.5992000102996826,9.670100212097168
1683006726744482600,4.183482666015625,1.5187000036239624,-0.6265000104904175,9.668000221252441
1683006726764484000,4.203484130859375,1.5078999996185303,-0.6437999606132507,9.668600082397461
1683006726784482600,4.223482666015625,1.4970999956130981,-0.6451999545097351,9.670100212097168
1683006726804482600,4.243482666015625,1.5103999376296997,-0.6182000041007996,9.6697998046875
1683006726824482600,4.263482666015625,1.5384999513626099,-0.5722000002861023,9.66819953918457
1683006726844482600,4.283482666015625,1.5650999546051025,-0.5385000109672546,9.665900230407715
1683006726864484000,4.303484130859375,1.604599952697754,-0.5087999701499939,9.660999298095703
1683006726884482600,4.323482666015625,1.6420999765396118,-0.4706999957561493,9.656700134277344
1683006726904482600,4.343482666015625,1.6627999544143677,-0.4169999957084656,9.655599594116211
1683006726924482600,4.363482666015625,1.653499960899353,-0.35899999737739563,9.659500122070312
1683006726944485600,4.383485595703125,1.6341999769210815,-0.3227999806404114,9.66409969329834
1683006726964482600,4.403482666015625,1.6168999671936035,-0.3041999936103821,9.66759967803955
1683006726984482600,4.423482666015625,1.62309992313385,-0.29350000619888306,9.666899681091309
1683006727004482600,4.443482666015625,1.649399995803833,-0.2985999882221222,9.662300109863281
1683006727024482600,4.463482666015625,1.674299955368042,-0.3294999897480011,9.656999588012695
1683006727044482600,4.483482666015625,1.669600009918213,-0.3854999840259552,9.655699729919434
1683006727064484000,4.503484130859375,1.6322999000549316,-0.4529999792575836,9.659199714660645
1683006727084482600,4.523482666015625,1.5844999551773071,-0.5123999714851379,9.664199829101562
1683006727104482600,4.543482666015625,1.5543999671936035,-0.561199963092804,9.666299819946289
1683006727124482600,4.563482666015625,1.5464999675750732,-0.602899968624115,9.66510009765625
1683006727144482600,4.583482666015625,1.5444999933242798,-0.6362999677658081,9.663299560546875
1683006727164482600,4.603482666015625,1.5310999155044556,-0.6626999974250793,9.663599967956543
1683006727184482600,4.623482666015625,1.4966999292373657,-0.6852999925613403,9.667399406433105
1683006727204482600,4.643482666015625,1.4610999822616577,-0.712399959564209,9.670899391174316
1683006727224482600,4.663482666015625,1.4383000135421753,-0.7421000003814697,9.672100067138672
1683006727244482600,4.683482666015625,1.4244999885559082,-0.7687000036239624,9.672100067138672
1683006727264482600,4.703482666015625,1.4156999588012695,-0.7961999773979187,9.671199798583984
1683006727284482600,4.723482666015625,1.4053999185562134,-0.8252999782562256,9.670199394226074
1683006727304482600,4.743482666015625,1.382099986076355,-0.85999995470047,9.670499801635742
1683006727324482600,4.763482666015625,1.34089994430542,-0.8948999643325806,9.673199653625488
1683006727344482600,4.783482666015625,1.2864999771118164,-0.927899956703186,9.677499771118164
1683006727364484000,4.803484130859375,1.2415999174118042,-0.9452999830245972,9.681599617004395
1683006727384485600,4.823485595703125,1.2325999736785889,-0.9297999739646912,9.68429946899414
1683006727404482600,4.843482666015625,1.2608000040054321,-0.9037999510765076,9.683099746704102
1683006727424482600,4.863482666015625,1.2799999713897705,-0.8978999853134155,9.681099891662598
1683006727444482600,4.883482666015625,1.2554999589920044,-0.917199969291687,9.682600021362305
1683006727464482600,4.903482666015625,1.215999960899353,-0.9442999958992004,9.684999465942383
1683006727484484000,4.923484130859375,1.201200008392334,-0.9610999822616577,9.685199737548828
1683006727504482600,4.943482666015625,1.2460999488830566,-0.9523999691009521,9.680399894714355
1683006727524482600,4.963482666015625,1.3112999200820923,-0.91239994764328,9.675600051879883
1683006727544482600,4.983482666015625,1.3392999172210693,-0.8797000050544739,9.674799919128418
1683006727564482600,5.003482666015625,1.312999963760376,-0.8689999580383301,9.679399490356445
1683006727584482600,5.023482666015625,1.2480000257492065,-0.854699969291687,9.689199447631836
1683006727604482600,5.043482666015625,1.194599986076355,-0.8095999956130981,9.699799537658691
1683006727624482600,5.063482666015625,1.194100022315979,-0.7482999563217163,9.70479965209961
1683006727644482600,5.083482666015625,1.239300012588501,-0.708299994468689,9.702099800109863
1683006727664482600,5.103482666015625,1.2882999181747437,-0.6941999793052673,9.696799278259277
1683006727684484000,5.123484130859375,1.3061000108718872,-0.6970999836921692,9.694199562072754
1683006727704482600,5.143482666015625,1.288100004196167,-0.7142999768257141,9.695300102233887
1683006727724482600,5.163482666015625,1.2604999542236328,-0.7398999929428101,9.696999549865723
1683006727744482600,5.183482666015625,1.2437000274658203,-0.7694000005722046,9.6968994140625
1683006727764482600,5.203482666015625,1.2329000234603882,-0.8015999794006348,9.695699691772461
1683006727784482600,5.223482666015625,1.2178999185562134,-0.8375999927520752,9.694600105285645
1683006727804485600,5.243485595703125,1.1990000009536743,-0.8696999549865723,9.694099426269531
1683006727824484000,5.263484130859375,1.1798999309539795,-0.8944999575614929,9.694199562072754
1683006727844482600,5.283482666015625,1.1739000082015991,-0.9134999513626099,9.693099975585938
1683006727864482600,5.303482666015625,1.1883999109268188,-0.9292999505996704,9.689899444580078
1683006727884482600,5.323482666015625,1.2139999866485596,-0.9391999840736389,9.685699462890625
1683006727904482600,5.343482666015625,1.2311999797821045,-0.9502999782562256,9.682499885559082
1683006727924482600,5.363482666015625,1.2389999628067017,-0.9684999585151672,9.679699897766113
1683006727944482600,5.383482666015625,1.2513999938964844,-0.9873999953269958,9.676199913024902
1683006727964482600,5.403482666015625,1.2760000228881836,-1.0016000270843506,9.671500205993652
1683006727984482600,5.423482666015625,1.302299976348877,-1.0140999555587769,9.666699409484863
1683006728004482600,5.443482666015625,1.3255000114440918,-1.0246999263763428,9.662399291992188
1683006728024482600,5.463482666015625,1.347100019454956,-1.0245000123977661,9.65939998626709
1683006728044485600,5.483485595703125,1.3752999305725098,-1.0062999725341797,9.657400131225586
1683006728064485600,5.503485595703125,1.399899959564209,-0.9912999868392944,9.655399322509766
1683006728084482600,5.523482666015625,1.4341999292373657,-0.993399977684021,9.650199890136719
1683006728104482600,5.543482666015625,1.4800999164581299,-0.98089998960495,9.644499778747559
1683006728124482600,5.563482666015625,1.538599967956543,-0.9380999803543091,9.639599800109863
1683006728144482600,5.583482666015625,1.5935999155044556,-0.876800000667572,9.63640022277832
1683006728164482600,5.603482666015625,1.6008999347686768,-0.8399999737739563,9.638500213623047
1683006728184482600,5.623482666015625,1.5785999298095703,-0.8481999635696411,9.641499519348145
1683006728204482600,5.643482666015625,1.5329999923706055,-0.8687999844551086,9.64699935913086
1683006728224482600,5.663482666015625,1.4959999322891235,-0.8763999938964844,9.652099609375
1683006728244482600,5.683482666015625,1.4919999837875366,-0.8833000063896179,9.652099609375
1683006728264482600,5.703482666015625,1.5015000104904175,-0.9065999984741211,9.648399353027344
1683006728284484000,5.723484130859375,1.4800000190734863,-0.9488999843597412,9.647699356079102
1683006728304485600,5.743485595703125,1.4253000020980835,-0.9948999881744385,9.651299476623535
1683006728324482600,5.763482666015625,1.372499942779541,-1.0335999727249146,9.654899597167969
1683006728344482600,5.783482666015625,1.3400999307632446,-1.059999942779541,9.656599998474121
1683006728364484000,5.803484130859375,1.323599934577942,-1.0733000040054321,9.657400131225586
1683006728384484000,5.823484130859375,1.3083999156951904,-1.077299952507019,9.6589994430542
1683006728404482600,5.843482666015625,1.2868000268936157,-1.083299994468689,9.661199569702148
1683006728424482600,5.863482666015625,1.2549999952316284,-1.1003999710083008,9.66349983215332
1683006728444482600,5.883482666015625,1.2161999940872192,-1.1310999393463135,9.664899826049805
1683006728464482600,5.903482666015625,1.1842999458312988,-1.1584999561309814,9.665599822998047
1683006728484482600,5.923482666015625,1.1632000207901,-1.170300006866455,9.666799545288086
1683006728504482600,5.943482666015625,1.1589999198913574,-1.1710000038146973,9.667200088500977
1683006728524482600,5.963482666015625,1.1621999740600586,-1.1691999435424805,9.666999816894531
1683006728544482600,5.983482666015625,1.1546000242233276,-1.1717000007629395,9.66759967803955
1683006728564482600,6.003482666015625,1.1333999633789062,-1.1819000244140625,9.668899536132812
1683006728584482600,6.023482666015625,1.1031999588012695,-1.1930999755859375,9.670999526977539
1683006728604482600,6.043482666015625,1.0900999307632446,-1.195599913597107,9.672200202941895
1683006728624482600,6.063482666015625,1.1173999309539795,-1.1876999139785767,9.670100212097168
1683006728644482600,6.083482666015625,1.1547999382019043,-1.180999994277954,9.666500091552734
1683006728664482600,6.103482666015625,1.1582999229431152,-1.194100022315979,9.664499282836914
1683006728684484000,6.123484130859375,1.1450999975204468,-1.2152999639511108,9.663399696350098
1683006728704485600,6.143485595703125,1.1338000297546387,-1.2196999788284302,9.664199829101562
1683006728724482600,6.163482666015625,1.1554999351501465,-1.2060999870300293,9.663299560546875
1683006728744482600,6.183482666015625,1.2170000076293945,-1.171199917793274,9.65999984741211
1683006728764482600,6.203482666015625,1.2709999084472656,-1.138800024986267,9.656999588012695
1683006728784482600,6.223482666015625,1.2918000221252441,-1.1227999925613403,9.656099319458008
1683006728804482600,6.243482666015625,1.2791999578475952,-1.1095999479293823,9.659299850463867
1683006728824482600,6.263482666015625,1.2548999786376953,-1.086300015449524,9.66510009765625
1683006728844482600,6.283482666015625,1.2411999702453613,-1.0472999811172485,9.671199798583984
1683006728864482600,6.303482666015625,1.2511999607086182,-0.9996999502182007,9.67490005493164
1683006728884482600,6.323482666015625,1.2692999839782715,-0.9523999691009521,9.677399635314941
1683006728904482600,6.343482666015625,1.2865999937057495,-0.9090999960899353,9.679200172424316
1683006728924482600,6.363482666015625,1.2944999933242798,-0.8718999624252319,9.681599617004395
1683006728944484000,6.383484130859375,1.2947999238967896,-0.8452999591827393,9.683899879455566
1683006728964484000,6.403484130859375,1.295199990272522,-0.8294999599456787,9.685199737548828
1683006728984482600,6.423482666015625,1.292099952697754,-0.8252999782562256,9.685999870300293
1683006729004482600,6.443482666015625,1.2907999753952026,-0.8295999765396118,9.685799598693848
1683006729024482600,6.463482666015625,1.295199990272522,-0.8367999792098999,9.684599876403809
1683006729044482600,6.483482666015625,1.3004000186920166,-0.8427000045776367,9.68340015411377
1683006729064482600,6.503482666015625,1.3072999715805054,-0.8416999578475952,9.682499885559082
1683006729084482600,6.523482666015625,1.3219000101089478,-0.8325999975204468,9.681300163269043
1683006729104482600,6.543482666015625,1.3496999740600586,-0.8176999688148499,9.678799629211426
1683006729124482600,6.563482666015625,1.3828999996185303,-0.8017999529838562,9.675399780273438
1683006729144482600,6.583482666015625,1.4117999076843262,-0.7907999753952026,9.672200202941895
1683006729164484000,6.603484130859375,1.434899926185608,-0.7823999524116516,9.669499397277832
1683006729184482600,6.623482666015625,1.4531999826431274,-0.778499960899353,9.666999816894531
1683006729204482600,6.643482666015625,1.4656999111175537,-0.7773999571800232,9.665199279785156
1683006729224482600,6.663482666015625,1.4824999570846558,-0.7723999619483948,9.66309928894043
1683006729244482600,6.683482666015625,1.5157999992370605,-0.7501999735832214,9.659599304199219
1683006729264482600,6.703482666015625,1.5633000135421753,-0.7224000096321106,9.654199600219727
1683006729284482600,6.723482666015625,1.6044999361038208,-0.7152999639511108,9.64799976348877
1683006729304482600,6.743482666015625,1.631500005722046,-0.717199981212616,9.64330005645752
1683006729324482600,6.763482666015625,1.6571999788284302,-0.7111999988555908,9.639299392700195
1683006729344482600,6.783482666015625,1.6959999799728394,-0.6836999654769897,9.634599685668945
1683006729364484000,6.803484130859375,1.746899962425232,-0.630299985408783,9.62909984588623
1683006729384485600,6.823485595703125,1.7813999652862549,-0.5809999704360962,9.625899314880371
1683006729404482600,6.843482666015625,1.7847999334335327,-0.569599986076355,9.625999450683594
1683006729424482600,6.863482666015625,1.7484999895095825,-0.5889999866485596,9.631499290466309
1683006729444482600,6.883482666015625,1.7008999586105347,-0.620199978351593,9.637999534606934
1683006729464482600,6.903482666015625,1.6717000007629395,-0.6599000096321106,9.64050006866455
1683006729484484000,6.923484130859375,1.6560999155044556,-0.7220999598503113,9.638699531555176
1683006729504485600,6.943485595703125,1.624899983406067,-0.8061999678611755,9.637399673461914
1683006729524482600,6.963482666015625,1.5748999118804932,-0.8905999660491943,9.638199806213379
1683006729544482600,6.983482666015625,1.5274999141693115,-0.9624999761581421,9.638999938964844
1683006729564482600,7.003482666015625,1.4918999671936035,-1.0304999351501465,9.637499809265137
1683006729584484000,7.023484130859375,1.4697999954223633,-1.090999960899353,9.634200096130371
1683006729604482600,7.043482666015625,1.449199914932251,-1.1424000263214111,9.631400108337402
1683006729624482600,7.063482666015625,1.4230999946594238,-1.183899998664856,9.63029956817627
1683006729644485600,7.083485595703125,1.399899959564209,-1.2171999216079712,9.629499435424805
1683006729664482600,7.103482666015625,1.3816999197006226,-1.2365000247955322,9.62969970703125
1683006729684485600,7.123485595703125,1.3655999898910522,-1.2477999925613403,9.630499839782715
1683006729704484000,7.143484130859375,1.3467999696731567,-1.2547999620437622,9.632299423217773
1683006729724482600,7.163482666015625,1.326200008392334,-1.2623000144958496,9.634200096130371
1683006729744482600,7.183482666015625,1.2955999374389648,-1.2798999547958374,9.63599967956543
1683006729764482600,7.203482666015625,1.2496999502182007,-1.3013999462127686,9.639200210571289
1683006729784482600,7.223482666015625,1.191999912261963,-1.3209999799728394,9.643799781799316
1683006729804482600,7.243482666015625,1.1359999179840088,-1.3249999284744263,9.649999618530273
1683006729824485600,7.263485595703125,1.1139999628067017,-1.299799919128418,9.656000137329102
1683006729844484000,7.283484130859375,1.129699945449829,-1.251099944114685,9.660599708557129
1683006729864482600,7.303482666015625,1.1240999698638916,-1.2252999544143677,9.664599418640137
1683006729884482600,7.323482666015625,1.0602999925613403,-1.2338999509811401,9.670700073242188
1683006729904482600,7.343482666015625,0.9952999949455261,-1.2309999465942383,9.677999496459961
1683006729924482600,7.363482666015625,0.9797999858856201,-1.1955000162124634,9.684000015258789
1683006729944482600,7.383482666015625,1.0310999155044556,-1.1323999166488647,9.686299324035645
1683006729964482600,7.403482666015625,1.0910999774932861,-1.074199914932251,9.686299324035645
1683006729984484000,7.423484130859375,1.11080002784729,-1.0347999334335327,9.688399314880371
1683006730004482600,7.443482666015625,1.1013000011444092,-1.0019999742507935,9.692899703979492
1683006730024482600,7.463482666015625,1.0947999954223633,-0.9558999538421631,9.698299407958984
1683006730044482600,7.483482666015625,1.1119999885559082,-0.8924999833106995,9.702400207519531
1683006730064482600,7.503482666015625,1.1403999328613281,-0.8289999961853027,9.704699516296387
1683006730084484000,7.523484130859375,1.1694999933242798,-0.7648999691009521,9.706500053405762
1683006730104482600,7.543482666015625,1.1933000087738037,-0.7098000049591064,9.707799911499023
1683006730124482600,7.563482666015625,1.2073999643325806,-0.674299955368042,9.708600044250488
1683006730144482600,7.583482666015625,1.2167999744415283,-0.649399995803833,9.709099769592285
1683006730164482600,7.603482666015625,1.2314999103546143,-0.6274999976158142,9.708700180053711
1683006730184482600,7.623482666015625,1.2472000122070312,-0.6184999942779541,9.707300186157227
1683006730204482600,7.643482666015625,1.2476999759674072,-0.6378999948501587,9.705999374389648
1683006730224482600,7.663482666015625,1.2353999614715576,-0.6821999549865723,9.704500198364258
1683006730244482600,7.683482666015625,1.2246999740600586,-0.7299999594688416,9.702400207519531
1683006730264482600,7.703482666015625,1.2228000164031982,-0.7665999531745911,9.699799537658691
1683006730284482600,7.723482666015625,1.2329000234603882,-0.7895999550819397,9.696700096130371
1683006730304482600,7.743482666015625,1.2532999515533447,-0.8026999831199646,9.692999839782715
1683006730324485600,7.763485595703125,1.274399995803833,-0.8130999803543091,9.689399719238281
1683006730344484000,7.783484130859375,1.2933999300003052,-0.8256999850273132,9.685799598693848
1683006730364482600,7.803482666015625,1.3102999925613403,-0.8430999517440796,9.682000160217285
1683006730384485600,7.823485595703125,1.3265999555587769,-0.8642999529838562,9.677899360656738
1683006730404484000,7.843484130859375,1.3320999145507812,-0.8865999579429626,9.675199508666992
1683006730424482600,7.863482666015625,1.333799958229065,-0.9077999591827393,9.672999382019043
1683006730444482600,7.883482666015625,1.3396999835968018,-0.9086999893188477,9.672100067138672
1683006730464482600,7.903482666015625,1.3586000204086304,-0.8894000053405762,9.671199798583984
1683006730484484000,7.923484130859375,1.3779000043869019,-0.8776999711990356,9.669599533081055
1683006730504484000,7.943484130859375,1.3848999738693237,-0.8935999870300293,9.667099952697754
1683006730524482600,7.963482666015625,1.3903999328613281,-0.9098999500274658,9.664799690246582
1683006730544482600,7.983482666015625,1.4110000133514404,-0.8930999636650085,9.663399696350098
1683006730564482600,8.003482666015625,1.4564999341964722,-0.8464999794960022,9.660799980163574
1683006730584482600,8.023482666015624,1.4783999919891357,-0.8089999556541443,9.660699844360352
1683006730604482600,8.043482666015626,1.4562000036239624,-0.8017999529838562,9.66469955444336
1683006730624482600,8.063482666015625,1.3981999158859253,-0.7924999594688416,9.673999786376953
1683006730644482600,8.083482666015625,1.3691999912261963,-0.7389000058174133,9.68239974975586
1683006730664484000,8.103484130859375,1.4114999771118164,-0.661799967288971,9.681900024414062
1683006730684482600,8.123482666015626,1.489300012588501,-0.5999999642372131,9.674300193786621
1683006730704482600,8.143482666015625,1.5296999216079712,-0.5654999613761902,9.670000076293945
1683006730724482600,8.163482666015625,1.5088999271392822,-0.5674999952316284,9.673199653625488
1683006730744484000,8.183484130859375,1.4591999053955078,-0.6031999588012695,9.67859935760498
1683006730764482600,8.203482666015624,1.4225000143051147,-0.6402999758720398,9.681699752807617
1683006730784482600,8.223482666015625,1.4172999858856201,-0.6601999998092651,9.681099891662598
1683006730804482600,8.243482666015625,1.430899977684021,-0.6635000109672546,9.678899765014648
1683006730824482600,8.263482666015625,1.430799961090088,-0.6601999998092651,9.679200172424316
1683006730844482600,8.283482666015624,1.413699984550476,-0.6626999974250793,9.681499481201172
1683006730864482600,8.303482666015626,1.3889999389648438,-0.6729999780654907,9.684399604797363
1683006730884482600,8.323482666015625,1.3634999990463257,-0.6782999634742737,9.687600135803223
1683006730904482600,8.343482666015625,1.347499966621399,-0.6739000082015991,9.690199851989746
1683006730924482600,8.363482666015624,1.3402999639511108,-0.670199990272522,9.691399574279785
1683006730944482600,8.383482666015626,1.3306999206542969,-0.6812999844551086,9.691999435424805
1683006730964482600,8.403482666015625,1.3051999807357788,-0.7074999809265137,9.693599700927734
1683006730984482600,8.423482666015625,1.2597999572753906,-0.7421000003814697,9.696999549865723
1683006731004482600,8.443482666015624,1.2081999778747559,-0.774399995803833,9.701000213623047
1683006731024482600,8.463482666015626,1.1776999235153198,-0.7906999588012695,9.703499794006348
1683006731044482600,8.483482666015625,1.1834999322891235,-0.7860999703407288,9.703100204467773
1683006731064484000,8.503484130859375,1.1994999647140503,-0.778499960899353,9.701799392700195
1683006731084482600,8.523482666015624,1.1897000074386597,-0.7821999788284302,9.702699661254883
1683006731104482600,8.543482666015626,1.1425999402999878,-0.8192999958992004,9.705299377441406
1683006731124482600,8.563482666015625,1.0921000242233276,-0.8441999554634094,9.708999633789062
1683006731144482600,8.583482666015625,1.0720999240875244,-0.8374999761581421,9.711799621582031
1683006731164482600,8.603482666015625,1.105299949645996,-0.795199990272522,9.711599349975586
1683006731184482600,8.623482666015626,1.1527999639511108,-0.7426999807357788,9.710199356079102
1683006731204482600,8.643482666015625,1.1837999820709229,-0.7062000036239624,9.709199905395508
1683006731224482600,8.663482666015625,1.1740999221801758,-0.6789999604225159,9.712299346923828
1683006731244482600,8.683482666015625,1.1527999639511108,-0.6504999995231628,9.716899871826172
1683006731264482600,8.703482666015624,1.1485999822616577,-0.6169999837875366,9.719499588012695
1683006731284482600,8.723482666015625,1.1615999937057495,-0.5795999765396118,9.72029972076416
1683006731304482600,8.743482666015625,1.1897000074386597,-0.5322999954223633,9.719599723815918
1683006731324482600,8.763482666015625,1.2246999740600586,-0.48420000076293945,9.71780014038086
1683006731344482600,8.783482666015624,1.2484999895095825,-0.44449999928474426,9.716599464416504
1683006731364482600,8.803482666015626,1.2619999647140503,-0.41499999165534973,9.71619987487793
1683006731384482600,8.823482666015625,1.2745999097824097,-0.3942999839782715,9.715399742126465
1683006731404482600,8.843482666015625,1.284999966621399,-0.38989999890327454,9.714200019836426
1683006731424484000,8.863484130859375,1.2878999710083008,-0.4010999798774719,9.713399887084961
1683006731444484000,8.883484130859374,1.2877999544143677,-0.4189999997615814,9.712599754333496
1683006731464482600,8.903482666015625,1.2963999509811401,-0.4332999885082245,9.710899353027344
1683006731484482600,8.923482666015625,1.3148000240325928,-0.44029998779296875,9.708099365234375
1683006731504482600,8.943482666015624,1.337399959564209,-0.44919997453689575,9.704599380493164
1683006731524482600,8.963482666015626,1.355299949645996,-0.4633999764919281,9.701399803161621
1683006731544482600,8.983482666015625,1.365399956703186,-0.4845999777317047,9.698999404907227
1683006731564482600,9.003482666015625,1.3708999156951904,-0.5108999609947205,9.696799278259277
1683006731584482600,9.023482666015624,1.3781999349594116,-0.5372999906539917,9.6943998336792
1683006731604482600,9.043482666015626,1.3866000175476074,-0.5637999773025513,9.691699981689453
1683006731624482600,9.063482666015625,1.3992999792099,-0.5830999612808228,9.688699722290039
1683006731644482600,9.083482666015625,1.4096999168395996,-0.5938000082969666,9.686599731445312
1683006731664482600,9.103482666015625,1.4172999858856201,-0.5895999670028687,9.685699462890625
1683006731684482600,9.123482666015626,1.4354000091552734,-0.5694000124931335,9.68429946899414
1683006731704482600,9.143482666015625,1.4657999277114868,-0.5429999828338623,9.68120002746582
1683006731724484000,9.163484130859375,1.492900013923645,-0.5338000059127808,9.677599906921387
1683006731744482600,9.183482666015625,1.5137999057769775,-0.5414999723434448,9.67389965057373
1683006731764482600,9.203482666015624,1.5356999635696411,-0.5457000136375427,9.670199394226074
1683006731784482600,9.223482666015625,1.5726999044418335,-0.5221999883651733,9.665599822998047
1683006731804482600,9.243482666015625,1.6116999387741089,-0.4892999827861786,9.660900115966797
1683006731824482600,9.263482666015625,1.619399905204773,-0.4799000024795532,9.65999984741211
1683006731844482600,9.283482666015624,1.574299931526184,-0.5033999681472778,9.666299819946289
1683006731864482600,9.303482666015626,1.5168999433517456,-0.5220999717712402,9.67449951171875
1683006731884482600,9.323482666015625,1.5069999694824219,-0.4885999858379364,9.677800178527832
1683006731904482600,9.343482666015625,1.566499948501587,-0.4350999891757965,9.670899391174316
1683006731924482600,9.363482666015624,1.6412999629974365,-0.39389997720718384,9.660200119018555
1683006731944482600,9.383482666015626,1.6694999933242798,-0.3790999948978424,9.656000137329102
1683006731964482600,9.403482666015625,1.6431999206542969,-0.396699994802475,9.659799575805664
1683006731984482600,9.423482666015625,1.6061999797821045,-0.4309999942779541,9.664499282836914
1683006732004484000,9.443484130859375,1.5906000137329102,-0.4691999852657318,9.665399551391602
1683006732024482600,9.463482666015626,1.5970999002456665,-0.5026999711990356,9.662599563598633
1683006732044482600,9.483482666015625,1.598099946975708,-0.5306999683380127,9.660900115966797
1683006732064482600,9.503482666015625,1.5830999612808228,-0.5616999864578247,9.661699295043945
1683006732084482600,9.523482666015624,1.5584999322891235,-0.5968999862670898,9.66349983215332
1683006732104482600,9.543482666015626,1.535499930381775,-0.6344000101089478,9.664799690246582
1683006732124482600,9.563482666015625,1.5163999795913696,-0.6725999712944031,9.665299415588379
1683006732144482600,9.583482666015625,1.5008000135421753,-0.7116000056266785,9.664899826049805
1683006732164484000,9.603484130859375,1.4878000020980835,-0.746999979019165,9.664199829101562
1683006732184482600,9.623482666015626,1.472499966621399,-0.7804999947547913,9.663899421691895
1683006732204484000,9.643484130859376,1.4474999904632568,-0.821399986743927,9.664299964904785
1683006732224482600,9.663482666015625,1.4093999862670898,-0.8621999621391296,9.666399955749512
1683006732244482600,9.683482666015625,1.368499994277954,-0.8991000056266785,9.668899536132812
1683006732264482600,9.703482666015624,1.3423999547958374,-0.9264999628067017,9.670000076293945
1683006732284482600,9.723482666015625,1.343500018119812,-0.9438999891281128,9.66819953918457
1683006732304482600,9.743482666015625,1.3585000038146973,-0.9592999815940857,9.664499282836914
1683006732324482600,9.763482666015625,1.3519999980926514,-0.9926999807357788,9.662099838256836
1683006732344490200,9.783490234375,1.323799967765808,-1.046299934387207,9.660299301147461
1683006732364484000,9.803484130859376,1.2968000173568726,-1.090999960899353,9.659099578857422
1683006732384482600,9.823482666015625,1.2832999229431152,-1.1097999811172485,9.658699989318848
1683006732404482600,9.843482666015625,1.3095999956130981,-1.0877000093460083,9.657699584960938
1683006732424482600,9.863482666015624,1.3614000082015991,-1.0411999225616455,9.655699729919434
1683006732444484000,9.883484130859374,1.3887999057769775,-1.007699966430664,9.65530014038086
1683006732464482600,9.903482666015625,1.378999948501587,-0.9893999695777893,9.658599853515625
1683006732484482600,9.923482666015625,1.344499945640564,-0.974299967288971,9.664999961853027
1683006732504482600,9.943482666015624,1.3186999559402466,-0.9373999834060669,9.672200202941895
1683006732524482600,9.963482666015626,1.3331999778747559,-0.8779999613761902,9.675799369812012
1683006732544482600,9.983482666015625,1.3803999423980713,-0.8166999816894531,9.67449951171875
1683006732564482600,10.003482666015625,1.420199990272522,-0.767300009727478,9.672800064086914
1683006732584484000,10.023484130859375,1.4401999711990356,-0.7342999577522278,9.672399520874023
1683006732604484000,10.043484130859374,1.4479999542236328,-0.7174999713897705,9.672499656677246
1683006732624482600,10.063482666015625,1.4574999809265137,-0.7145999670028687,9.671299934387207
1683006732644482600,10.083482666015625,1.469099998474121,-0.7231999635696411,9.668899536132812
1683006732664482600,10.103482666015625,1.4731999635696411,-0.7393999695777893,9.667099952697754
1683006732684482600,10.123482666015626,1.4685999155044556,-0.7660999894142151,9.66569995880127
1683006732704482600,10.143482666015625,1.4594999551773071,-0.7937999963760376,9.664799690246582
1683006732724482600,10.163482666015625,1.4524999856948853,-0.8134999871253967,9.664299964904785
1683006732744482600,10.183482666015625,1.4498000144958496,-0.8252999782562256,9.663700103759766
1683006732764482600,10.203482666015624,1.4591999053955078,-0.8297999501228333,9.66189956665039
1683006732784482600,10.223482666015625,1.469099998474121,-0.8321999907493591,9.660099983215332
1683006732804482600,10.243482666015625,1.4731999635696411,-0.8384999632835388,9.6589994430542
1683006732824484000,10.263484130859375,1.4746999740600586,-0.8502999544143677,9.657699584960938
1683006732844482600,10.283482666015624,1.4817999601364136,-0.8654999732971191,9.65530014038086
1683006732864482600,10.303482666015626,1.490299940109253,-0.8765999674797058,9.652999877929688
1683006732884482600,10.323482666015625,1.4979000091552734,-0.8830999732017517,9.651199340820312
1683006732904482600,10.343482666015625,1.5025999546051025,-0.8872999548912048,9.650099754333496
1683006732924482600,10.363482666015624,1.5162999629974365,-0.8824999928474426,9.648399353027344
1683006732944482600,10.383482666015626,1.5473999977111816,-0.8672999739646912,9.644800186157227
1683006732964482600,10.403482666015625,1.5782999992370605,-0.8590999841690063,9.64050006866455
1683006732984482600,10.423482666015625,1.6067999601364136,-0.8639000058174133,9.63539981842041
1683006733004482600,10.443482666015624,1.6287000179290771,-0.8679999709129333,9.631400108337402
1683006733024482600,10.463482666015626,1.663599967956543,-0.8557999730110168,9.626500129699707
1683006733044482600,10.483482666015625,1.6993999481201172,-0.8282999992370605,9.622599601745605
1683006733064482600,10.503482666015625,1.7013999223709106,-0.8114999532699585,9.623700141906738
1683006733084482600,10.523482666015624,1.6722999811172485,-0.8139999508857727,9.628600120544434
1683006733104482600,10.543482666015626,1.6464999914169312,-0.8086000084877014,9.633500099182129
1683006733124482600,10.563482666015625,1.6592999696731567,-0.7673999667167664,9.634699821472168
1683006733144482600,10.583482666015625,1.7012999057769775,-0.7143999934196472,9.631400108337402
1683006733164482600,10.603482666015625,1.7371999025344849,-0.6728999614715576,9.627999305725098
1683006733184482600,10.623482666015626,1.7415999174118042,-0.6609999537467957,9.627999305725098
1683006733204482600,10.643482666015625,1.7091000080108643,-0.6911999583244324,9.631699562072754
1683006733224482600,10.663482666015625,1.670199990272522,-0.739799976348877,9.635000228881836
1683006733244484000,10.683484130859375,1.649999976158142,-0.7864999771118164,9.634699821472168
1683006733264488700,10.70348876953125,1.649399995803833,-0.8237999677658081,9.631699562072754
1683006733284482600,10.723482666015625,1.6510999202728271,-0.8517999649047852,9.628999710083008
1683006733304482600,10.743482666015625,1.6339999437332153,-0.8853999972343445,9.628899574279785
1683006733324482600,10.763482666015625,1.6042999029159546,-0.924299955368042,9.630199432373047
1683006733344482600,10.783482666015624,1.5723999738693237,-0.9666000008583069,9.63129997253418
1683006733364482600,10.803482666015626,1.5447999238967896,-1.000999927520752,9.632299423217773
1683006733384482600,10.823482666015625,1.5256999731063843,-1.0224000215530396,9.633099555969238
1683006733404482600,10.843482666015625,1.5099999904632568,-1.0376999378204346,9.633899688720703
1683006733424482600,10.863482666015624,1.490299940109253,-1.0543999671936035,9.635199546813965
1683006733444482600,10.883482666015626,1.4643999338150024,-1.0759999752044678,9.636699676513672
1683006733464484000,10.903484130859376,1.4364999532699585,-1.1032999753952026,9.637899398803711
1683006733484482600,10.923482666015625,1.410599946975708,-1.1338000297546387,9.638099670410156
1683006733504482600,10.943482666015624,1.385599970817566,-1.1581000089645386,9.638899803161621
1683006733524482600,10.963482666015626,1.3709999322891235,-1.170199990272522,9.63949966430664
1683006733544482600,10.983482666015625,1.3660999536514282,-1.1758999824523926,9.63949966430664
1683006733564482600,11.003482666015625,1.347100019454956,-1.1941999197006226,9.639900207519531
1683006733584484000,11.023484130859375,1.2928999662399292,-1.237299919128418,9.641900062561035
1683006733604484000,11.043484130859374,1.2423999309539795,-1.2757999897003174,9.643499374389648
1683006733624482600,11.063482666015625,1.2243999242782593,-1.2829999923706055,9.644899368286133
1683006733644482600,11.083482666015625,1.26829993724823,-1.2496999502182007,9.643599510192871
1683006733664482600,11.103482666015625,1.358199954032898,-1.1828999519348145,9.639800071716309
1683006733684482600,11.123482666015626,1.4225000143051147,-1.1171000003814697,9.638299942016602
1683006733704482600,11.143482666015625,1.4217000007629395,-1.0756999254226685,9.643199920654297
1683006733724482600,11.163482666015625,1.3737000226974487,-1.06059992313385,9.651800155639648
1683006733744482600,11.183482666015625,1.3172999620437622,-1.049299955368042,9.660900115966797
1683006733764482600,11.203482666015624,1.2976999282836914,-1.0174999237060547,9.666899681091309
1683006733784482600,11.223482666015625,1.3240000009536743,-0.9681999683380127,9.668399810791016
1683006733804482600,11.243482666015625,1.3709999322891235,-0.9134999513626099,9.667200088500977
1683006733824482600,11.263482666015625,1.4054999351501465,-0.8671999573707581,9.666500091552734
1683006733844482600,11.283482666015624,1.4229999780654907,-0.8355000019073486,9.666699409484863
1683006733864482600,11.303482666015626,1.4395999908447266,-0.8208999633789062,9.665499687194824
1683006733884482600,11.323482666015625,1.4571999311447144,-0.8226000070571899,9.662799835205078
1683006733904482600,11.343482666015625,1.466499924659729,-0.8345999717712402,9.660299301147461
1683006733924484000,11.363484130859375,1.4675999879837036,-0.8507999777793884,9.658699989318848
1683006733944484000,11.383484130859374,1.469099998474121,-0.8711999654769897,9.656700134277344
1683006733964482600,11.403482666015625,1.4750999212265015,-0.8956999778747559,9.653499603271484
1683006733984482600,11.423482666015625,1.4783999919891357,-0.9238999485969543,9.650400161743164
1683006734004482600,11.443482666015624,1.4805999994277954,-0.9469999670982361,9.647799491882324
1683006734024482600,11.463482666015626,1.489300012588501,-0.9575999975204468,9.645400047302246
1683006734044482600,11.483482666015625,1.5091999769210815,-0.9557999968528748,9.642499923706055
1683006734064482600,11.503482666015625,1.5304999351501465,-0.9508999586105347,9.639599800109863
1683006734084482600,11.523482666015624,1.5480999946594238,-0.9529999494552612,9.63659954071045
1683006734104482600,11.543482666015626,1.5611000061035156,-0.9603999853134155,9.63379955291748
1683006734124482600,11.563482666015625,1.5685999393463135,-0.9680999517440796,9.631799697875977
1683006734144482600,11.583482666015625,1.5723999738693237,-0.9715999960899353,9.630799293518066
1683006734164482600,11.603482666015625,1.5800999402999878,-0.9648000001907349,9.630199432373047
1683006734184482600,11.623482666015626,1.6100999116897583,-0.9372999668121338,9.627999305725098
1683006734204482600,11.643482666015625,1.650999903678894,-0.9110999703407288,9.623600006103516
1683006734224482600,11.663482666015625,1.6869999170303345,-0.9106000065803528,9.617400169372559
1683006734244482600,11.683482666015625,1.7101999521255493,-0.9271000027656555,9.611700057983398
1683006734264482600,11.703482666015624,1.7379999160766602,-0.9339999556541443,9.606100082397461
1683006734284482600,11.723482666015625,1.7714999914169312,-0.909500002861023,9.602299690246582
1683006734304482600,11.743482666015625,1.786099910736084,-0.8804000020027161,9.602299690246582
1683006734324482600,11.763482666015625,1.7750999927520752,-0.8835999965667725,9.604000091552734
1683006734344482600,11.783482666015624,1.7364999055862427,-0.9039999842643738,9.609199523925781
1683006734364482600,11.803482666015626,1.7069998979568481,-0.897599995136261,9.615099906921387
1683006734384482600,11.823482666015625,1.7127999067306519,-0.8697999715805054,9.616600036621094
1683006734404482600,11.843482666015625,1.7466999292373657,-0.8534999489784241,9.61199951171875
1683006734424482600,11.863482666015624,1.7635999917984009,-0.8507999777793884,9.609099388122559
1683006734444482600,11.883482666015626,1.7483999729156494,-0.8601999878883362,9.611000061035156
1683006734464482600,11.903482666015625,1.7348999977111816,-0.871999979019165,9.61240005493164
1683006734484482600,11.923482666015625,1.7460999488830566,-0.885699987411499,9.609199523925781
1683006734504484000,11.943484130859375,1.7691999673843384,-0.8998000025749207,9.603599548339844
1683006734524484000,11.963484130859374,1.7829999923706055,-0.91239994764328,9.599899291992188
1683006734544482600,11.983482666015625,1.7831999063491821,-0.9243999719619751,9.598699569702148
1683006734564482600,12.003482666015625,1.7770999670028687,-0.9407999515533447,9.598199844360352
1683006734584482600,12.023482666015624,1.7709999084472656,-0.9575999975204468,9.597700119018555
1683006734604482600,12.043482666015626,1.7627999782562256,-0.9761999845504761,9.597299575805664
1683006734624482600,12.063482666015625,1.7556999921798706,-0.9968999624252319,9.5964994430542
1683006734644484000,12.083484130859375,1.7479000091552734,-1.0196999311447144,9.595499992370605
1683006734664482600,12.103482666015625,1.7351999282836914,-1.0460000038146973,9.594999313354492
1683006734684482600,12.123482666015626,1.7110999822616577,-1.0752999782562256,9.596099853515625
1683006734704482600,12.143482666015625,1.6725999116897583,-1.107699990272522,9.599199295043945
1683006734724482600,12.163482666015625,1.6283999681472778,-1.1406999826431274,9.602899551391602
1683006734744482600,12.183482666015625,1.5815999507904053,-1.170699954032898,9.607099533081055
1683006734764484000,12.203484130859374,1.5562999248504639,-1.181399941444397,9.609999656677246
1683006734784482600,12.223482666015625,1.5643999576568604,-1.1725999116897583,9.609700202941895
1683006734804482600,12.243482666015625,1.5649999380111694,-1.1749999523162842,9.609299659729004
1683006734824482600,12.263482666015625,1.5162999629974365,-1.2085999250411987,9.61299991607666
1683006734844482600,12.283482666015624,1.4692999124526978,-1.236799955368042,9.616700172424316
1683006734864482600,12.303482666015626,1.4515999555587769,-1.2354999780654907,9.619500160217285
1683006734884482600,12.323482666015625,1.4697999954223633,-1.2075999975204468,9.620299339294434
1683006734904482600,12.343482666015625,1.5038999319076538,-1.1647999286651611,9.620299339294434
1683006734924482600,12.363482666015624,1.5340999364852905,-1.1292999982833862,9.619799613952637
1683006734944482600,12.383482666015626,1.5439000129699707,-1.0906000137329102,9.622699737548828
1683006734964482600,12.403482666015625,1.5436999797821045,-1.0364999771118164,9.62869930267334
1683006734984484000,12.423484130859375,1.5505999326705933,-0.9616999626159668,9.63539981842041
1683006735004484000,12.443484130859375,1.563599944114685,-0.8847999572753906,9.640600204467773
1683006735024482600,12.463482666015626,1.5748000144958496,-0.8133999705314636,9.645099639892578
1683006735044482600,12.483482666015625,1.583799958229065,-0.7434999942779541,9.649299621582031
1683006735064482600,12.503482666015625,1.5954999923706055,-0.6879000067710876,9.651399612426758
1683006735084482600,12.523482666015624,1.6104999780654907,-0.6527000069618225,9.651399612426758
1683006735104482600,12.543482666015626,1.6174999475479126,-0.6362000107765198,9.651299476623535
1683006735124482600,12.563482666015625,1.6088999509811401,-0.6351000070571899,9.652799606323242
1683006735144482600,12.583482666015625,1.590499997138977,-0.6455999612808228,9.655200004577637
1683006735164482600,12.603482666015625,1.566999912261963,-0.6640999913215637,9.65779972076416
1683006735184482600,12.623482666015626,1.5518999099731445,-0.6801999807357788,9.659099578857422
1683006735204482600,12.643482666015625,1.5571999549865723,-0.6791999936103821,9.658299446105957
1683006735224482600,12.663482666015625,1.573099970817566,-0.6644999980926514,9.65679931640625
1683006735244485600,12.683485595703125,1.5900999307632446,-0.6431999802589417,9.655399322509766
1683006735264482600,12.703482666015624,1.6072999238967896,-0.6290000081062317,9.653499603271484
1683006735284482600,12.723482666015625,1.6200999021530151,-0.6308000087738037,9.651199340820312
1683006735304482600,12.743482666015625,1.6239999532699585,-0.6509999632835388,9.649299621582031
1683006735324482600,12.763482666015625,1.6116999387741089,-0.6839999556541443,9.64900016784668
1683006735344482600,12.783482666015624,1.5895999670028687,-0.7200999855995178,9.650099754333496
1683006735364484000,12.803484130859376,1.563499927520752,-0.7523999810218811,9.651899337768555
1683006735384484000,12.823484130859375,1.5476999282836914,-0.7640999555587769,9.653499603271484
1683006735404482600,12.843482666015625,1.5576999187469482,-0.7401999831199646,9.653800010681152
1683006735424482600,12.863482666015624,1.5952999591827393,-0.6940000057220459,9.651000022888184
1683006735444482600,12.883482666015626,1.6273999214172363,-0.6642999649047852,9.647799491882324
1683006735464482600,12.903482666015625,1.6445999145507812,-0.660099983215332,9.645099639892578
1683006735484482600,12.923482666015625,1.6550999879837036,-0.6563000082969666,9.643599510192871
1683006735504482600,12.943482666015624,1.6856999397277832,-0.6434999704360962,9.639200210571289
1683006735524482600,12.963482666015626,1.7357999086380005,-0.6049000024795532,9.632800102233887
1683006735544482600,12.983482666015625,1.7634999752044678,-0.5709999799728394,9.629799842834473
1683006735564482600,13.003482666015625,1.7380999326705933,-0.5730000138282776,9.634300231933594
1683006735584482600,13.023482666015624,1.688599944114685,-0.5910999774932861,9.642000198364258
1683006735604482600,13.043482666015626,1.6661999225616455,-0.5737999677658081,9.646900177001953
1683006735624482600,13.063482666015625,1.6983999013900757,-0.5252999663352966,9.644100189208984
1683006735644482600,13.083482666015625,1.7425999641418457,-0.4909999966621399,9.637999534606934
1683006735664482600,13.103482666015625,1.7608999013900757,-0.4756999909877777,9.635499954223633
1683006735684482600,13.123482666015626,1.7358999252319336,-0.49480000138282776,9.638999938964844
1683006735704482600,13.143482666015625,1.6922999620437622,-0.5356000065803528,9.644599914550781
1683006735724482600,13.163482666015625,1.667099952697754,-0.5900999903678894,9.64579963684082
1683006735744484000,13.183484130859375,1.6572999954223633,-0.6481999754905701,9.643799781799316
1683006735764485600,13.203485595703125,1.6416999101638794,-0.7031999826431274,9.642600059509277
1683006735784482600,13.223482666015625,1.6100999116897583,-0.7537999749183655,9.644100189208984
1683006735804482600,13.243482666015625,1.5722999572753906,-0.8075999617576599,9.645999908447266
1683006735824482600,13.263482666015625,1.5393999814987183,-0.8643999695777893,9.64639949798584
1683006735844482600,13.283482666015624,1.5128999948501587,-0.9204999804496765,9.645400047302246
1683006735864482600,13.303482666015626,1.4882999658584595,-0.9714999794960022,9.64419937133789
1683006735884482600,13.323482666015625,1.4625999927520752,-1.0163999795913696,9.643499374389648
1683006735904482600,13.343482666015625,1.4377999305725098,-1.0648999214172363,9.642000198364258
1683006735924482600,13.363482666015624,1.4076999425888062,-1.1208000183105469,9.64009952545166
1683006735944482600,13.383482666015626,1.3621000051498413,-1.1787999868392944,9.639699935913086
1683006735964482600,13.403482666015625,1.3107999563217163,-1.2304999828338623,9.640399932861328
1683006735984482600,13.423482666015625,1.271799921989441,-1.2587999105453491,9.642000198364258
1683006736004482600,13.443482666015624,1.26010000705719,-1.2556999921798706,9.643899917602539
1683006736024482600,13.463482666015626,1.271799921989441,-1.2315999269485474,9.645500183105469
1683006736044482600,13.483482666015625,1.274899959564209,-1.2182999849319458,9.646699905395508
1683006736064482600,13.503482666015625,1.253499984741211,-1.2436000108718872,9.646299362182617
1683006736084485600,13.523485595703125,1.2252999544143677,-1.2652000188827515,9.647099494934082
1683006736104482600,13.543482666015626,1.2193999290466309,-1.2688000202178955,9.64739990234375
1683006736124484000,13.563484130859376,1.2660999298095703,-1.2421000003814697,9.644899368286133
1683006736144484000,13.583484130859375,1.350000023841858,-1.1887999773025513,9.640199661254883
1683006736164482600,13.603482666015625,1.4083999395370483,-1.143899917602539,9.637299537658691
1683006736184482600,13.623482666015626,1.4261999130249023,-1.1282999515533447,9.636499404907227
1683006736204482600,13.643482666015625,1.4067000150680542,-1.1273000240325928,9.63949966430664
1683006736224482600,13.663482666015625,1.3695999383926392,-1.0954999923706055,9.648499488830566
1683006736244482600,13.683482666015625,1.374400019645691,-1.0303000211715698,9.654999732971191
1683006736264482600,13.703482666015624,1.4213999509811401,-0.958299994468689,9.655599594116211
1683006736284482600,13.723482666015625,1.4751999378204346,-0.9041999578475952,9.65269947052002
1683006736304482600,13.743482666015625,1.5,-0.8648999929428101,9.65250015258789
1683006736324482600,13.763482666015625,1.5037999153137207,-0.8396999835968018,9.654099464416504
1683006736344482600,13.783482666015624,1.504699945449829,-0.8262999653816223,9.655200004577637
1683006736364484000,13.803484130859376,1.5078999996185303,-0.8185999989509583,9.65530014038086
1683006736384484000,13.823484130859375,1.5073999166488647,-0.8210999965667725,9.655200004577637
1683006736404482600,13.843482666015625,1.5017999410629272,-0.8295999765396118,9.65530014038086
1683006736424482600,13.863482666015624,1.4972999095916748,-0.8387999534606934,9.655200004577637
1683006736444482600,13.883482666015626,1.4951999187469482,-0.8442999720573425,9.655099868774414
1683006736464482600,13.903482666015625,1.4941999912261963,-0.8452000021934509,9.655200004577637
1683006736484482600,13.923482666015625,1.5002999305725098,-0.8424999713897705,9.654500007629395
1683006736504482600,13.943482666015624,1.5087000131607056,-0.8412999510765076,9.653299331665039
1683006736524484000,13.963484130859374,1.5133999586105347,-0.8442999720573425,9.652199745178223
1683006736544484000,13.983484130859376,1.5132999420166016,-0.8507999777793884,9.651700019836426
1683006736564482600,14.003482666015625,1.5130999088287354,-0.8631999492645264,9.650599479675293
1683006736584482600,14.023482666015624,1.5128999948501587,-0.8800999522209167,9.649099349975586
1683006736604482600,14.043482666015626,1.5033999681472778,-0.895799994468689,9.649199485778809
1683006736624482600,14.063482666015625,1.4912999868392944,-0.9081999659538269,9.64989948272705
1683006736644482600,14.083482666015625,1.485700011253357,-0.9097999930381775,9.650599479675293
1683006736664482600,14.103482666015625,1.496399998664856,-0.8849999904632568,9.651199340820312
1683006736684482600,14.123482666015626,1.5303999185562134,-0.8479999899864197,9.649299621582031
1683006736704482600,14.143482666015625,1.5823999643325806,-0.836899995803833,9.641799926757812
1683006736724482600,14.163482666015625,1.6311999559402466,-0.8490999937057495,9.632599830627441
1683006736744484000,14.183484130859375,1.6608999967575073,-0.8551999926567078,9.626999855041504
1683006736764484000,14.203484130859374,1.6734999418258667,-0.8507999777793884,9.625199317932129
1683006736784482600,14.223482666015625,1.667199969291687,-0.8640999794006348,9.625100135803223
1683006736804482600,14.243482666015625,1.6380999088287354,-0.904699981212616,9.626399993896484
1683006736824482600,14.263482666015625,1.5958999395370483,-0.9417999982833862,9.629899978637695
1683006736844482600,14.283482666015624,1.5764999389648438,-0.9382999539375305,9.633399963378906
1683006736864482600,14.303482666015626,1.605299949645996,-0.9133999943733215,9.631099700927734
1683006736884482600,14.323482666015625,1.6581999063491821,-0.8894999623298645,9.62440013885498
1683006736904482600,14.343482666015625,1.6912999153137207,-0.8746999502182007,9.619999885559082
1683006736924482600,14.363482666015624,1.698599934577942,-0.8725999593734741,9.61889934539795
1683006736944484000,14.383484130859374,1.695199966430664,-0.8894999623298645,9.617899894714355
1683006736964484000,14.403484130859376,1.6905999183654785,-0.9229999780654907,9.615599632263184
1683006736984482600,14.423482666015625,1.6822999715805054,-0.9556999802589417,9.613800048828125
1683006737004482600,14.443482666015624,1.6683999300003052,-0.9793999791145325,9.613900184631348
1683006737024482600,14.463482666015626,1.649899959564209,-0.9978999495506287,9.61520004272461
1683006737044482600,14.483482666015625,1.6287999153137207,-1.0152000188827515,9.616899490356445
1683006737064482600,14.503482666015625,1.6067999601364136,-1.0303000211715698,9.618999481201172
1683006737084482600,14.523482666015624,1.5825999975204468,-1.0397000312805176,9.621999740600586
1683006737104482600,14.543482666015626,1.555999994277954,-1.0504999160766602,9.625199317932129
1683006737124482600,14.563482666015625,1.5242999792099,-1.0750999450683594,9.627599716186523
1683006737144482600,14.583482666015625,1.4882999658584595,-1.1168999671936035,9.628399848937988
1683006737164482600,14.603482666015625,1.4401999711990356,-1.1690999269485474,9.629599571228027
1683006737184482600,14.623482666015626,1.3849999904632568,-1.2192999124526978,9.631400108337402
1683006737204484000,14.643484130859376,1.3334999084472656,-1.2568999528884888,9.633899688720703
1683006737224482600,14.663482666015625,1.3008999824523926,-1.2851999998092651,9.634599685668945
1683006737244482600,14.683482666015625,1.2975999116897583,-1.298200011253357,9.633299827575684
1683006737264482600,14.703482666015624,1.2903999090194702,-1.3020999431610107,9.633699417114258
1683006737284482600,14.723482666015625,1.239300012588501,-1.3133000135421753,9.638899803161621
1683006737304482600,14.743482666015625,1.1692999601364136,-1.3203999996185303,9.646699905395508
1683006737324482600,14.763482666015625,1.1096999645233154,-1.3078999519348145,9.655399322509766
1683006737344482600,14.783482666015624,1.0989999771118164,-1.2721999883651733,9.661399841308594
1683006737364485600,14.803485595703124,1.1124999523162842,-1.216499924659729,9.666999816894531
1683006737384484000,14.823484130859375,1.1098999977111816,-1.1806999444961548,9.671799659729004
1683006737404482600,14.843482666015625,1.1023999452590942,-1.1682000160217285,9.674099922180176
1683006737424482600,14.863482666015624,1.1068999767303467,-1.1445999145507812,9.676499366760254
1683006737444482600,14.883482666015626,1.142699956893921,-1.0733000040054321,9.680500030517578
1683006737464482600,14.903482666015625,1.1965999603271484,-0.9794999957084656,9.683899879455566
1683006737484482600,14.923482666015625,1.2472000122070312,-0.8894000053405762,9.686200141906738
1683006737504482600,14.943482666015624,1.2912999391555786,-0.8113999962806702,9.687299728393555
1683006737524482600,14.963482666015626,1.3176000118255615,-0.757099986076355,9.68809986114502
1683006737544482600,14.983482666015625,1.3260999917984009,-0.7305999994277954,9.689000129699707
1683006737564482600,15.003482666015625,1.3309999704360962,-0.72079998254776,9.689099311828613
1683006737584482600,15.023482666015624,1.333299994468689,-0.7206999659538269,9.688799858093262
1683006737604482600,15.043482666015626,1.3363999128341675,-0.7288999557495117,9.687699317932129
1683006737624482600,15.063482666015625,1.3456000089645386,-0.7475000023841858,9.684999465942383
1683006737644482600,15.083482666015625,1.352199912071228,-0.7806999683380127,9.681499481201172
1683006737664482600,15.103482666015625,1.354200005531311,-0.8120999932289124,9.67859935760498
1683006737684482600,15.123482666015626,1.3603999614715576,-0.8361999988555908,9.675700187683105
1683006737704482600,15.143482666015625,1.3746999502182007,-0.8521999716758728,9.6722993850708
1683006737724482600,15.163482666015625,1.396799921989441,-0.8636999726295471,9.668099403381348
1683006737744482600,15.183482666015625,1.4128999710083008,-0.8708999752998352,9.66510009765625
1683006737764482600,15.203482666015624,1.4230999946594238,-0.8757999539375305,9.663199424743652
1683006737784485600,15.223485595703124,1.4306999444961548,-0.882099986076355,9.661499977111816
1683006737804482600,15.243482666015625,1.4391999244689941,-0.8912999629974365,9.65939998626709
1683006737824482600,15.263482666015625,1.4457999467849731,-0.9012999534606934,9.657499313354492
1683006737844482600,15.283482666015624,1.4527000188827515,-0.9041000008583069,9.65619945526123
1683006737864482600,15.303482666015626,1.4661999940872192,-0.8890999555587769,9.655499458312988
1683006737884484000,15.323484130859375,1.4947999715805054,-0.8537999987602234,9.65429973602295
1683006737904482600,15.343482666015625,1.528999924659729,-0.8227999806404114,9.651700019836426
1683006737924484000,15.363484130859375,1.5657999515533447,-0.8132999539375305,9.646499633789062
1683006737944482600,15.383482666015626,1.5923999547958374,-0.8168999552726746,9.641900062561035
1683006737964482600,15.403482666015625,1.6220999956130981,-0.8120999932289124,9.637399673461914
1683006737984482600,15.423482666015625,1.6505999565124512,-0.7803999781608582,9.635099411010742
1683006738004482600,15.443482666015624,1.6619999408721924,-0.7501999735832214,9.635600090026855
1683006738024485600,15.463485595703125,1.6514999866485596,-0.7414999604225159,9.637999534606934
1683006738044482600,15.483482666015625,1.616499900817871,-0.731499969959259,9.644700050354004
1683006738064482600,15.503482666015625,1.5981999635696411,-0.687999963760376,9.651000022888184
1683006738084482600,15.523482666015624,1.632200002670288,-0.6244999766349792,9.6496000289917
1683006738104482600,15.543482666015626,1.6924999952316284,-0.5740000009536743,9.642399787902832
1683006738124482600,15.563482666015625,1.7257999181747437,-0.5436999797821045,9.638199806213379
1683006738144482600,15.583482666015625,1.7065999507904053,-0.5432999730110168,9.64169979095459
1683006738164482600,15.603482666015625,1.668299913406372,-0.5735999941825867,9.646599769592285
1683006738184482600,15.623482666015626,1.6470999717712402,-0.6171000003814697,9.647600173950195
1683006738204482600,15.643482666015625,1.6378999948501587,-0.6585999727249146,9.64639949798584
1683006738224485600,15.663485595703126,1.6211999654769897,-0.6949999928474426,9.646699905395508
1683006738244484000,15.683484130859375,1.5959999561309814,-0.7351999878883362,9.647899627685547
1683006738264482600,15.703482666015624,1.566999912261963,-0.7805999517440796,9.649099349975586
1683006738284482600,15.723482666015625,1.5381999015808105,-0.8274999856948853,9.649799346923828
1683006738304482600,15.743482666015625,1.510699987411499,-0.8664000034332275,9.650699615478516
1683006738324482600,15.763482666015625,1.4836000204086304,-0.8983999490737915,9.651999473571777
1683006738344482600,15.783482666015624,1.4591999053955078,-0.9289000034332275,9.652799606323242
1683006738364482600,15.803482666015626,1.4337999820709229,-0.9562999606132507,9.653999328613281
1683006738384482600,15.823482666015625,1.4053000211715698,-0.9805999994277954,9.655699729919434
1683006738404490200,15.843490234375,1.3762999773025513,-1.0008000135421753,9.65779972076416
1683006738424482600,15.863482666015624,1.3493999242782593,-1.0175999402999878,9.659899711608887
1683006738444482600,15.883482666015626,1.3208999633789062,-1.0322999954223633,9.662199974060059
1683006738464482600,15.903482666015625,1.3034999370574951,-1.045699954032898,9.66309928894043
1683006738484482600,15.923482666015625,1.3003000020980835,-1.0544999837875366,9.662599563598633
1683006738504482600,15.943482666015624,1.2838000059127808,-1.0698000192642212,9.663199424743652
1683006738524482600,15.963482666015626,1.2395999431610107,-1.1079999208450317,9.664599418640137
1683006738544482600,15.983482666015625,1.2042999267578125,-1.136199951171875,9.665800094604492
1683006738564482600,16.003482666015625,1.1927000284194946,-1.1452000141143799,9.666199684143066
1683006738584482600,16.023482666015624,1.2263000011444092,-1.1222000122070312,9.66469955444336
1683006738604482600,16.043482666015624,1.2913999557495117,-1.0716999769210815,9.66189956665039
1683006738624482600,16.063482666015624,1.3327999114990234,-1.0317000150680542,9.660699844360352
1683006738644482600,16.083482666015627,1.3411999940872192,-1.0033999681472778,9.66249942779541
1683006738664482600,16.103482666015626,1.3260999917984009,-0.9721999764442444,9.667799949645996
1683006738684482600,16.123482666015626,1.3169000148773193,-0.911300003528595,9.67490005493164
1683006738704484000,16.143484130859374,1.3483999967575073,-0.8305999636650085,9.677899360656738
1683006738724485600,16.163485595703126,1.4139999151229858,-0.7594000101089478,9.674399375915527
1683006738744482600,16.183482666015625,1.4747999906539917,-0.7027999758720398,9.669499397277832
1683006738764482600,16.203482666015624,1.5120999813079834,-0.6624000072479248,9.666600227355957
1683006738784482600,16.223482666015624,1.5353999137878418,-0.6383000016212463,9.664599418640137
1683006738804482600,16.243482666015623,1.5609999895095825,-0.6330999732017517,9.660799980163574
1683006738824482600,16.263482666015626,1.5925999879837036,-0.6444999575614929,9.654899597167969
1683006738844482600,16.283482666015626,1.6130999326705933,-0.6611999869346619,9.650400161743164
1683006738864482600,16.303482666015626,1.615399956703186,-0.6840999722480774,9.648399353027344
1683006738884482600,16.323482666015625,1.6031999588012695,-0.7186999917030334,9.647899627685547
1683006738904482600,16.343482666015625,1.5931999683380127,-0.7597000002861023,9.64639949798584
1683006738924484000,16.363484130859376,1.593500018119812,-0.8036999702453613,9.642799377441406
1683006738944482600,16.383482666015624,1.5999000072479248,-0.8470999598503113,9.638099670410156
1683006738964482600,16.403482666015623,1.6031999588012695,-0.8921999931335449,9.633399963378906
1683006738984482600,16.423482666015627,1.601199984550476,-0.9422000050544739,9.628999710083008
1683006739004482600,16.443482666015626,1.5973999500274658,-0.9975000023841858,9.62399959564209
1683006739024482600,16.463482666015626,1.5855000019073486,-1.0561000108718872,9.619799613952637
1683006739044482600,16.483482666015625,1.565999984741211,-1.1124999523162842,9.616600036621094
1683006739064482600,16.503482666015625,1.5464999675750732,-1.1554999351501465,9.614699363708496
1683006739084482600,16.523482666015624,1.534999966621399,-1.1779999732971191,9.613800048828125
1683006739104482600,16.543482666015624,1.5480999946594238,-1.1660000085830688,9.613200187683105
1683006739124482600,16.563482666015624,1.5913000106811523,-1.1146999597549438,9.612199783325195
1683006739144482600,16.583482666015627,1.6395999193191528,-1.0526000261306763,9.611100196838379
1683006739164484000,16.603484130859375,1.680299997329712,-1.0160000324249268,9.607999801635742
1683006739184484000,16.623484130859374,1.7150999307632446,-0.9886999726295471,9.604700088500977
1683006739204482600,16.643482666015625,1.7585999965667725,-0.9440000057220459,9.601299285888672
1683006739224482600,16.663482666015625,1.8179999589920044,-0.8640999794006348,9.597799301147461
1683006739244482600,16.683482666015625,1.857100009918213,-0.7853999733924866,9.597099304199219
1683006739264482600,16.703482666015624,1.8394999504089355,-0.7605999708175659,9.602399826049805
1683006739284482600,16.723482666015624,1.7831000089645386,-0.7777000069618225,9.611700057983398
1683006739304482600,16.743482666015623,1.7466999292373657,-0.7631999850273132,9.619599342346191
1683006739324482600,16.763482666015626,1.7731999158859253,-0.6985999941825867,9.619599342346191
1683006739344482600,16.783482666015626,1.8427999019622803,-0.6417999863624573,9.610499382019043
1683006739364482600,16.803482666015626,1.8959999084472656,-0.611799955368042,9.602099418640137
1683006739384482600,16.823482666015625,1.90339994430542,-0.6166999936103821,9.600299835205078
1683006739404482600,16.843482666015625,1.8769999742507935,-0.6586999893188477,9.602700233459473
1683006739424482600,16.863482666015624,1.852199912071228,-0.7228999733924866,9.602899551391602
1683006739444482600,16.883482666015624,1.8388999700546265,-0.7947999835014343,9.599800109863281
1683006739464482600,16.903482666015623,1.8228999376296997,-0.8639000058174133,9.59689998626709
1683006739484482600,16.923482666015627,1.7969999313354492,-0.9250999689102173,9.595999717712402
1683006739504482600,16.943482666015626,1.764799952507019,-0.9815999865531921,9.596399307250977
1683006739524482600,16.963482666015626,1.7345999479293823,-1.0318999290466309,9.596599578857422
1683006739544482600,16.983482666015625,1.7120000123977661,-1.0705000162124634,9.5964994430542
1683006739564482600,17.003482666015625,1.694000005722046,-1.0959999561309814,9.596799850463867
1683006739584482600,17.023482666015624,1.6811999082565308,-1.118299961090088,9.5964994430542
1683006739604482600,17.043482666015624,1.6680999994277954,-1.1514999866485596,9.594799995422363
1683006739624482600,17.063482666015624,1.6440999507904053,-1.198599934577942,9.593199729919434
1683006739644482600,17.083482666015627,1.6049000024795532,-1.2511999607086182,9.593099594116211
1683006739664484000,17.103484130859375,1.5606999397277832,-1.2975999116897583,9.594200134277344
1683006739684484000,17.123484130859374,1.5231000185012817,-1.3292999267578125,9.59589958190918
1683006739704482600,17.143482666015625,1.5056999921798706,-1.3488999605178833,9.595999717712402
1683006739724482600,17.163482666015625,1.500499963760376,-1.3567999601364136,9.595699310302734
1683006739744482600,17.183482666015625,1.476199984550476,-1.3752999305725098,9.596799850463867
1683006739764482600,17.203482666015624,1.434899926185608,-1.4129999876022339,9.597599983215332
1683006739784482600,17.223482666015624,1.4068999290466309,-1.444700002670288,9.597000122070312
1683006739804482600,17.243482666015623,1.4112999439239502,-1.4491000175476074,9.595699310302734
1683006739824482600,17.263482666015626,1.472599983215332,-1.4189000129699707,9.590999603271484
1683006739844482600,17.283482666015626,1.5592999458312988,-1.376599907875061,9.583399772644043
1683006739864482600,17.303482666015626,1.6003999710083008,-1.3608999252319336,9.578899383544922
1683006739884485600,17.323485595703126,1.5935999155044556,-1.362399935722351,9.579899787902832
1683006739904485600,17.343485595703125,1.5463999509811401,-1.347499966621399,9.589699745178223
1683006739924484000,17.363484130859376,1.497399926185608,-1.2914999723434448,9.60509967803955
1683006739944484000,17.383484130859376,1.5054999589920044,-1.2049000263214111,9.615099906921387
1683006739964482600,17.403482666015623,1.5586999654769897,-1.114400029182434,9.617599487304688
1683006739984482600,17.423482666015627,1.6137999296188354,-1.0332000255584717,9.617599487304688
1683006740004482600,17.443482666015626,1.6532999277114868,-0.965499997138977,9.617899894714355
1683006740024482600,17.463482666015626,1.6692999601364136,-0.923799991607666,9.619199752807617
1683006740044482600,17.483482666015625,1.6756999492645264,-0.9098999500274658,9.619400024414062
1683006740064482600,17.503482666015625,1.6794999837875366,-0.9161999821662903,9.618199348449707
1683006740084482600,17.523482666015624,1.6818000078201294,-0.9267999529838562,9.616700172424316
1683006740104485600,17.543485595703125,1.681399941444397,-0.939300000667572,9.615599632263184
1683006740124484000,17.563484130859376,1.670699954032898,-0.9660999774932861,9.614799499511719
1683006740144482600,17.583482666015627,1.6584999561309814,-1.0009000301361084,9.613299369812012
1683006740164482600,17.603482666015626,1.6535999774932861,-1.0322999954223633,9.610899925231934
1683006740184482600,17.623482666015626,1.6928999423980713,-1.055400013923645,9.601499557495117
1683006740204482600,17.643482666015625,1.715499997138977,-1.0750999450683594,9.59529972076416
1683006740224482600,17.663482666015625,1.7250999212265015,-1.094099998474121,9.591499328613281
1683006740244482600,17.683482666015625,1.7304999828338623,-1.1217999458312988,9.587299346923828
1683006740264482600,17.703482666015624,1.7358999252319336,-1.149899959564209,9.583000183105469
1683006740284482600,17.723482666015624,1.7328999042510986,-1.1704999208450317,9.580999374389648
1683006740304482600,17.743482666015623,1.7249000072479248,-1.1819000244140625,9.581099510192871
1683006740324482600,17.763482666015626,1.7294999361038208,-1.1796000003814697,9.580499649047852
1683006740344482600,17.783482666015626,1.7538999319076538,-1.1548999547958374,9.579099655151367
1683006740364482600,17.803482666015626,1.7900999784469604,-1.1119999885559082,9.577499389648438
1683006740384482600,17.823482666015625,1.8180999755859375,-1.087899923324585,9.574999809265137
1683006740404485600,17.843485595703125,1.8371999263763428,-1.0900999307632446,9.571100234985352
1683006740424485600,17.863485595703125,1.8482999801635742,-1.1017999649047852,9.567599296569824
1683006740444482600,17.883482666015624,1.8640999794006348,-1.0852999687194824,9.566399574279785
1683006740464482600,17.903482666015623,1.8625999689102173,-1.0424000024795532,9.571499824523926
1683006740484482600,17.923482666015627,1.8431999683380127,-1.0168999433517456,9.57800006866455
1683006740504482600,17.943482666015626,1.7985999584197998,-1.0109000205993652,9.5871000289917
1683006740524482600,17.963482666015626,1.7588999271392822,-0.9853000044822693,9.597099304199219
1683006740544482600,17.983482666015625,1.7594000101089478,-0.9204999804496765,9.603499412536621
1683006740564482600,18.003482666015625,1.802299976348877,-0.8616999983787537,9.60099983215332
1683006740584482600,18.023482666015624,1.8437999486923218,-0.8341999650001526,9.595499992370605
1683006740604482600,18.043482666015624,1.8449000120162964,-0.8370999693870544,9.594999313354492
1683006740624482600,18.063482666015624,1.8097999095916748,-0.8583999872207642,9.599800109863281
1683006740644482600,18.083482666015627,1.7705999612808228,-0.8881999850273132,9.604399681091309
1683006740664482600,18.103482666015626,1.7529000043869019,-0.9111999869346619,9.605500221252441
1683006740684485600,18.123485595703126,1.757699966430664,-0.9269999861717224,9.603099822998047
1683006740704484000,18.143484130859374,1.7579998970031738,-0.9414999485015869,9.601699829101562
1683006740724482600,18.163482666015625,1.7457000017166138,-0.9551999568939209,9.60260009765625
1683006740744482600,18.183482666015625,1.7305999994277954,-0.9691999554634094,9.603899955749512
1683006740764482600,18.203482666015624,1.7170000076293945,-0.9870999455451965,9.604499816894531
1683006740784482600,18.223482666015624,1.6990998983383179,-1.0090999603271484,9.605400085449219
1683006740804482600,18.243482666015623,1.6750999689102173,-1.0312999486923218,9.6072998046875
1683006740824482600,18.263482666015626,1.649999976158142,-1.0516999959945679,9.609399795532227
1683006740844482600,18.283482666015626,1.628600001335144,-1.0707999467849731,9.610899925231934
1683006740864482600,18.303482666015626,1.5999000072479248,-1.0965999364852905,9.612899780273438
1683006740884482600,18.323482666015625,1.5556999444961548,-1.1258000135421753,9.616700172424316
1683006740904482600,18.343482666015625,1.5088999271392822,-1.146799921989441,9.621699333190918
1683006740924484000,18.363484130859376,1.4800000190734863,-1.1536999940872192,9.625399589538574
1683006740944482600,18.383482666015624,1.472599983215332,-1.1489999294281006,9.627099990844727
1683006740964482600,18.403482666015623,1.4717999696731567,-1.1410999298095703,9.62809944152832
1683006740984482600,18.423482666015627,1.451799988746643,-1.1406999826431274,9.631199836730957
1683006741004482600,18.443482666015626,1.406599998474121,-1.1576999425888062,9.635899543762207
1683006741024482600,18.463482666015626,1.3716999292373657,-1.1674000024795532,9.639699935913086
1683006741044482600,18.483482666015625,1.3650999069213867,-1.1496999263763428,9.642799377441406
1683006741064482600,18.503482666015625,1.3909000158309937,-1.107699990272522,9.644000053405762
1683006741084482600,18.523482666015624,1.4358999729156494,-1.0425999164581299,9.644700050354004
1683006741104482600,18.543482666015624,1.4789999723434448,-0.9842999577522278,9.644299507141113
1683006741124482600,18.563482666015624,1.5063999891281128,-0.9508999586105347,9.643400192260742
1683006741144482600,18.583482666015627,1.507099986076355,-0.9444999694824219,9.643899917602539
1683006741164482600,18.603482666015626,1.490299940109253,-0.9409999847412109,9.646900177001953
1683006741184482600,18.623482666015626,1.486899971961975,-0.911799967288971,9.650199890136719
1683006741204482600,18.643482666015625,1.50819993019104,-0.8720999956130981,9.650599479675293
1683006741224482600,18.663482666015625,1.5410999059677124,-0.8323999643325806,9.648900032043457
1683006741244482600,18.683482666015625,1.5636999607086182,-0.7993999719619751,9.648099899291992
1683006741264482600,18.703482666015624,1.584399938583374,-0.7718999981880188,9.646900177001953
1683006741284482600,18.723482666015624,1.607699990272522,-0.7543999552726746,9.644399642944336
1683006741304482600,18.743482666015623,1.6236000061035156,-0.7550999522209167,9.64169979095459
1683006741324482600,18.763482666015626,1.6231999397277832,-0.7773000001907349,9.639999389648438
1683006741344482600,18.783482666015626,1.611799955368042,-0.807699978351593,9.639399528503418
1683006741364482600,18.803482666015626,1.6018999814987183,-0.8384000062942505,9.638500213623047
1683006741384482600,18.823482666015625,1.5999999046325684,-0.8676999807357788,9.636199951171875
1683006741404482600,18.843482666015625,1.6121999025344849,-0.8937999606132507,9.631799697875977
1683006741424484000,18.863484130859376,1.6266999244689941,-0.9107999801635742,9.627799987792969
1683006741444482600,18.883482666015624,1.6373999118804932,-0.9208999872207642,9.625
1683006741464482600,18.903482666015623,1.6507999897003174,-0.9307000041007996,9.621699333190918
1683006741484482600,18.923482666015627,1.6614999771118164,-0.9448999762535095,9.618499755859375
1683006741504482600,18.943482666015626,1.6591999530792236,-0.9705999493598938,9.616299629211426
1683006741524482600,18.963482666015626,1.646899938583374,-1.0017999410629272,9.615300178527832
1683006741544482600,18.983482666015625,1.6316999197006226,-1.0257999897003174,9.615300178527832
1683006741564482600,19.003482666015625,1.619499921798706,-1.0413999557495117,9.615699768066406
1683006741584482600,19.023482666015624,1.6161999702453613,-1.0476000308990479,9.615599632263184
1683006741604482600,19.043482666015624,1.6205999851226807,-1.0436999797821045,9.615300178527832
1683006741624482600,19.063482666015624,1.6358000040054321,-1.0235999822616577,9.614899635314941
1683006741644482600,19.083482666015627,1.6624000072479248,-0.9964999556541443,9.613200187683105
1683006741664482600,19.103482666015626,1.6861999034881592,-0.9858999848365784,9.610099792480469
1683006741684482600,19.123482666015626,1.70579993724823,-0.9978999495506287,9.605400085449219
1683006741704482600,19.143482666015625,1.7163000106811523,-1.013100028038025,9.601900100708008
1683006741724482600,19.163482666015625,1.7264999151229858,-1.0220999717712402,9.599100112915039
1683006741744482600,19.183482666015625,1.7486999034881592,-1.0066999197006226,9.596799850463867
1683006741764482600,19.203482666015624,1.7579998970031738,-0.9812999963760376,9.597700119018555
1683006741784484000,19.223484130859376,1.7351999282836914,-0.9718999862670898,9.602799415588379
1683006741804482600,19.243482666015623,1.7000999450683594,-0.973800003528595,9.60890007019043
1683006741824482600,19.263482666015626,1.6962000131607056,-0.94159996509552,9.612799644470215
1683006741844482600,19.283482666015626,1.7319999933242798,-0.8682000041007996,9.613299369812012
1683006741864482600,19.303482666015626,1.771299958229065,-0.7980999946594238,9.612199783325195
1683006741884482600,19.323482666015625,1.7841999530792236,-0.7453999519348145,9.614099502563477
1683006741904482600,19.343482666015625,1.7716999053955078,-0.7270999550819397,9.617799758911133
1683006741924482600,19.363482666015624,1.7453999519348145,-0.7432000041007996,9.621399879455566
1683006741944482600,19.383482666015624,1.7218999862670898,-0.7816999554634094,9.622499465942383
1683006741964482600,19.403482666015623,1.7019000053405762,-0.824999988079071,9.622499465942383
1683006741984482600,19.423482666015627,1.6715999841690063,-0.8680999875068665,9.62399959564209
1683006742004482600,19.443482666015626,1.6328999996185303,-0.911300003528595,9.626599311828613
1683006742024485600,19.463485595703126,1.5936999320983887,-0.9572999477386475,9.62869930267334
1683006742044485600,19.483485595703126,1.5547999143600464,-1.0083999633789062,9.629899978637695
1683006742064482600,19.503482666015625,1.5185999870300293,-1.0539000034332275,9.630799293518066
1683006742084482600,19.523482666015624,1.4875999689102173,-1.0841000080108643,9.632299423217773
1683006742104482600,19.543482666015624,1.468500018119812,-1.1047999858856201,9.632899284362793
1683006742124482600,19.563482666015624,1.4549999237060547,-1.1247999668121338,9.632599830627441
1683006742144482600,19.583482666015627,1.4340999126434326,-1.1524999141693115,9.632499694824219
1683006742164482600,19.603482666015626,1.4012999534606934,-1.1791999340057373,9.634099960327148
1683006742184482600,19.623482666015626,1.3619999885559082,-1.2044999599456787,9.63659954071045
1683006742204482600,19.643482666015625,1.3183000087738037,-1.2354999780654907,9.638699531555176
1683006742224482600,19.663482666015625,1.2807999849319458,-1.264299988746643,9.639999389648438
1683006742244482600,19.683482666015625,1.2664999961853027,-1.288599967956543,9.638699531555176
1683006742264482600,19.703482666015624,1.2577999830245972,-1.3191999197006226,9.635700225830078
1683006742284482600,19.723482666015624,1.227199912071228,-1.3762999773025513,9.631699562072754
1683006742304482600,19.743482666015623,1.1934000253677368,-1.4347000122070312,9.627399444580078
1683006742324482600,19.763482666015626,1.1834999322891235,-1.4541000127792358,9.625699996948242
1683006742344482600,19.783482666015626,1.2272999286651611,-1.4233999252319336,9.624799728393555
1683006742364485600,19.803485595703126,1.313599944114685,-1.3646999597549438,9.621899604797363
1683006742384485600,19.823485595703126,1.3940999507904053,-1.3141999244689941,9.617599487304688
1683006742404484000,19.843484130859373,1.4250999689102173,-1.2817000150680542,9.617499351501465
1683006742424484000,19.863484130859376,1.4063999652862549,-1.2706999778747559,9.621699333190918
1683006742444482600,19.883482666015624,1.3774999380111694,-1.267199993133545,9.626299858093262
1683006742464482600,19.903482666015623,1.3738999366760254,-1.2441999912261963,9.629799842834473
1683006742484482600,19.923482666015627,1.4045000076293945,-1.1922999620437622,9.631999969482422
1683006742504482600,19.943482666015626,1.4539999961853027,-1.1306999921798706,9.632100105285645
1683006742524482600,19.963482666015626,1.5037999153137207,-1.0795999765396118,9.63029956817627
1683006742544482600,19.983482666015625,1.5410999059677124,-1.0454000234603882,9.62809944152832
1683006742564482600,20.003482666015625,1.566999912261963,-1.0250999927520752,9.626199722290039
1683006742584482600,20.023482666015624,1.5877000093460083,-1.017799973487854,9.623499870300293
1683006742604485600,20.043485595703125,1.6002999544143677,-1.0271999835968018,9.620399475097656
1683006742624485600,20.063485595703124,1.6073999404907227,-1.0483999252319336,9.616999626159668
1683006742644485600,20.083485595703124,1.6098999977111816,-1.0743999481201172,9.613699913024902
1683006742664484000,20.103484130859375,1.6129999160766602,-1.0946999788284302,9.610899925231934
1683006742684482600,20.123482666015626,1.61899995803833,-1.1122000217437744,9.60789966583252
1683006742704482600,20.143482666015625,1.6277999877929688,-1.121399998664856,9.605299949645996
1683006742724482600,20.163482666015625,1.6346999406814575,-1.129599928855896,9.60319995880127
1683006742744482600,20.183482666015625,1.639299988746643,-1.1354999542236328,9.601699829101562
1683006742764482600,20.203482666015624,1.643899917602539,-1.1399999856948853,9.6003999710083
1683006742784482600,20.223482666015624,1.6423999071121216,-1.148800015449524,9.599599838256836
1683006742804482600,20.243482666015623,1.6328999996185303,-1.1614999771118164,9.599699974060059
1683006742824482600,20.263482666015626,1.616499900817871,-1.1756999492645264,9.600699424743652
1683006742844484000,20.283484130859375,1.5992999076843262,-1.184899926185608,9.602499961853027
1683006742864484000,20.303484130859374,1.583799958229065,-1.1811000108718872,9.605500221252441
1683006742884482600,20.323482666015625,1.5812000036239624,-1.1563999652862549,9.60890007019043
1683006742904482600,20.343482666015625,1.5938999652862549,-1.1096999645233154,9.612299919128418
1683006742924482600,20.363482666015624,1.5997999906539917,-1.0733000040054321,9.615499496459961
1683006742944482600,20.383482666015624,1.6018999814987183,-1.0548999309539795,9.617199897766113
1683006742964482600,20.403482666015623,1.6089999675750732,-1.0331000089645386,9.618399620056152
1683006742984482600,20.423482666015627,1.631500005722046,-1.0018999576568604,9.617899894714355
1683006743004482600,20.443482666015626,1.6720999479293823,-0.9544999599456787,9.615699768066406
1683006743024482600,20.463482666015626,1.7130999565124512,-0.9115999937057495,9.612699508666992
1683006743044482600,20.483482666015625,1.7181999683380127,-0.9066999554634094,9.612199783325195
1683006743064482600,20.503482666015625,1.6924999952316284,-0.9503999948501587,9.61259937286377
1683006743084482600,20.523482666015624,1.6691999435424805,-0.9894999861717224,9.612699508666992
1683006743104482600,20.543482666015624,1.6785999536514282,-0.975600004196167,9.612500190734863
1683006743124482600,20.563482666015624,1.7206000089645386,-0.9351999759674072,9.609099388122559
1683006743144482600,20.583482666015627,1.7486000061035156,-0.9095999598503113,9.606499671936035
1683006743164485600,20.603485595703123,1.750999927520752,-0.9045999646186829,9.606499671936035
1683006743184482600,20.623482666015626,1.7383999824523926,-0.9197999835014343,9.6072998046875
1683006743204482600,20.643482666015625,1.7300999164581299,-0.9451999664306641,9.606399536132812
1683006743224482600,20.663482666015625,1.7350000143051147,-0.9702999591827393,9.602999687194824
1683006743244482600,20.683482666015625,1.7422999143600464,-0.9939000010490417,9.599299430847168
1683006743264482600,20.703482666015624,1.7371000051498413,-1.0217000246047974,9.597299575805664
1683006743284482600,20.723482666015624,1.7173999547958374,-1.0586999654769897,9.596799850463867
1683006743304482600,20.743482666015623,1.6927999258041382,-1.1067999601364136,9.595799446105957
1683006743324482600,20.763482666015626,1.664199948310852,-1.1639000177383423,9.593999862670898
1683006743344482600,20.783482666015626,1.6283999681472778,-1.2146999835968018,9.593899726867676
1683006743364482600,20.803482666015626,1.5963000059127808,-1.2567999362945557,9.593799591064453
1683006743384482600,20.823482666015625,1.5769999027252197,-1.292099952697754,9.592299461364746
1683006743404482600,20.843482666015625,1.5609999895095825,-1.3248999118804932,9.590499877929688
1683006743424482600,20.863482666015624,1.541599988937378,-1.362399935722351,9.588399887084961
1683006743444482600,20.883482666015624,1.5168999433517456,-1.3950999975204468,9.587599754333496
1683006743464482600,20.903482666015623,1.4876999855041504,-1.4225000143051147,9.588099479675293
1683006743484482600,20.923482666015627,1.4555000066757202,-1.4397000074386597,9.590499877929688
1683006743504482600,20.943482666015626,1.4306999444961548,-1.4352999925613403,9.594900131225586
1683006743524482600,20.963482666015626,1.4312999248504639,-1.4085999727249146,9.598799705505371
1683006743544482600,20.983482666015625,1.4476999044418335,-1.378600001335144,9.600699424743652
1683006743564482600,21.003482666015625,1.4392999410629272,-1.371899962425232,9.602899551391602
1683006743584482600,21.023482666015624,1.4096999168395996,-1.3960999250411987,9.603799819946289
1683006743604482600,21.043482666015624,1.375499963760376,-1.4124000072479248,9.606399536132812
1683006743624482600,21.063482666015624,1.3637999296188354,-1.4053999185562134,9.609099388122559
1683006743644482600,21.083482666015627,1.3937000036239624,-1.3646999597549438,9.610599517822266
1683006743664482600,21.103482666015626,1.4430999755859375,-1.3087999820709229,9.611100196838379
1683006743684482600,21.123482666015626,1.4825999736785889,-1.2616000175476074,9.61139965057373
1683006743704482600,21.143482666015625,1.50409996509552,-1.2206000089645386,9.613399505615234
1683006743724482600,21.163482666015625,1.504699945449829,-1.1682000160217285,9.619799613952637
1683006743744482600,21.183482666015625,1.5166999101638794,-1.097000002861023,9.626299858093262
1683006743764482600,21.203482666015624,1.5525000095367432,-1.0205999612808228,9.628999710083008
1683006743784482600,21.223482666015624,1.601599931716919,-0.960099995136261,9.62720012664795
1683006743804482600,21.243482666015623,1.6412999629974365,-0.9185000061988831,9.624499320983887
1683006743824482600,21.263482666015626,1.6542999744415283,-0.899399995803833,9.624099731445312
1683006743844482600,21.283482666015626,1.6552000045776367,-0.9025999903678894,9.623700141906738
1683006743864482600,21.303482666015626,1.659500002861023,-0.9127999544143677,9.621899604797363
1683006743884482600,21.323482666015625,1.664099931716919,-0.9231999516487122,9.620200157165527
1683006743904484000,21.343484130859373,1.6627999544143677,-0.9346999526023865,9.61929988861084
1683006743924482600,21.363482666015624,1.660499930381775,-0.9483000040054321,9.61829948425293
1683006743944482600,21.383482666015624,1.6622999906539917,-0.9643999934196472,9.616399765014648
1683006743964482600,21.403482666015623,1.6653000116348267,-0.9764999747276306,9.614699363708496
1683006743984482600,21.423482666015627,1.6675999164581299,-0.9845999479293823,9.613499641418457
1683006744004482600,21.443482666015626,1.6717000007629395,-0.9858999848365784,9.61259937286377
1683006744024482600,21.463482666015626,1.6832000017166138,-0.9861999750137329,9.610599517822266
1683006744044482600,21.483482666015625,1.6962000131607056,-0.988099992275238,9.608099937438965
1683006744064482600,21.503482666015625,1.7041000127792358,-0.9934999942779541,9.606200218200684
1683006744084482600,21.523482666015624,1.69760000705719,-1.0056999921798706,9.605999946594238
1683006744104482600,21.543482666015624,1.6785999536514282,-1.0203999280929565,9.607799530029297
1683006744124482600,21.563482666015624,1.6560999155044556,-1.0325000286102295,9.610400199890137
1683006744144482600,21.583482666015627,1.6384999752044678,-1.0318999290466309,9.613499641418457
1683006744164482600,21.603482666015626,1.6333999633789062,-1.0092999935150146,9.616799354553223
1683006744184491800,21.62349169921875,1.6523000001907349,-0.9598000049591064,9.618599891662598
1683006744204482600,21.643482666015625,1.6916999816894531,-0.8932999968528748,9.618199348449707
1683006744224482600,21.663482666015625,1.739300012588501,-0.8307999968528748,9.615300178527832
1683006744244482600,21.683482666015625,1.7924000024795532,-0.7736999988555908,9.610300064086914
1683006744264482600,21.703482666015624,1.8400999307632446,-0.7312999963760376,9.604599952697754
1683006744284482600,21.723482666015624,1.8911999464035034,-0.6936999559402466,9.59749984741211
1683006744304482600,21.743482666015623,1.9325999021530151,-0.6596999764442444,9.591599464416504
1683006744324482600,21.763482666015626,1.9463999271392822,-0.648099958896637,9.589599609375
1683006744344482600,21.783482666015626,1.9263999462127686,-0.6674999594688416,9.592299461364746
1683006744364482600,21.803482666015626,1.8917999267578125,-0.6969000101089478,9.597099304199219
1683006744384482600,21.823482666015625,1.8782999515533447,-0.6992999911308289,9.599599838256836
1683006744404482600,21.843482666015625,1.8982999324798584,-0.6839999556541443,9.596799850463867
1683006744424482600,21.863482666015624,1.9286999702453613,-0.6699999570846558,9.591699600219727
1683006744444482600,21.883482666015624,1.9352999925613403,-0.6676999926567078,9.590499877929688
1683006744464482600,21.903482666015623,1.9147999286651611,-0.6868000030517578,9.593299865722656
1683006744484482600,21.923482666015627,1.8704999685287476,-0.7315999865531921,9.598699569702148
1683006744504482600,21.943482666015626,1.8402999639511108,-0.7910000085830688,9.599800109863281
1683006744524482600,21.963482666015626,1.8405998945236206,-0.840999960899353,9.595499992370605
1683006744544482600,21.983482666015625,1.8517999649047852,-0.8792999982833862,9.589900016784668
1683006744564482600,22.003482666015625,1.8519999980926514,-0.9126999974250793,9.586799621582031
1683006744584482600,22.023482666015624,1.8317999839782715,-0.9475999474525452,9.587299346923828
1683006744604482600,22.043482666015624,1.803399920463562,-0.9882999658584595,9.588500022888184
1683006744624482600,22.063482666015624,1.7702999114990234,-1.0425999164581299,9.58899974822998
1683006744644482600,22.083482666015627,1.7344999313354492,-1.1059999465942383,9.588399887084961
1683006744664482600,22.103482666015626,1.6995999813079834,-1.1674000024795532,9.58739948272705
1683006744684482600,22.123482666015626,1.6816999912261963,-1.2151999473571777,9.584599494934082
1683006744704482600,22.143482666015625,1.6710000038146973,-1.2526999711990356,9.581600189208984
1683006744724482600,22.163482666015625,1.650999903678894,-1.2853999137878418,9.58080005645752
1683006744744482600,22.183482666015625,1.622399926185608,-1.3131999969482422,9.581899642944336
1683006744764482600,22.203482666015624,1.5844999551773071,-1.334999918937683,9.585199356079102
1683006744784482600,22.223482666015624,1.5549999475479126,-1.3416999578475952,9.589099884033203
1683006744804482600,22.243482666015623,1.5499999523162842,-1.3292999267578125,9.591599464416504
1683006744824482600,22.263482666015626,1.555299997329712,-1.3006999492645264,9.59469985961914
1683006744844482600,22.283482666015626,1.538599967956543,-1.2843999862670898,9.599599838256836
1683006744864482600,22.303482666015626,1.485700011253357,-1.2853999137878418,9.607799530029297
1683006744884482600,22.323482666015625,1.4381999969482422,-1.2668999433517456,9.617499351501465
1683006744904482600,22.343482666015625,1.4199999570846558,-1.2214000225067139,9.626099586486816
1683006744924482600,22.363482666015624,1.454699993133545,-1.1466000080108643,9.630099296569824
1683006744944482600,22.383482666015624,1.5310999155044556,-1.0548999309539795,9.62869930267334
1683006744964485600,22.403485595703124,1.586899995803833,-0.9799000024795532,9.627599716186523
1683006744984485600,22.423485595703124,1.5958999395370483,-0.9335999488830566,9.63070011138916
1683006745004485600,22.443485595703127,1.5743999481201172,-0.9050999879837036,9.63700008392334
1683006745024482600,22.463482666015626,1.5500999689102173,-0.8662999868392944,9.644499778747559
1683006745044482600,22.483482666015625,1.5543999671936035,-0.8152999877929688,9.648200035095215
1683006745064482600,22.503482666015625,1.5865999460220337,-0.7608999609947205,9.64739990234375
1683006745084482600,22.523482666015624,1.6180999279022217,-0.7103999853134155,9.645999908447266
1683006745104482600,22.543482666015624,1.64329993724823,-0.6696000099182129,9.644700050354004
1683006745124482600,22.563482666015624,1.6612999439239502,-0.6448000073432922,9.64330005645752
1683006745144482600,22.583482666015627,1.674799919128418,-0.6354999542236328,9.641599655151367
1683006745164482600,22.603482666015626,1.685499906539917,-0.6417999863624573,9.639299392700195
1683006745184491800,22.62349169921875,1.6906999349594116,-0.6653000116348267,9.636799812316895
1683006745204482600,22.643482666015625,1.694599986076355,-0.7033999562263489,9.633399963378906
1683006745224482600,22.663482666015625,1.7066999673843384,-0.7515000104904175,9.627699851989746
1683006745244482600,22.683482666015625,1.722599983215332,-0.8017999529838562,9.620800018310547
1683006745264482600,22.703482666015624,1.7412999868392944,-0.847000002861023,9.613499641418457
1683006745284485600,22.723485595703124,1.7538999319076538,-0.8952999711036682,9.606800079345703
1683006745304482600,22.743482666015623,1.7515000104904175,-0.9404000043869019,9.602999687194824
1683006745324482600,22.763482666015626,1.742799997329712,-0.9754999876022339,9.60099983215332
1683006745344482600,22.783482666015626,1.7441999912261963,-0.998699963092804,9.598400115966797
1683006745364482600,22.803482666015626,1.7588999271392822,-1.0108000040054321,9.594499588012695
1683006745384482600,22.823482666015625,1.7695999145507812,-1.018399953842163,9.591699600219727
1683006745404482600,22.843482666015625,1.7638999223709106,-1.0317000150680542,9.591300010681152
1683006745424482600,22.863482666015624,1.7458999156951904,-1.0447999238967896,9.593199729919434
1683006745444482600,22.883482666015624,1.7249999046325684,-1.0454999208450317,9.59689998626709
1683006745464482600,22.903482666015623,1.7148998975753784,-1.0196999311447144,9.601499557495117
1683006745484482600,22.923482666015627,1.7209999561309814,-0.9696999788284302,9.605599403381348
1683006745504485600,22.943485595703127,1.729200005531311,-0.9304999709129333,9.607999801635742
1683006745524482600,22.963482666015626,1.7293999195098877,-0.9132999777793884,9.609600067138672
1683006745544482600,22.983482666015625,1.7286999225616455,-0.913599967956543,9.609700202941895
1683006745564482600,23.003482666015625,1.7421000003814697,-0.9086999893188477,9.607699394226074
1683006745584482600,23.023482666015624,1.7502999305725098,-0.8905999660491943,9.60789966583252
1683006745604482600,23.043482666015624,1.7445999383926392,-0.8714999556541443,9.610699653625488
1683006745624482600,23.063482666015624,1.7218999862670898,-0.8642999529838562,9.615499496459961
1683006745644482600,23.083482666015627,1.6821999549865723,-0.8625999689102173,9.622599601745605
1683006745664482600,23.103482666015626,1.6541999578475952,-0.8380999565124512,9.62969970703125
1683006745684482600,23.123482666015626,1.6684999465942383,-0.7793999910354614,9.632100105285645
1683006745704482600,23.143482666015625,1.715399980545044,-0.7131999731063843,9.628999710083008
1683006745724482600,23.163482666015625,1.760699987411499,-0.6485999822616577,9.625399589538574
1683006745744482600,23.183482666015625,1.7800999879837036,-0.6071999669075012,9.624499320983887
1683006745764482600,23.203482666015624,1.7663999795913696,-0.5942999720573425,9.627900123596191
1683006745784482600,23.223482666015624,1.74399995803833,-0.6053000092506409,9.63129997253418
1683006745804482600,23.243482666015623,1.7310999631881714,-0.6326000094413757,9.631799697875977
1683006745824482600,23.263482666015626,1.7237999439239502,-0.6625999808311462,9.631099700927734
1683006745844482600,23.283482666015626,1.7043999433517456,-0.6850000023841858,9.632999420166016
1683006745864482600,23.303482666015626,1.6723999977111816,-0.7008999586105347,9.637499809265137
1683006745884482600,23.323482666015625,1.63510000705719,-0.7155999541282654,9.642799377441406
1683006745904482600,23.343482666015625,1.6049998998641968,-0.7245000004768372,9.647199630737305
1683006745924482600,23.363482666015624,1.5779999494552612,-0.7281999588012695,9.651399612426758
1683006745944482600,23.383482666015624,1.5547999143600464,-0.7283999919891357,9.655099868774414
1683006745964482600,23.403482666015623,1.5322999954223633,-0.7409999966621399,9.65779972076416
1683006745984482600,23.423482666015627,1.501599907875061,-0.7710999846458435,9.660200119018555
1683006746004482600,23.443482666015626,1.4620000123977661,-0.8123999834060669,9.6628999710083
1683006746024482600,23.463482666015626,1.420799970626831,-0.8588999509811401,9.664999961853027
1683006746044482600,23.483482666015625,1.3880000114440918,-0.9013999700546265,9.665900230407715
1683006746064482600,23.503482666015625,1.3641999959945679,-0.936199963092804,9.665999412536621
1683006746084482600,23.523482666015624,1.3538999557495117,-0.9554999470710754,9.665599822998047
1683006746104484000,23.543484130859376,1.3528000116348267,-0.9614999890327454,9.66510009765625
1683006746124482600,23.563482666015624,1.337899923324585,-0.9781999588012695,9.665499687194824
1683006746144482600,23.583482666015627,1.3114999532699585,-1.0253000259399414,9.664299964904785
1683006746164482600,23.603482666015626,1.2996000051498413,-1.0741000175476074,9.660599708557129
1683006746184491800,23.62349169921875,1.2968999147415161,-1.0805000066757202,9.660200119018555
1683006746204482600,23.643482666015625,1.3324999809265137,-1.048200011253357,9.658899307250977
1683006746224482600,23.663482666015625,1.4050999879837036,-0.9851999878883362,9.65530014038086
1683006746244482600,23.683482666015625,1.472000002861023,-0.9172999858856201,9.651999473571777
1683006746264482600,23.703482666015624,1.4922000169754028,-0.8852999806404114,9.651899337768555
1683006746284482600,23.723482666015624,1.4644999504089355,-0.880899965763092,9.656499862670898
1683006746304482600,23.743482666015623,1.428399920463562,-0.8657000064849854,9.663299560546875
1683006746324482600,23.763482666015626,1.430999994277954,-0.8137999773025513,9.667399406433105
1683006746344482600,23.783482666015626,1.4660999774932861,-0.7576000094413757,9.666699409484863
1683006746364482600,23.803482666015626,1.497399926185608,-0.7321999669075012,9.663899421691895
1683006746384482600,23.823482666015625,1.5058000087738037,-0.7311999797821045,9.662699699401855
1683006746404482600,23.843482666015625,1.4970999956130981,-0.7393999695777893,9.663399696350098
1683006746424482600,23.863482666015624,1.4901999235153198,-0.7457999587059021,9.663999557495117
1683006746444482600,23.883482666015624,1.4901999235153198,-0.7488999962806702,9.663700103759766
1683006746464482600,23.903482666015623,1.4911999702453613,-0.7572999596595764,9.6628999710083
1683006746484482600,23.923482666015627,1.482800006866455,-0.7770000100135803,9.662599563598633
1683006746504482600,23.943482666015626,1.4752999544143677,-0.8130999803543091,9.660799980163574
1683006746524482600,23.963482666015626,1.4714999198913574,-0.8610999584197998,9.65719985961914
1683006746544482600,23.983482666015625,1.469599962234497,-0.9084999561309814,9.653200149536133
1683006746564482600,24.003482666015625,1.4744999408721924,-0.9459999799728394,9.648799896240234
1683006746584482600,24.023482666015624,1.4847999811172485,-0.9791999459266663,9.643899917602539
1683006746604482600,24.043482666015624,1.4981999397277832,-1.0128999948501587,9.638400077819824
1683006746624482600,24.063482666015624,1.510699987411499,-1.0494999885559082,9.632499694824219
1683006746644482600,24.083482666015627,1.5191999673843384,-1.0887999534606934,9.626799583435059
1683006746664482600,24.103482666015626,1.5250999927520752,-1.1245999336242676,9.62179946899414
1683006746684482600,24.123482666015626,1.535499930381775,-1.154099941253662,9.616600036621094
1683006746704482600,24.143482666015625,1.5503000020980835,-1.184499979019165,9.610599517822266
1683006746724482600,24.163482666015625,1.5654000043869019,-1.215999960899353,9.604199409484863
1683006746744482600,24.183482666015625,1.5719000101089478,-1.242799997329712,9.599699974060059
1683006746764482600,24.203482666015624,1.583799958229065,-1.2532999515533447,9.596399307250977
1683006746784482600,24.223482666015624,1.605799913406372,-1.236899971961975,9.594799995422363
1683006746804482600,24.243482666015623,1.63510000705719,-1.2192000150680542,9.592100143432617
1683006746824482600,24.263482666015626,1.6690999269485474,-1.1994999647140503,9.588799476623535
1683006746844482600,24.283482666015626,1.6933000087738037,-1.1692999601364136,9.588299751281738
1683006746864484000,24.303484130859374,1.723099946975708,-1.1198999881744385,9.588799476623535
1683006746884484000,24.323484130859374,1.7579998970031738,-1.0612000226974487,9.589200019836426
1683006746904482600,24.343482666015625,1.777899980545044,-1.0214999914169312,9.589799880981445
1683006746924482600,24.363482666015624,1.7695999145507812,-1.0082999467849731,9.59280014038086
1683006746944482600,24.383482666015624,1.74809992313385,-0.996999979019165,9.597899436950684
1683006746964482600,24.403482666015623,1.7626999616622925,-0.9580999612808228,9.599199295043945
1683006746984482600,24.423482666015627,1.812399983406067,-0.9143999814987183,9.594200134277344
1683006747004482600,24.443482666015626,1.854599952697754,-0.8858000040054321,9.588799476623535
1683006747024482600,24.463482666015626,1.8644999265670776,-0.8709999918937683,9.588199615478516
1683006747044482600,24.483482666015625,1.8443999290466309,-0.8791999816894531,9.591400146484375
1683006747064482600,24.503482666015625,1.823199987411499,-0.9023000001907349,9.593299865722656
1683006747084482600,24.523482666015624,1.8163999319076538,-0.9253999590873718,9.592399597167969
1683006747104482600,24.543482666015624,1.8122999668121338,-0.9408999681472778,9.591599464416504
1683006747124482600,24.563482666015624,1.799399971961975,-0.9549999833106995,9.592700004577637
1683006747144482600,24.583482666015627,1.7773998975753784,-0.9738999605178833,9.594900131225586
1683006747164482600,24.603482666015626,1.7518999576568604,-0.9957000017166138,9.597299575805664
1683006747184491800,24.62349169921875,1.7254999876022339,-1.0116000175476074,9.6003999710083
1683006747204482600,24.643482666015625,1.7045999765396118,-1.0210000276565552,9.60319995880127
1683006747224482600,24.663482666015625,1.689099907875061,-1.0267999172210693,9.605299949645996
1683006747244482600,24.683482666015625,1.670199990272522,-1.0325000286102295,9.607999801635742
1683006747264482600,24.703482666015624,1.6437000036239624,-1.0388000011444092,9.611899375915527
1683006747284482600,24.723482666015624,1.6103999614715576,-1.0465999841690063,9.616700172424316
1683006747304482600,24.743482666015623,1.5710999965667725,-1.0549999475479126,9.622300148010254
1683006747324482600,24.763482666015626,1.5259000062942505,-1.0627999305725098,9.62869930267334
1683006747344482600,24.783482666015626,1.4876999855041504,-1.0607999563217163,9.634900093078613
1683006747364482600,24.803482666015626,1.4757000207901,-1.0413999557495117,9.638799667358398
1683006747384482600,24.823482666015625,1.4783999919891357,-1.022499918937683,9.640399932861328
1683006747404482600,24.843482666015625,1.4567999839782715,-1.02839994430542,9.643099784851074
1683006747424482600,24.863482666015624,1.4046999216079712,-1.0708999633789062,9.646200180053711
1683006747444482600,24.883482666015624,1.3538999557495117,-1.1044999361038208,9.649700164794922
1683006747464482600,24.903482666015623,1.3221999406814575,-1.1065999269485474,9.653800010681152
1683006747484482600,24.923482666015627,1.348099946975708,-1.055899977684021,9.655900001525879
1683006747504482600,24.943482666015626,1.4180999994277954,-0.9726999998092651,9.654600143432617
1683006747524482600,24.963482666015626,1.4816999435424805,-0.9108999967575073,9.651100158691406
1683006747544482600,24.983482666015625,1.5,-0.8885999917984009,9.650400161743164
1683006747564482600,25.003482666015625,1.4697999954223633,-0.8894999623298645,9.654899597167969
1683006747584482600,25.023482666015624,1.4460999965667725,-0.8642999529838562,9.660799980163574
1683006747604482600,25.043482666015624,1.465399980545044,-0.7863999605178833,9.664499282836914
1683006747624482600,25.063482666015624,1.5262999534606934,-0.6969000101089478,9.661999702453613
1683006747644482600,25.083482666015627,1.5972999334335327,-0.6171999573707581,9.655900001525879
1683006747664482600,25.103482666015626,1.64739990234375,-0.5586000084877014,9.651100158691406
1683006747684482600,25.123482666015626,1.6650999784469604,-0.5336999893188477,9.649399757385254
1683006747704482600,25.143482666015625,1.6603999137878418,-0.5443999767303467,9.649700164794922
1683006747724482600,25.163482666015625,1.6576999425888062,-0.5774999856948853,9.648200035095215
1683006747744482600,25.183482666015625,1.6584999561309814,-0.6093999743461609,9.646100044250488
1683006747764482600,25.203482666015624,1.6552000045776367,-0.6403999924659729,9.644700050354004
1683006747784482600,25.223482666015624,1.653899908065796,-0.6753999590873718,9.642499923706055
1683006747804482600,25.243482666015623,1.6577999591827393,-0.7135999798774719,9.639100074768066
1683006747824482600,25.263482666015626,1.6614999771118164,-0.7512999773025513,9.635600090026855
