time,seconds_elapsed,z,y,x,,,z,y,x,,,t,z,y,x
1.68301E+18,0.043484131,-0.479900002,-0.323399991,-1.013700008,,,0.901600003,-0.274699986,9.761199951,,,1,0.421700001,-0.598099977,8.747499943
1.68301E+18,0.063487061,-0.479900002,-0.323399991,-1.013700008,,,0.901600003,-0.274699986,9.761199951,,,2,0.421700001,-0.598099977,8.747499943
1.68301E+18,0.083482666,0.0198,0.0015,0.068099998,,,2.735800028,0.214099988,9.41479969,,,3,2.755600028,0.215599988,9.482899688
1.68301E+18,0.103482666,0.0854,-0.203699991,0.078599997,,,2.738800049,0.203699991,9.414199829,,,4,2.824200049,0,9.492799826
1.68301E+18,0.123482666,-0.0184,-0.409099996,0.145499989,,,2.734899998,0.17369999,9.41590023,,,5,2.716499997,-0.235400006,9.56140022
1.68301E+18,0.143482666,0.033199999,-0.407700002,0.0284,,,2.741999865,0.054699998,9.415299416,,,6,2.775199864,-0.353000004,9.443699416
1.68301E+18,0.163482666,-0.243099988,-0.386399984,0.376199991,,,2.72420001,0.033399999,9.420599937,,,7,2.481100023,-0.352999985,9.796799928
1.68301E+18,0.183482666,-0.828099966,-0.699199975,0.547500014,,,2.671799898,-0.0068,9.435599327,,,8,1.843699932,-0.705999974,9.983099341
1.68301E+18,0.203482666,-1.006999969,-0.83739996,0.32949999,,,2.517199993,-0.133399993,9.477099419,,,9,1.510200024,-0.970799953,9.806599408
1.68301E+18,0.223482666,-0.206799999,-0.4199,0.083700001,,,2.423099995,-0.315499991,9.497300148,,,10,2.216299996,-0.735399991,9.581000149
1.68301E+18,0.243482666,0.105499998,0.205499992,0.308099985,,,2.414700031,-0.342799991,9.49849987,,,11,2.520200029,-0.1373,9.806599855
1.68301E+18,0.263482666,0.037299998,0.608399987,0.246699989,,,2.414299965,-0.265199989,9.501099586,,,12,2.451599963,0.343199998,9.747799575
1.68301E+18,0.283482666,-0.457299978,0.616699994,0.102799997,,,2.359799862,-0.136199996,9.517499924,,,13,1.902499884,0.480499998,9.62029992
1.68301E+18,0.303482666,-0.066,0.078899994,-0.0766,,,2.311699867,-0.0005,9.530200005,,,14,2.245699868,0.078399995,9.453600004
1.68301E+18,0.323482666,-0.076299995,0.105699994,-0.434199989,,,2.292599916,0.041299999,9.534799576,,,15,2.216299921,0.146999992,9.100599587
1.68301E+18,0.343482666,-0.305999994,0.4648,-0.126299992,,,2.267400026,0.054899998,9.540699959,,,16,1.961400032,0.519699998,9.414399967
1.68301E+18,0.363482666,-0.13759999,0.495299995,0.753600001,,,2.255899906,0.0832,9.543199539,,,17,2.118299916,0.578499995,10.29679954
1.68301E+18,0.383482666,0.541799963,-0.095599994,1.085199952,,,2.370699883,0.017099999,9.515699387,,,18,2.912499845,-0.078499995,10.60089934
1.68301E+18,0.403482666,2.386100054,-0.237899989,0.200599998,,,2.477900028,-0.036499999,9.48829937,,,19,4.864000082,-0.274399988,9.688899368
1.68301E+18,0.423482666,0.955899954,-0.089699998,0.706200004,,,2.535199881,-0.057299998,9.473099709,,,20,3.491099834,-0.146999996,10.17929971
1.68301E+18,0.443482666,1.233999968,-0.598199964,0.977799952,,,2.56099987,-0.039099999,9.466199875,,,21,3.794999838,-0.637299962,10.44399983
1.68301E+18,0.463482666,0.735099971,-0.678299963,-0.058199998,,,2.608899832,0.0605,9.453000069,,,22,3.343999803,-0.617799964,9.394800071
1.68301E+18,0.483482666,0.024599999,-0.209699988,-0.98209995,,,2.593699932,0.209699988,9.45510006,,,23,2.618299931,0,8.473000109
1.68301E+18,0.503482666,-0.113799997,-0.983399987,-0.915199995,,,2.575299978,0.326299995,9.456799507,,,24,2.461499982,-0.657099992,8.541599512
1.68301E+18,0.523482666,0.158999994,-0.547599971,-1.137599945,,,2.645599842,0.410299987,9.434100151,,,25,2.804599836,-0.137299985,8.296500206
1.68301E+18,0.543482666,-0.220199987,-0.240399987,-0.833299994,,,2.740499973,0.465999991,9.404299736,,,26,2.520299986,0.225600004,8.570999742
1.68301E+18,0.563482666,-0.412200004,0.2016,-1.067700028,,,2.834499836,0.514199972,9.37389946,,,27,2.422299832,0.715799972,8.306199431
1.68301E+18,0.583482666,-0.305999994,0.364399999,-1.198699951,,,2.875299931,0.576999962,9.35779953,,,28,2.569299936,0.941399962,8.159099579
1.68301E+18,0.603482666,-0.116399996,0.171599999,-0.596199989,,,2.881899834,0.612800002,9.353499413,,,29,2.765499838,0.784400001,8.757299423
1.68301E+18,0.623482666,-0.242299989,-0.149700001,0.116499998,,,2.831199884,0.64989996,9.366499901,,,30,2.588899896,0.500199959,9.482999898
1.68301E+18,0.643482666,-0.32009998,-0.248899996,0.428499997,,,2.752099991,0.680399954,9.387899399,,,31,2.432000011,0.431499958,9.816399395
1.68301E+18,0.663482666,-0.166599989,-0.256799996,0.819299996,,,2.677099943,0.688299954,9.408899307,,,32,2.510499954,0.431499958,10.2281993
1.68301E+18,0.683482666,0.154499993,-0.111299999,1.160899997,,,2.610899925,0.650699973,9.430199623,,,33,2.765399918,0.539399974,10.59109962
1.68301E+18,0.703482666,0.346300006,0.1008,1.040400028,,,2.575999975,0.605199993,9.442799568,,,34,2.922299981,0.705999993,10.4831996
1.68301E+18,0.723482666,0.129099995,0.146799996,0.752699971,,,2.538199902,0.559199989,9.455900192,,,35,2.667299896,0.705999985,10.20860016
1.68301E+18,0.743482666,-0.023899999,0.517399967,0.716399968,,,2.485299826,0.512199998,9.472599983,,,36,2.461399827,1.029599965,10.18899995
1.68301E+18,0.763482666,-0.34799999,0.418599993,0.103099994,,,2.436800003,0.4639,9.487699509,,,37,2.088800013,0.882499993,9.590799503
1.68301E+18,0.783482666,-0.526499987,0.5273,-0.388599992,,,2.399600029,0.423799992,9.498999596,,,38,1.873100042,0.951099992,9.110399604
1.68301E+18,0.803482666,-0.565599978,0.525699973,-0.805000007,,,2.350399971,0.376399994,9.513299942,,,39,1.784799993,0.902099967,8.708299935
1.68301E+18,0.823482666,-0.466899991,0.536199987,-1.050899982,,,2.271299839,0.346300006,9.533699989,,,40,1.804399848,0.882499993,8.482800007
1.68301E+18,0.843482666,-0.063999996,0.685400009,-1.076399922,,,2.211699963,0.29519999,9.549399376,,,41,2.147699967,0.980599999,8.472999454
1.68301E+18,0.863482666,0.109099999,0.666299999,-0.845599949,,,2.156100035,0.235799998,9.563699722,,,42,2.265200034,0.902099997,8.718099773
1.68301E+18,0.883482666,0.194999993,0.773499966,-0.373400003,,,2.079999924,0.177599996,9.581799507,,,43,2.274999917,0.951099962,9.208399504
1.68301E+18,0.903482666,0.041699998,0.797399998,-0.091699995,,,1.978299975,0.124399997,9.604199409,,,44,2.019999973,0.921799995,9.512499414
1.68301E+18,0.923482666,-0.052099999,0.869699955,-0.091199994,,,1.885899901,0.071599998,9.623299599,,,45,1.833799902,0.941299953,9.532099605
1.68301E+18,0.943482666,0.142800003,0.929999948,-0.120299995,,,1.838099957,0.011399999,9.632800102,,,46,1.98089996,0.941399947,9.512500107
1.68301E+18,0.963482666,0.078699999,0.94509995,0.1417,,,1.823699951,-0.052699998,9.635399818,,,47,1.90239995,0.892399952,9.777099818
1.68301E+18,0.983482666,0.164199993,1.0079,0.234799996,,,1.846099973,-0.115499996,9.630599976,,,48,2.010299966,0.892400004,9.865399972
1.68301E+18,1.003482666,1.012799978,0.960899949,0.457999974,,,1.929099917,-0.176399991,9.613399506,,,49,2.941899896,0.784499958,10.07139948
1.68301E+18,1.023482666,0.778099954,1.11469996,0.597799957,,,1.987299919,-0.202699989,9.600999832,,,50,2.765399873,0.911999971,10.19879979
1.68301E+18,1.043482666,0.2227,0.978899956,0.550599992,,,1.993499994,-0.223799989,9.599199295,,,51,2.216199994,0.755099967,10.14979929
1.68301E+18,1.063482666,0.364099979,0.738999963,1.157099962,,,1.979599953,-0.278099984,9.600699425,,,52,2.343699932,0.460899979,10.75779939
1.68301E+18,1.083482666,0.585699975,0.916899979,1.32859993,,,1.993399978,-0.33829999,9.595899582,,,53,2.579099953,0.578599989,10.92449951
1.68301E+18,1.103482666,0.482299984,0.731099963,2.059299946,,,2.008499861,-0.387899995,9.590899467,,,54,2.490799844,0.343199968,11.65019941
1.68301E+18,1.123482666,0.738699973,0.531399965,3.292500019,,,1.987499952,-0.433299989,9.593299866,,,55,2.726199925,0.098099977,12.88579988
1.68301E+18,1.143482666,1.371899962,0.316100001,4.778800011,,,1.952399969,-0.492599994,9.597599983,,,56,3.324299932,-0.176499993,14.37639999
1.68301E+18,1.163482666,1.220299959,-0.175599992,5.429999828,,,1.907899976,-0.550000012,9.603499413,,,57,3.128199935,-0.725600004,15.03349924
1.68301E+18,1.183482666,0.418499976,0.096499994,3.065199852,,,1.895699978,-0.567200005,9.604899406,,,58,2.314199954,-0.470700011,12.67009926
1.68301E+18,1.203482666,0.070500001,-0.476300001,1.285300016,,,1.929999948,-0.533699989,9.599999428,,,59,2.000499949,-1.00999999,10.88529944
1.68301E+18,1.223482666,0.483099997,-0.546099961,0.279399991,,,1.958599925,-0.503199995,9.595799446,,,60,2.441699922,-1.049299955,9.875199437
1.68301E+18,1.243482666,0.253600001,-0.151099995,-1.124899983,,,1.952799916,-0.486199975,9.597899437,,,61,2.206399918,-0.63729997,8.472999454
1.68301E+18,1.263482666,-0.447299987,0.128099993,-2.194200039,,,1.908499956,-0.461499989,9.607999802,,,62,1.461199969,-0.333399996,7.413799763
1.68301E+18,1.283482666,-0.821199954,0.0942,-1.700399995,,,1.831299901,-0.437399983,9.624199867,,,63,1.010099947,-0.343199983,7.923799872
1.68301E+18,1.303482666,-0.864199996,-0.075800002,-0.433799982,,,1.736999989,-0.424299985,9.642199516,,,64,0.872799993,-0.500099987,9.208399534
1.68301E+18,1.323482666,-0.751100004,-0.205899999,0.686800003,,,1.64349997,-0.411799997,9.659099579,,,65,0.892399967,-0.617699996,10.34589958
1.68301E+18,1.343482666,-0.703000009,-0.318699986,0.944399953,,,1.546399951,-0.387299985,9.676199913,,,66,0.843399942,-0.70599997,10.62059987
1.68301E+18,1.363482666,-0.289900005,-0.532899976,0.490399987,,,1.476599932,-0.3398,9.688799858,,,67,1.186699927,-0.872699976,10.17919984
1.68301E+18,1.383482666,0.143399999,-0.75150001,-0.248799995,,,1.464699984,-0.277999997,9.692599297,,,68,1.608099982,-1.029500008,9.443799302
1.68301E+18,1.403482666,0.368000001,-0.822600007,-0.806199968,,,1.485299945,-0.216799989,9.690999985,,,69,1.853299946,-1.039399996,8.884800017
1.68301E+18,1.423482666,0.0197,-0.792800009,-1.432699919,,,1.500199914,-0.158299997,9.689899445,,,70,1.519899914,-0.951100007,8.257199526
1.68301E+18,1.443482666,-0.704599977,-0.788800001,-1.963199973,,,1.498899937,-0.103499994,9.690799713,,,71,0.79429996,-0.892299995,7.72759974
1.68301E+18,1.463482666,-1.151899934,-0.737499952,-2.297600031,,,1.495199919,-0.0568,9.691800117,,,72,0.343299985,-0.794299953,7.394200087
1.68301E+18,1.483482666,-1.092599988,-0.63409996,-2.201200008,,,1.484899998,-0.022799999,9.693499565,,,73,0.39230001,-0.656899959,7.492299557
1.68301E+18,1.503482666,-0.820800006,-0.528400004,-1.889999986,,,1.467999935,-0.001,9.696099281,,,74,0.647199929,-0.529400004,7.806099296
1.68301E+18,1.523482666,-0.525299966,-0.368399978,-1.607299924,,,1.456900001,0.0154,9.697799683,,,75,0.931600034,-0.352999978,8.090499759
1.68301E+18,1.543482666,-0.330300003,-0.243599996,-1.324100018,,,1.448300004,0.027799999,9.698999405,,,76,1.118000001,-0.215799997,8.374899387
1.68301E+18,1.563482666,-0.25999999,-0.180999994,-1.118399978,,,1.44659996,0.0339,9.699299812,,,77,1.18659997,-0.147099994,8.580899835
1.68301E+18,1.583482666,-0.424299985,-0.182899997,-1.087899923,,,1.453999996,0.035799999,9.69810009,,,78,1.029700011,-0.147099998,8.610200167
1.68301E+18,1.603482666,-0.523400009,-0.036599997,-1.066699982,,,1.4648,0.036599997,9.696499825,,,79,0.941399992,0,8.629799843
1.68301E+18,1.623482666,-0.79549998,0.083299994,-0.880699992,,,1.46239996,0.034299999,9.696899414,,,80,0.666899979,0.117599994,8.816199422
1.68301E+18,1.643482666,-0.570199966,0.250699997,-0.617399991,,,1.452799916,0.023799999,9.698399544,,,81,0.88259995,0.274499996,9.080999553
1.68301E+18,1.663482666,-0.49149999,0.406999975,-0.635599971,,,1.46239996,0.014599999,9.696899414,,,82,0.970899969,0.421599975,9.061299443
1.68301E+18,1.683482666,-0.570100009,0.472499996,-0.202600002,,,1.472299933,-0.0018,9.695399284,,,83,0.902199924,0.470699996,9.492799282
1.68301E+18,1.703482666,-0.689599991,0.616400003,0.505199969,,,1.483899951,-0.018199999,9.693699837,,,84,0.79429996,0.598200005,10.19889981
1.68301E+18,1.723482666,-0.793899953,0.65169996,1.308799982,,,1.48029995,-0.0339,9.694199562,,,85,0.686399996,0.61779996,11.00299954
1.68301E+18,1.743482666,-0.831799984,0.495199978,2.307399988,,,1.469299912,-0.044099998,9.695799828,,,86,0.637499928,0.451099981,12.00319982
1.68301E+18,1.763482666,-0.640999973,0.416500002,2.661299944,,,1.474599957,-0.0438,9.694999695,,,87,0.833599985,0.372700002,12.35629964
1.68301E+18,1.783482666,-0.467500001,0.109299995,2.626999855,,,1.506999969,-0.0309,9.690099716,,,88,1.039499968,0.078399995,12.31709957
1.68301E+18,1.803482666,0.058499999,-0.526600003,2.715299845,,,1.569299936,-0.0028,9.680199623,,,89,1.627799936,-0.529400003,12.39549947
1.68301E+18,1.823482666,0.627399981,-1.174099922,3.462199926,,,1.637799978,0.026699999,9.6687994,,,90,2.265199959,-1.147399923,13.13099933
1.68301E+18,1.843482666,0.930199981,-1.491599917,4.369699955,,,1.66839993,0.040199999,9.663499832,,,91,2.598599911,-1.451399919,14.03319979
1.68301E+18,1.863482666,0.60710001,-1.290199995,4.193099976,,,1.667899966,0.034899998,9.663599968,,,92,2.274999976,-1.255299997,13.85669994
1.68301E+18,1.883482666,0.066299997,-0.855499983,2.263099909,,,1.679199934,0.022,9.661699295,,,93,1.745499931,-0.833499983,11.9247992
1.68301E+18,1.903482666,-0.121199995,-1.053300023,-0.024499999,,,1.719599962,0.023599999,9.654600143,,,94,1.598399967,-1.029700024,9.630100144
1.68301E+18,1.923482666,0.271699995,-1.669399977,-0.662899971,,,1.76789999,0.041499998,9.645799637,,,95,2.039599985,-1.627899978,8.982899666
1.68301E+18,1.943482666,0.744199991,-2.20720005,0.23089999,,,1.775999904,0.049699999,9.644299507,,,96,2.520199895,-2.157500051,9.875199497
1.68301E+18,1.963484131,0.647599995,-2.060299873,1.135399938,,,1.735399961,0.030299999,9.651800156,,,97,2.382999957,-2.029999875,10.78720009
1.68301E+18,1.983482666,-0.032600001,-1.624300003,0.712099969,,,1.670300007,-0.0133,9.663299561,,,98,1.637700006,-1.637600003,10.37539953
1.68301E+18,2.003482666,-0.3838,-1.321499944,-0.734699965,,,1.638999939,-0.0513,9.668499947,,,99,1.255199939,-1.372799944,8.933799982
1.68301E+18,2.023482666,-0.015199999,-1.328099966,-1.518299937,,,1.643099904,-0.083899997,9.667599678,,,100,1.627899905,-1.411999963,8.149299741
1.68301E+18,2.043482666,0.0162,-1.299399972,-1.887499928,,,1.660599947,-0.122499995,9.664199829,,,101,1.676799947,-1.421899967,7.776699901
1.68301E+18,2.063482666,-0.47419998,-1.180299997,-2.122200012,,,1.66079998,-0.163099989,9.663599968,,,102,1.1866,-1.343399987,7.541399956
1.68301E+18,2.083482666,-1.071399927,-1.079699993,-2.175699949,,,1.630299926,-0.204899997,9.667900085,,,103,0.558899999,-1.28459999,7.492200136
1.68301E+18,2.103482666,-0.98209995,-0.907499969,-2.277799845,,,1.599900007,-0.249599993,9.671999931,,,104,0.617800057,-1.157099962,7.394200087
1.68301E+18,2.123482666,-0.451599985,-0.697399974,-2.219199896,,,1.589100003,-0.3028,9.672200203,,,105,1.137500018,-1.000199974,7.453000307
1.68301E+18,2.143482666,-0.20189999,-0.564199984,-2.206599951,,,1.594399929,-0.357499987,9.669499397,,,106,1.392499939,-0.921699971,7.462899446
1.68301E+18,2.163482666,-0.302300006,-0.593499959,-1.988599896,,,1.596699953,-0.406699985,9.667200089,,,107,1.294399947,-1.000199944,7.678600192
1.68301E+18,2.183482666,-0.434899986,-0.673699975,-1.361199975,,,1.582299948,-0.45389998,9.667499542,,,108,1.147399962,-1.127599955,8.306299567
1.68301E+18,2.203482666,-0.330599993,-0.504999995,-0.911799967,,,1.556399941,-0.504999995,9.669099808,,,109,1.225799948,-1.00999999,8.75729984
1.68301E+18,2.223482666,-0.193399996,-0.264799982,-0.785999954,,,1.527099967,-0.558899999,9.670800209,,,110,1.333699971,-0.823699981,8.884800255
1.68301E+18,2.243485596,0.0098,0.0361,-0.932399988,,,1.510100007,-0.61469996,9.670100212,,,111,1.519900007,-0.57859996,8.737700224
1.68301E+18,2.263482666,0.093399994,0.439399987,-0.762499988,,,1.504999995,-0.674699962,9.666899681,,,112,1.598399989,-0.235299975,8.904399693
1.68301E+18,2.283482666,0.185599998,0.848399997,-0.120799996,,,1.500999928,-0.74059999,9.662699699,,,113,1.686599925,0.107800007,9.541899703
1.68301E+18,2.303482666,0.251599997,1.127900004,0.835799992,,,1.503700018,-0.804299951,9.65719986,,,114,1.755300015,0.323600054,10.49299985
1.68301E+18,2.323482666,0.274199992,1.121500015,2.095099926,,,1.500699997,-0.856700003,9.653100014,,,115,1.774899989,0.264800012,11.74819994
1.68301E+18,2.343482666,0.435199976,0.889699996,3.379099846,,,1.476999998,-0.889699996,9.653800011,,,116,1.912199974,0,13.03289986
1.68301E+18,2.363482666,0.659699976,0.67689997,3.57069993,,,1.438899994,-0.902499974,9.658399582,,,117,2.09859997,-0.225600004,13.22909951
1.68301E+18,2.383482666,0.463200003,0.456099987,2.459699869,,,1.429399967,-0.887600005,9.66119957,,,118,1.89259997,-0.431500018,12.12089944
1.68301E+18,2.403482666,0.4542,0.142399997,1.571999907,,,1.477599978,-0.858299971,9.656599998,,,119,1.931799978,-0.715899974,11.22859991
1.68301E+18,2.423482666,0.425499976,-0.292199999,2.441999912,,,1.535699964,-0.835500002,9.649499893,,,120,1.961199939,-1.127700001,12.09149981
1.68301E+18,2.443484131,0.259299994,-0.458499998,3.950599909,,,1.525399923,-0.835900009,9.651100159,,,121,1.784699917,-1.294400007,13.60170007
1.68301E+18,2.463484131,0.30399999,-0.531499982,4.519799709,,,1.461099982,-0.841299951,9.660599709,,,122,1.765099972,-1.372799933,14.18039942
1.68301E+18,2.483484131,0.772199988,-0.337099999,2.960999966,,,1.404799938,-0.82979995,9.66989994,,,123,2.176999927,-1.166899949,12.63089991
1.68301E+18,2.503484131,1.384899974,-0.353699982,0.596700013,,,1.419699907,-0.793599963,9.670800209,,,124,2.804599881,-1.147299945,10.26750022
1.68301E+18,2.523482666,1.778699994,-0.618399978,-0.416899979,,,1.486899972,-0.744699955,9.664599419,,,125,3.265599966,-1.363099933,9.24769944
1.68301E+18,2.543482666,0.896399975,-1.039499998,-0.29369998,,,1.545300007,-0.696199954,9.658999443,,,126,2.441699982,-1.735699952,9.365299463
1.68301E+18,2.563482666,-0.805599988,-1.380800009,-0.1391,,,1.550899982,-0.649100006,9.661399841,,,127,0.745299995,-2.029900014,9.522299841
1.68301E+18,2.583482666,-1.741599917,-1.417999983,-0.167300001,,,1.51609993,-0.601999998,9.670000076,,,128,-0.225499988,-2.019999981,9.502700076
1.68301E+18,2.603482666,-1.556100011,-1.326599956,-0.283899993,,,1.477599978,-0.556199968,9.678699493,,,129,-0.078500032,-1.882799923,9.394799501
1.68301E+18,2.623482666,-0.500199974,-1.278199911,-0.846099973,,,1.470999956,-0.516299963,9.681900024,,,130,0.970799983,-1.794499874,8.835800052
1.68301E+18,2.643484131,0.220599994,-1.242499948,-1.67809999,,,1.495399952,-0.4736,9.680299759,,,131,1.715999946,-1.716099948,8.002199769
1.68301E+18,2.663482666,0.415299982,-1.257799983,-2.31430006,,,1.516499996,-0.428799987,9.679100037,,,132,1.931799978,-1.68659997,7.364799976
1.68301E+18,2.683482666,0.115599997,-1.228399992,-2.725499868,,,1.531799912,-0.389599979,9.67840004,,,133,1.64739991,-1.617999971,6.952900171
1.68301E+18,2.703482666,-0.196099997,-1.098899961,-2.959100008,,,1.549399972,-0.362199992,9.676599503,,,134,1.353299975,-1.461099952,6.717499495
1.68301E+18,2.723484131,-0.449599981,-0.873399973,-2.722800016,,,1.557699919,-0.352400005,9.675700188,,,135,1.108099937,-1.225799978,6.952900171
1.68301E+18,2.743482666,-0.796399951,-0.637099981,-2.058399916,,,1.541700006,-0.353300005,9.678199768,,,136,0.745300055,-0.990399987,7.619799852
1.68301E+18,2.763482666,-1.056499958,-0.432999998,-1.395099998,,,1.517399907,-0.361200005,9.681699753,,,137,0.460899949,-0.794200003,8.286599755
1.68301E+18,2.783482666,-1.138800025,-0.152699992,-0.936499953,,,1.501699924,-0.366899997,9.684000015,,,138,0.362899899,-0.519599989,8.747500062
1.68301E+18,2.803482666,-1.029699922,-0.082699999,-0.526199996,,,1.49059999,-0.368299991,9.685599327,,,139,0.460900068,-0.45099999,9.159399331
1.68301E+18,2.823482666,-0.696799994,0.067999996,-0.653899968,,,1.49119997,-0.362199992,9.685799599,,,140,0.794399977,-0.294199996,9.031899631
1.68301E+18,2.843482666,-0.528100014,0.197599992,-1.191100001,,,1.508799911,-0.344699979,9.683699608,,,141,0.980699897,-0.147099987,8.492599607
1.68301E+18,2.863485596,-0.526300013,0.312399983,-1.442600012,,,1.536299944,-0.3222,9.680099487,,,142,1.009999931,-0.009800017,8.237499475
1.68301E+18,2.883484131,-0.585399985,0.342299998,-1.232499957,,,1.565999985,-0.303000003,9.675999641,,,143,0.980599999,0.039299995,8.443499684
1.68301E+18,2.903482666,-0.774999976,0.339699984,-0.395500004,,,1.588999987,-0.290699989,9.672599792,,,144,0.81400001,0.048999995,9.277099788
1.68301E+18,2.923482666,-0.84679997,0.29459998,0.506900012,,,1.592199922,-0.284799993,9.672299385,,,145,0.745399952,0.009799987,10.1791994
1.68301E+18,2.943482666,-0.750499964,0.371600002,1.319499969,,,1.584100008,-0.283399999,9.673699379,,,146,0.833600044,0.088200003,10.99319935
1.68301E+18,2.963484131,-0.619199991,0.541000009,1.907399893,,,1.580299973,-0.2861,9.674200058,,,147,0.961099982,0.254900008,11.58159995
1.68301E+18,2.983482666,-0.690199971,0.638199985,2.262399912,,,1.592399955,-0.2852,9.672200203,,,148,0.902199984,0.352999985,11.93460011
1.68301E+18,3.003484131,-0.796499968,0.416599989,2.366299868,,,1.630100012,-0.269499987,9.666399956,,,149,0.833600044,0.147100002,12.03269982
1.68301E+18,3.023484131,-0.699299991,-0.308400005,2.700799942,,,1.699499965,-0.23089999,9.655399323,,,150,1.000199974,-0.539299995,12.35619926
1.68301E+18,3.043482666,-0.237299994,-1.121399999,4.239999771,,,1.7572999,-0.182699993,9.646100044,,,151,1.519999906,-1.304099992,13.88609982
1.68301E+18,3.063482666,0.279100001,-1.450099945,4.823999882,,,1.789999962,-0.148299992,9.640699387,,,152,2.069099963,-1.598399937,14.46469927
1.68301E+18,3.083482666,0.479299992,-1.479499936,3.802399874,,,1.834899902,-0.118899994,9.632699966,,,153,2.314199895,-1.59839993,13.43509984
1.68301E+18,3.103482666,0.60649997,-1.54610002,1.412699938,,,1.903899908,-0.081699997,9.619699478,,,154,2.510399878,-1.627800018,11.03239942
1.68301E+18,3.123482666,1.24029994,-2.312099934,0.322899997,,,1.995799899,-0.031599998,9.601299286,,,155,3.236099839,-2.343699932,9.924199283
1.68301E+18,3.143482666,2.044499874,-3.006500006,1.8118999,,,2.034999847,0.0056,9.593099594,,,156,4.079499722,-3.000900006,11.40499949
1.68301E+18,3.163482666,1.951900005,-2.863299847,3.324599981,,,2,-0.0002,9.600500107,,,157,3.951900005,-2.863499847,12.92510009
1.68301E+18,3.183496582,0.831499994,-2.427299976,2.391199827,,,1.943699956,-0.0243,9.611999512,,,158,2.77519995,-2.451599976,12.00319934
1.68301E+18,3.203482666,-0.057099998,-2.287099838,-0.414099991,,,1.939999938,-0.0174,9.612799644,,,159,1.88289994,-2.304499839,9.198699653
1.68301E+18,3.223482666,-0.131799996,-2.185400009,-2.577899933,,,2.004899979,-0.0014,9.599499702,,,160,1.873099983,-2.186800009,7.02159977
1.68301E+18,3.243484131,-0.268000007,-2.044100046,-3.259799957,,,2.072399855,-0.015199999,9.585100174,,,161,1.804399848,-2.059300045,6.325300217
1.68301E+18,3.263485596,-0.613599956,-1.689999938,-2.962800026,,,2.084599972,-0.065299995,9.582300186,,,162,1.471000016,-1.755299933,6.61950016
1.68301E+18,3.283482666,-0.657299995,-1.144999981,-2.461599827,,,2.040099859,-0.139599994,9.590999603,,,163,1.382799864,-1.284599975,7.129399776
1.68301E+18,3.303482666,-0.669499993,-0.726499975,-1.902999997,,,1.983599901,-0.224599987,9.601299286,,,164,1.314099908,-0.951099962,7.698299289
1.68301E+18,3.323482666,-0.597899973,-0.451700002,-1.848699927,,,1.951200008,-0.30339998,9.605699539,,,165,1.353300035,-0.755099982,7.756999612
1.68301E+18,3.343482666,-0.425899982,-0.287200004,-1.974900007,,,1.945899963,-0.369699985,9.604499817,,,166,1.519999981,-0.656899989,7.62959981
1.68301E+18,3.363482666,-0.439300001,-0.203099996,-1.993499994,,,1.939700007,-0.424400002,9.603499413,,,167,1.500400007,-0.627499998,7.609999418
1.68301E+18,3.383485596,-0.590999961,-0.156000003,-1.751099944,,,1.914899945,-0.471599996,9.606200218,,,168,1.323899984,-0.627599999,7.855100274
1.68301E+18,3.403482666,-0.576200008,-0.052099999,-1.235800028,,,1.880499959,-0.516499996,9.610699654,,,169,1.304299951,-0.568599995,8.374899626
1.68301E+18,3.423482666,-0.440099984,0.059799999,-0.622999966,,,1.842399955,-0.560000002,9.615699768,,,170,1.40229997,-0.500200003,8.992699802
1.68301E+18,3.443482666,-0.381399989,0.103399999,-0.471399993,,,1.80339992,-0.593699992,9.620999336,,,171,1.421999931,-0.490299992,9.149599344
1.68301E+18,3.463482666,-0.253699988,0.140699998,-0.701399982,,,1.773799896,-0.611400008,9.62539959,,,172,1.520099908,-0.470700011,8.923999608
1.68301E+18,3.483484131,-0.158999994,0.151299998,-0.939099967,,,1.757399917,-0.621999979,9.627799988,,,173,1.598399922,-0.470699981,8.68870002
1.68301E+18,3.503484131,-0.163499996,0.179299995,-0.9903,,,1.742399931,-0.630400002,9.629899979,,,174,1.578899935,-0.451100007,8.639599979
1.68301E+18,3.523482666,-0.0416,0.171700001,-0.4463,,,1.708799958,-0.642399967,9.635199547,,,175,1.667199958,-0.470699966,9.188899547
1.68301E+18,3.543482666,0.270199984,0.294699997,0.673099995,,,1.651799917,-0.667299986,9.643400192,,,176,1.921999902,-0.372599989,10.31650019
1.68301E+18,3.563482666,0.621499956,0.629499972,2.055700064,,,1.575099945,-0.707899988,9.653299332,,,177,2.196599901,-0.078400016,11.7089994
1.68301E+18,3.583482666,1.038999915,0.907299995,3.291800022,,,1.490999937,-0.760199964,9.662699699,,,178,2.529999852,0.147100031,12.95449972
1.68301E+18,3.603482666,1.20359993,1.022499919,3.196399927,,,1.424499989,-0.796999991,9.669799805,,,179,2.628099918,0.225499928,12.86619973
1.68301E+18,3.623482666,1.612399936,0.800999999,2.596099854,,,1.407899976,-0.800999999,9.671899796,,,180,3.020299911,0,12.26799965
1.68301E+18,3.643482666,1.800599933,0.185499996,3.313999891,,,1.425699949,-0.793500006,9.66989994,,,181,3.226299882,-0.60800001,12.98389983
1.68301E+18,3.663484131,1.450199962,-0.134199992,4.186699867,,,1.423099995,-0.797299981,9.670000076,,,182,2.873299956,-0.931499973,13.85669994
1.68301E+18,3.683485596,0.66049999,-0.196799994,3.752199888,,,1.398800015,-0.80339998,9.672999382,,,183,2.059300005,-1.000199974,13.42519927
1.68301E+18,3.703482666,0.227599993,0.003,1.807399988,,,1.380599976,-0.797399998,9.676099777,,,184,1.608199969,-0.794399998,11.48349977
1.68301E+18,3.723482666,0.547899961,0.068399996,-0.484399974,,,1.413299918,-0.774499953,9.673299789,,,185,1.96119988,-0.706099957,9.188899815
1.68301E+18,3.743484131,0.972000003,-0.379199982,-0.653800011,,,1.479499936,-0.738599956,9.666199684,,,186,2.451499939,-1.117799938,9.012399673
1.68301E+18,3.763482666,0.631999969,-0.693099976,0.664200008,,,1.515599966,-0.718899965,9.662099838,,,187,2.147599936,-1.411999941,10.32629985
1.68301E+18,3.783482666,-0.586699963,-0.841499984,1.494399905,,,1.498699903,-0.707899988,9.665499687,,,188,0.911999941,-1.549399972,11.15989959
1.68301E+18,3.803482666,-1.59739995,-0.997599959,1.074499965,,,1.460099936,-0.679199994,9.673500061,,,189,-0.137300014,-1.676799953,10.74800003
1.68301E+18,3.823482666,-1.542400002,-1.346300006,0.117199995,,,1.444399953,-0.62470001,9.679499626,,,190,-0.09800005,-1.971000016,9.796699621
1.68301E+18,3.843482666,-0.701399982,-1.515900016,-1.07949996,,,1.466300011,-0.56309998,9.679999352,,,191,0.764900029,-2.078999996,8.600499392
1.68301E+18,3.863482666,-0.236499995,-1.609799981,-2.106899977,,,1.50150001,-0.508300006,9.677599907,,,192,1.265000015,-2.118099988,7.57069993
1.68301E+18,3.883482666,0.0143,-1.480000019,-2.585599899,,,1.525299907,-0.471399993,9.67579937,,,193,1.539599907,-1.951400012,7.090199471
1.68301E+18,3.903482666,-0.145599991,-1.185799956,-2.418799877,,,1.528299928,-0.461599976,9.67579937,,,194,1.382699937,-1.647399932,7.256999493
1.68301E+18,3.923484131,-0.625999987,-0.745599985,-2.282699823,,,1.518399954,-0.470299989,9.67689991,,,195,0.892399967,-1.215899974,7.394200087
1.68301E+18,3.943484131,-0.974999964,-0.466499984,-2.146899939,,,1.504599929,-0.484699994,9.67840004,,,196,0.529599965,-0.951199979,7.531500101
1.68301E+18,3.963482666,-1.027999997,-0.366599977,-1.96239996,,,1.488899946,-0.496299982,9.680199623,,,197,0.460899949,-0.862899959,7.717799664
1.68301E+18,3.983482666,-0.932699978,-0.239799991,-1.827199936,,,1.472100019,-0.505400002,9.682299614,,,198,0.539400041,-0.745199993,7.855099678
1.68301E+18,4.003482666,-0.670799971,-0.119999997,-1.456399918,,,1.455299973,-0.51730001,9.684199333,,,199,0.784500003,-0.637300007,8.227799416
1.68301E+18,4.023484131,-0.382699996,0.033299997,-1.094699979,,,1.441799998,-0.533399999,9.685299873,,,200,1.059100002,-0.500100002,8.590599895
1.68301E+18,4.043482666,-0.090899996,0.255499989,-1.005200028,,,1.44419992,-0.549699962,9.684100151,,,201,1.353299923,-0.294199973,8.678900123
1.68301E+18,4.063482666,-0.154699996,0.460799992,-1.149500012,,,1.458999991,-0.558899999,9.681300163,,,202,1.304299995,-0.098100007,8.531800151
1.68301E+18,4.083482666,-0.492699981,0.50999999,-1.284699917,,,1.473399997,-0.559000015,9.679100037,,,203,0.980700016,-0.049000025,8.39440012
1.68301E+18,4.103482666,-0.719299972,0.496099979,-1.20480001,,,1.484200001,-0.554899991,9.677700043,,,204,0.764900029,-0.058800012,8.472900033
1.68301E+18,4.123482666,-0.620499969,0.556100011,-0.801199973,,,1.493299961,-0.556100011,9.676300049,,,205,0.872799993,0,8.875100076
1.68301E+18,4.143482666,-0.348399997,0.817699969,-0.151099995,,,1.505599976,-0.57249999,9.673399925,,,206,1.157199979,0.245199978,9.52229993
1.68301E+18,4.163482666,-0.241799995,1.138599992,0.734699965,,,1.51669991,-0.59920001,9.670100212,,,207,1.274899915,0.539399981,10.40480018
1.68301E+18,4.183482666,-0.233999997,1.175599933,1.991999984,,,1.518700004,-0.62650001,9.668000221,,,208,1.284700006,0.549099922,11.66000021
1.68301E+18,4.203484131,-0.213399991,1.065500021,3.089799881,,,1.5079,-0.643799961,9.668600082,,,209,1.294500008,0.42170006,12.75839996
1.68301E+18,4.223482666,-0.339899987,0.978599966,3.421599865,,,1.497099996,-0.645199955,9.670100212,,,210,1.157200009,0.333400011,13.09170008
1.68301E+18,4.243482666,-0.402199984,0.353399992,3.529799938,,,1.510399938,-0.618200004,9.669799805,,,211,1.108199954,-0.264800012,13.19959974
1.68301E+18,4.263482666,0.148100004,-0.496600002,4.364999771,,,1.538499951,-0.5722,9.668199539,,,212,1.686599955,-1.068800002,14.03319931
1.68301E+18,4.283482666,0.631500006,-0.68720001,4.347700119,,,1.565099955,-0.538500011,9.66590023,,,213,2.19659996,-1.225700021,14.01360035
1.68301E+18,4.303484131,0.601799965,-0.560099959,3.087499857,,,1.604599953,-0.50879997,9.660999298,,,214,2.206399918,-1.06889993,12.74849916
1.68301E+18,4.323482666,0.436800003,-0.676599979,1.699299932,,,1.642099977,-0.470699996,9.656700134,,,215,2.07889998,-1.147299975,11.35600007
1.68301E+18,4.343482666,0.543599963,-1.485299945,1.376799941,,,1.662799954,-0.416999996,9.655599594,,,216,2.206399918,-1.902299941,11.03239954
1.68301E+18,4.363482666,1.03339994,-2.337800026,2.088799953,,,1.653499961,-0.358999997,9.659500122,,,217,2.6868999,-2.696800023,11.74830008
1.68301E+18,4.383485596,1.258700013,-2.609299898,2.152799845,,,1.634199977,-0.322799981,9.664099693,,,218,2.89289999,-2.932099879,11.81689954
1.68301E+18,4.403482666,0.717000008,-2.618099928,1.050999999,,,1.616899967,-0.304199994,9.667599678,,,219,2.333899975,-2.922299922,10.71859968
1.68301E+18,4.423482666,0.181299999,-2.520900011,-0.566299975,,,1.623099923,-0.293500006,9.666899681,,,220,1.804399922,-2.814400017,9.100599706
1.68301E+18,4.443482666,-0.325499982,-2.221699953,-2.032700062,,,1.649399996,-0.298599988,9.66230011,,,221,1.323900014,-2.520299941,7.629600048
1.68301E+18,4.463482666,-0.801499963,-2.014199972,-2.498100042,,,1.674299955,-0.32949999,9.656999588,,,222,0.872799993,-2.343699962,7.158899546
1.68301E+18,4.483482666,-1.159600019,-1.693399906,-2.290899992,,,1.66960001,-0.385499984,9.65569973,,,223,0.50999999,-2.07889989,7.364799738
1.68301E+18,4.503484131,-1.230199933,-1.243499994,-2.323799849,,,1.6322999,-0.452999979,9.659199715,,,224,0.402099967,-1.696499974,7.335399866
1.68301E+18,4.523482666,-0.917699993,-0.938899994,-2.475899935,,,1.584499955,-0.512399971,9.664199829,,,225,0.666799963,-1.451299965,7.188299894
1.68301E+18,4.543482666,-0.446199983,-0.81159997,-2.58589983,,,1.554399967,-0.561199963,9.66629982,,,226,1.108199984,-1.372799933,7.08039999
1.68301E+18,4.563482666,-0.114699997,-0.720899999,-2.574899912,,,1.546499968,-0.602899969,9.665100098,,,227,1.431799971,-1.323799968,7.090200186
1.68301E+18,4.583482666,-0.044099998,-0.746299982,-2.357300043,,,1.544499993,-0.636299968,9.663299561,,,228,1.500399996,-1.38259995,7.305999517
1.68301E+18,4.603482666,0.067299999,-0.66109997,-1.994799972,,,1.531099916,-0.662699997,9.663599968,,,229,1.598399915,-1.323799968,7.668799996
1.68301E+18,4.623482666,0.052699998,-0.59920001,-1.49849999,,,1.496699929,-0.685299993,9.667399406,,,230,1.549399927,-1.284500003,8.168899417
1.68301E+18,4.643482666,0.176499993,-0.385800004,-1.090099931,,,1.461099982,-0.71239996,9.670899391,,,231,1.637599975,-1.098199964,8.58079946
1.68301E+18,4.663482666,0.287599981,-0.081599995,-1.06190002,,,1.438300014,-0.7421,9.672100067,,,232,1.725899994,-0.823699996,8.610200047
1.68301E+18,4.683482666,0.252399981,0.199900001,-1.120700002,,,1.424499989,-0.768700004,9.672100067,,,233,1.67689997,-0.568800002,8.551400065
1.68301E+18,4.703482666,0.23179999,0.413800001,-1.060899973,,,1.415699959,-0.796199977,9.671199799,,,234,1.647499949,-0.382399976,8.610299826
1.68301E+18,4.723482666,0.222399995,0.580199957,-0.481399983,,,1.405399919,-0.825299978,9.670199394,,,235,1.627799913,-0.245100021,9.188799411
1.68301E+18,4.743482666,0.353599995,0.713,0.538100004,,,1.382099986,-0.859999955,9.670499802,,,236,1.735699981,-0.146999955,10.20859981
1.68301E+18,4.763482666,0.502600014,0.757600009,1.800499916,,,1.340899944,-0.894899964,9.673199654,,,237,1.843499959,-0.137299955,11.47369957
1.68301E+18,4.783482666,0.655099988,0.741599977,3.022099972,,,1.286499977,-0.927899957,9.677499771,,,238,1.941599965,-0.18629998,12.69959974
1.68301E+18,4.803484131,0.729399979,0.631500006,3.194399834,,,1.241599917,-0.945299983,9.681599617,,,239,1.970999897,-0.313799977,12.87599945
1.68301E+18,4.823485596,0.826699972,0.390399992,2.397399902,,,1.232599974,-0.929799974,9.684299469,,,240,2.059299946,-0.539399981,12.08169937
1.68301E+18,4.843482666,0.974999964,-0.086499996,2.614300013,,,1.260800004,-0.903799951,9.683099747,,,241,2.235799968,-0.990299948,12.29739976
1.68301E+18,4.863482666,0.7597,-0.523899972,3.744099855,,,1.279999971,-0.897899985,9.681099892,,,242,2.039699972,-1.421799958,13.42519975
1.68301E+18,4.883482666,0.205599993,-0.534099996,4.350699902,,,1.255499959,-0.917199969,9.682600021,,,243,1.461099952,-1.451299965,14.03329992
1.68301E+18,4.903482666,-0.215799987,-0.2324,3.72059989,,,1.215999961,-0.944299996,9.684999466,,,244,1.000199974,-1.176699996,13.40559936
1.68301E+18,4.923484131,-0.367599994,0.274599999,1.513899922,,,1.201200008,-0.961099982,9.685199738,,,245,0.833600014,-0.686499983,11.19909966
1.68301E+18,4.943482666,-0.186999992,0.501299977,-0.991699994,,,1.246099949,-0.952399969,9.680399895,,,246,1.059099957,-0.451099992,8.688699901
1.68301E+18,4.963482666,0.326299995,0.1083,-1.536099911,,,1.31129992,-0.912399948,9.675600052,,,247,1.637599915,-0.804099947,8.139500141
1.68301E+18,4.983482666,0.631699979,-0.45389998,0.0043,,,1.339299917,-0.879700005,9.674799919,,,248,1.970999897,-1.333599985,9.679099919
1.68301E+18,5.003482666,-0.145999998,-0.84709996,1.755100012,,,1.312999964,-0.868999958,9.67939949,,,249,1.166999966,-1.716099918,11.4344995
1.68301E+18,5.023482666,-0.992999971,-1.282999992,2.215899944,,,1.248000026,-0.854699969,9.689199448,,,250,0.255000055,-2.137699962,11.90509939
1.68301E+18,5.043482666,-0.812099993,-1.573399901,0.930499971,,,1.194599986,-0.809599996,9.699799538,,,251,0.382499993,-2.382999897,10.63029951
1.68301E+18,5.063482666,-0.056499999,-1.507099986,-0.623899996,,,1.194100022,-0.748299956,9.704799652,,,252,1.137600023,-2.255399942,9.080899656
1.68301E+18,5.083482666,0.672899961,-1.174499989,-1.699899912,,,1.239300013,-0.708299994,9.7020998,,,253,1.912199974,-1.882799983,8.002199888
1.68301E+18,5.103482666,0.839599967,-0.943399966,-2.351599932,,,1.288299918,-0.694199979,9.696799278,,,254,2.127899885,-1.637599945,7.345199347
1.68301E+18,5.123484131,0.439399987,-0.685599983,-2.643199921,,,1.306100011,-0.697099984,9.694199562,,,255,1.745499998,-1.382699966,7.050999641
1.68301E+18,5.143482666,-0.336799979,-0.452499986,-2.703199863,,,1.288100004,-0.714299977,9.695300102,,,256,0.951300025,-1.166799963,6.992100239
1.68301E+18,5.163482666,-0.740799963,-0.201399997,-2.646100044,,,1.260499954,-0.739899993,9.69699955,,,257,0.519699991,-0.94129999,7.050899506
1.68301E+18,5.183482666,-0.733799994,0.0241,-2.626299858,,,1.243700027,-0.769400001,9.696899414,,,258,0.509900033,-0.745300001,7.070599556
1.68301E+18,5.203482666,-0.419,0.213199988,-2.281899929,,,1.232900023,-0.801599979,9.695699692,,,259,0.813900024,-0.588399991,7.413799763
1.68301E+18,5.223482666,-0.090099998,0.445299983,-1.839399934,,,1.217899919,-0.837599993,9.694600105,,,260,1.127799921,-0.39230001,7.855200171
1.68301E+18,5.243485596,0.0071,0.722599983,-1.642799973,,,1.199000001,-0.869699955,9.694099426,,,261,1.206100001,-0.147099972,8.051299453
1.68301E+18,5.263484131,0.0458,0.894499958,-1.613499999,,,1.179899931,-0.894499958,9.694199562,,,262,1.225699931,0,8.080699563
1.68301E+18,5.283482666,0.247999996,0.98209995,-1.435899973,,,1.173900008,-0.913499951,9.693099976,,,263,1.421900004,0.068599999,8.257200003
1.68301E+18,5.303482666,0.203999996,1.066599965,-1.236500025,,,1.188399911,-0.929299951,9.689899445,,,264,1.392399907,0.137300014,8.45339942
1.68301E+18,5.323482666,-0.105799995,1.115700006,-0.92839998,,,1.213999987,-0.939199984,9.685699463,,,265,1.108199991,0.176500022,8.757299483
1.68301E+18,5.343482666,-0.152500004,1.116999984,-0.199399993,,,1.23119998,-0.950299978,9.682499886,,,266,1.078699976,0.166700006,9.483099893
1.68301E+18,5.363482666,-0.170099989,1.076399922,0.548599958,,,1.238999963,-0.968499959,9.679699898,,,267,1.068899974,0.107899964,10.22829986
1.68301E+18,5.383482666,-0.261000007,1.114899993,1.061999917,,,1.251399994,-0.987399995,9.676199913,,,268,0.990399987,0.127499998,10.73819983
1.68301E+18,5.403482666,-0.314899981,1.070199966,1.429499984,,,1.276000023,-1.001600027,9.671500206,,,269,0.961100042,0.068599939,11.10100019
1.68301E+18,5.423482666,-0.213699996,0.906299949,2.228699923,,,1.302299976,-1.014099956,9.666699409,,,270,1.08859998,-0.107800007,11.89539933
1.68301E+18,5.443482666,-0.217299998,0.720699966,3.037099838,,,1.325500011,-1.024699926,9.662399292,,,271,1.108200014,-0.30399996,12.69949913
1.68301E+18,5.463482666,-0.327199996,0.141900003,3.667699814,,,1.347100019,-1.024500012,9.659399986,,,272,1.019900024,-0.882600009,13.3270998
1.68301E+18,5.483485596,0.21329999,-0.817599952,4.640599728,,,1.375299931,-1.006299973,9.657400131,,,273,1.58859992,-1.823899925,14.29799986
1.68301E+18,5.503485596,0.767199993,-1.30339992,5.554599762,,,1.39989996,-0.991299987,9.655399323,,,274,2.167099953,-2.294699907,15.20999908
1.68301E+18,5.523482666,0.821199954,-1.095299959,4.814599991,,,1.434199929,-0.993399978,9.65019989,,,275,2.255399883,-2.088699937,14.46479988
1.68301E+18,5.543482666,0.167300001,-0.774399996,2.486199856,,,1.480099916,-0.98089999,9.644499779,,,276,1.647399917,-1.755299985,12.13069963
1.68301E+18,5.563482666,-0.185299993,-1.150599957,0.225799993,,,1.538599968,-0.93809998,9.6395998,,,277,1.353299975,-2.088699937,9.865399793
1.68301E+18,5.583482666,0.0048,-2.182800055,0.0328,,,1.593599916,-0.876800001,9.636400223,,,278,1.598399915,-3.059600055,9.669200223
1.68301E+18,5.603482666,0.556400001,-2.729499817,0.981999993,,,1.600899935,-0.839999974,9.638500214,,,279,2.157299936,-3.569499791,10.62050021
1.68301E+18,5.623482666,0.264999986,-2.466399908,1.214399934,,,1.57859993,-0.848199964,9.641499519,,,280,1.843599916,-3.314599872,10.85589945
1.68301E+18,5.643482666,-0.532700002,-1.965199947,0.169399992,,,1.532999992,-0.868799984,9.646999359,,,281,1.00029999,-2.833999932,9.816399351
1.68301E+18,5.663482666,-0.74089998,-1.633999944,-1.286999941,,,1.495999932,-0.876399994,9.652099609,,,282,0.755099952,-2.510399938,8.365099669
1.68301E+18,5.683482666,-0.521099985,-1.411399961,-2.355900049,,,1.491999984,-0.883300006,9.652099609,,,283,0.970899999,-2.294699967,7.29619956
1.68301E+18,5.703482666,-0.511099994,-1.172299981,-2.56799984,,,1.50150001,-0.906599998,9.648399353,,,284,0.990400016,-2.07889998,7.080399513
1.68301E+18,5.723484131,-0.842499971,-0.904499948,-2.106400013,,,1.480000019,-0.948899984,9.647699356,,,285,0.637500048,-1.853399932,7.541299343
1.68301E+18,5.743485596,-1.023199916,-0.564300001,-1.8549999,,,1.425300002,-0.994899988,9.651299477,,,286,0.402100086,-1.559199989,7.796299577
1.68301E+18,5.763482666,-0.774299979,-0.172499999,-1.986099958,,,1.372499943,-1.033599973,9.654899597,,,287,0.598199964,-1.206099972,7.668799639
1.68301E+18,5.783482666,-0.300599992,-0.057799999,-2.02699995,,,1.340099931,-1.059999943,9.656599998,,,288,1.039499938,-1.117799941,7.629600048
1.68301E+18,5.803484131,-0.029099999,-0.0054,-2.243599892,,,1.323599935,-1.073300004,9.657400131,,,289,1.294499936,-1.078700004,7.41380024
1.68301E+18,5.823484131,0.162499994,-0.109200001,-2.186300039,,,1.308399916,-1.077299953,9.658999443,,,290,1.47089991,-1.186499953,7.472699404
1.68301E+18,5.843482666,0.272399992,-0.034499999,-1.904199958,,,1.286800027,-1.083299994,9.66119957,,,291,1.559200019,-1.117799994,7.756999612
1.68301E+18,5.863482666,0.372799993,0.237499997,-1.141499996,,,1.254999995,-1.100399971,9.663499832,,,292,1.627799988,-0.862899974,8.521999836
1.68301E+18,5.883482666,0.539099991,0.503499985,-0.495700002,,,1.216199994,-1.131099939,9.664899826,,,293,1.755299985,-0.627599955,9.169199824
1.68301E+18,5.903482666,0.747500002,0.766200006,-0.192399994,,,1.184299946,-1.158499956,9.665599823,,,294,1.931799948,-0.39229995,9.473199829
1.68301E+18,5.923482666,0.915699959,0.836799979,-0.22299999,,,1.163200021,-1.170300007,9.666799545,,,295,2.07889998,-0.333500028,9.443799555
1.68301E+18,5.943482666,0.988499999,0.906299949,-0.390100002,,,1.15899992,-1.171000004,9.667200089,,,296,2.147499919,-0.264700055,9.277100086
1.68301E+18,5.963482666,0.887299955,0.796499968,-0.046699997,,,1.162199974,-1.169199944,9.666999817,,,297,2.049499929,-0.372699976,9.62029982
1.68301E+18,5.983482666,0.87529999,0.66170001,0.815599978,,,1.154600024,-1.171700001,9.667599678,,,298,2.029900014,-0.50999999,10.48319966
1.68301E+18,6.003482666,1.102499962,0.456199974,2.069599867,,,1.133399963,-1.181900024,9.668899536,,,299,2.235899925,-0.725700051,11.7384994
1.68301E+18,6.023482666,1.161999941,0.271299988,2.891199827,,,1.103199959,-1.193099976,9.670999527,,,300,2.2651999,-0.921799988,12.56219935
1.68301E+18,6.043482666,0.910299957,0.29339999,2.429100037,,,1.090099931,-1.195599914,9.672200203,,,301,2.000399888,-0.902199924,12.10130024
1.68301E+18,6.063482666,0.58889997,0.167799994,1.970299959,,,1.117399931,-1.187699914,9.670100212,,,302,1.706299901,-1.01989992,11.64040017
1.68301E+18,6.083482666,0.463200003,-0.436999977,2.964399815,,,1.154799938,-1.180999994,9.666500092,,,303,1.617999941,-1.617999971,12.63089991
1.68301E+18,6.103482666,0.361699998,-0.620000005,3.819599867,,,1.158299923,-1.194100022,9.664499283,,,304,1.519999921,-1.814100027,13.48409915
1.68301E+18,6.123484131,-0.0075,-0.481099993,3.644099951,,,1.145099998,-1.215299964,9.663399696,,,305,1.137599998,-1.696399957,13.30749965
1.68301E+18,6.143485596,-0.202099994,-0.358999997,2.388099909,,,1.13380003,-1.219699979,9.664199829,,,306,0.931700036,-1.578699976,12.05229974
1.68301E+18,6.163482666,0.472299993,-0.294200003,0.407999992,,,1.155499935,-1.206099987,9.663299561,,,307,1.627799928,-1.50029999,10.07129955
1.68301E+18,6.183482666,1.097299933,-0.486000001,-0.608500004,,,1.217000008,-1.171199918,9.659999847,,,308,2.314299941,-1.657199919,9.051499844
1.68301E+18,6.203482666,1.288399935,-0.832300007,-0.115099996,,,1.270999908,-1.138800025,9.656999588,,,309,2.559399843,-1.971100032,9.541899592
1.68301E+18,6.223482666,0.492899984,-0.887499988,0.523099959,,,1.291800022,-1.122799993,9.656099319,,,310,1.784700006,-2.010299981,10.17919928
1.68301E+18,6.243482666,-0.965399981,-0.959499955,0.804299951,,,1.279199958,-1.109599948,9.65929985,,,311,0.313799977,-2.069099903,10.4635998
1.68301E+18,6.263482666,-1.725600004,-1.06129992,0.4454,,,1.254899979,-1.086300015,9.665100098,,,312,-0.470700026,-2.147599936,10.1105001
1.68301E+18,6.283482666,-1.574599981,-0.923699975,-0.472499996,,,1.24119997,-1.047299981,9.671199799,,,313,-0.333400011,-1.970999956,9.198699802
1.68301E+18,6.303482666,-0.937399983,-0.775200009,-1.378499985,,,1.251199961,-0.99969995,9.674900055,,,314,0.313799977,-1.77489996,8.29640007
1.68301E+18,6.323482666,-0.55339998,-0.714699984,-1.949699998,,,1.269299984,-0.952399969,9.677399635,,,315,0.715900004,-1.667099953,7.727699637
1.68301E+18,6.343482666,-0.217599988,-0.532299995,-2.451699972,,,1.286599994,-0.909099996,9.679200172,,,316,1.069000006,-1.441399992,7.2275002
1.68301E+18,6.363482666,-0.1373,-0.412699997,-2.718899965,,,1.294499993,-0.871899962,9.681599617,,,317,1.157199994,-1.28459996,6.962699652
1.68301E+18,6.383484131,-0.166999996,-0.301999986,-2.730999947,,,1.294799924,-0.845299959,9.683899879,,,318,1.127799928,-1.147299945,6.952899933
1.68301E+18,6.403484131,-0.098799996,-0.092199996,-2.506799936,,,1.29519999,-0.82949996,9.685199738,,,319,1.196399994,-0.921699956,7.178399801
1.68301E+18,6.423482666,-0.066299997,0.079999998,-2.125099897,,,1.292099953,-0.825299978,9.68599987,,,320,1.225799955,-0.74529998,7.560899973
1.68301E+18,6.443482666,-0.123799995,0.250999987,-1.703199983,,,1.290799975,-0.829599977,9.685799599,,,321,1.166999981,-0.578599989,7.982599616
1.68301E+18,6.463482666,-0.1184,0.434699982,-1.250899911,,,1.29519999,-0.836799979,9.684599876,,,322,1.17679999,-0.402099997,8.433699965
1.68301E+18,6.483482666,-0.202099994,0.597499967,-0.965299964,,,1.300400019,-0.842700005,9.683400154,,,323,1.098300025,-0.245200038,8.71810019
1.68301E+18,6.503482666,-0.385499984,0.743699968,-0.866400003,,,1.307299972,-0.841699958,9.682499886,,,324,0.921799988,-0.09799999,8.816099882
1.68301E+18,6.523482666,-0.556999981,0.783599973,-0.796499968,,,1.32190001,-0.832599998,9.681300163,,,325,0.764900029,-0.049000025,8.884800196
1.68301E+18,6.543482666,-0.614199996,0.827499986,-0.666499972,,,1.349699974,-0.817699969,9.678799629,,,326,0.735499978,0.009800017,9.012299657
1.68301E+18,6.563482666,-0.617999971,0.81159997,-0.251199991,,,1.3829,-0.801799953,9.67539978,,,327,0.764900029,0.009800017,9.42419979
1.68301E+18,6.583482666,-0.627299964,0.75150001,0.369800001,,,1.411799908,-0.790799975,9.672200203,,,328,0.784499943,-0.039299965,10.0420002
1.68301E+18,6.603484131,-0.562099993,0.782399952,0.931400001,,,1.434899926,-0.782399952,9.669499397,,,329,0.872799933,0,10.6008994
1.68301E+18,6.623482666,-0.394099981,0.729499996,1.728199959,,,1.453199983,-0.778499961,9.666999817,,,330,1.059100002,-0.048999965,11.39519978
1.68301E+18,6.643482666,-0.200599998,0.591099977,2.710700035,,,1.465699911,-0.777399957,9.66519928,,,331,1.265099913,-0.18629998,12.37589931
1.68301E+18,6.663482666,-0.335099995,0.331099987,3.261999846,,,1.482499957,-0.772399962,9.663099289,,,332,1.147399962,-0.441299975,12.92509913
1.68301E+18,6.683482666,-0.358699977,-0.269600004,3.422299862,,,1.515799999,-0.750199974,9.659599304,,,333,1.157100022,-1.019799978,13.08189917
1.68301E+18,6.703482666,-0.052999999,-0.797499955,4.114200115,,,1.563300014,-0.72240001,9.6541996,,,334,1.510300014,-1.519899964,13.76839972
1.68301E+18,6.723482666,-0.006,-0.932099998,4.444099903,,,1.604499936,-0.715299964,9.647999763,,,335,1.598499936,-1.647399962,14.09209967
1.68301E+18,6.743482666,-0.199699998,-0.763499975,3.634799957,,,1.631500006,-0.717199981,9.643300056,,,336,1.431800008,-1.480699956,13.27810001
1.68301E+18,6.763482666,-0.284299999,-0.798900008,2.422699928,,,1.657199979,-0.711199999,9.639299393,,,337,1.372899979,-1.510100007,12.06199932
1.68301E+18,6.783482666,-0.470200002,-1.355999947,1.162400007,,,1.69599998,-0.683699965,9.634599686,,,338,1.225799978,-2.039699912,10.79699969
1.68301E+18,6.803484131,-0.187600002,-2.350800037,0.481399983,,,1.746899962,-0.630299985,9.629099846,,,339,1.559299961,-2.981100023,10.11049983
1.68301E+18,6.823485596,0.297499985,-2.9296,0.484599978,,,1.781399965,-0.58099997,9.625899315,,,340,2.07889995,-3.510599971,10.11049929
1.68301E+18,6.843482666,0.274499983,-2.715600014,0.190399989,,,1.784799933,-0.569599986,9.625999451,,,341,2.059299916,-3.2852,9.81639944
1.68301E+18,6.863482666,-0.110799998,-2.264699936,-0.324900001,,,1.74849999,-0.588999987,9.63149929,,,342,1.637699991,-2.853699923,9.306599289
1.68301E+18,6.883482666,-0.1417,-1.841099977,-1.351400018,,,1.700899959,-0.620199978,9.637999535,,,343,1.559199959,-2.461299956,8.286599517
1.68301E+18,6.903482666,0.034600001,-1.379799962,-2.344399929,,,1.671700001,-0.65990001,9.640500069,,,344,1.706300002,-2.039699972,7.29610014
1.68301E+18,6.923484131,0.207099989,-1.023399949,-2.401399851,,,1.656099916,-0.72209996,9.638699532,,,345,1.863199905,-1.745499909,7.237299681
1.68301E+18,6.943485596,0.042199999,-0.586299956,-1.880299926,,,1.624899983,-0.806199968,9.637399673,,,346,1.667099983,-1.392499924,7.757099748
1.68301E+18,6.963482666,-0.349099994,-0.256699979,-1.842000008,,,1.574899912,-0.890599966,9.638199806,,,347,1.225799918,-1.147299945,7.796199799
1.68301E+18,6.983482666,-0.527199984,0.128999993,-1.960299969,,,1.527499914,-0.962499976,9.638999939,,,348,1.000299931,-0.833499983,7.67869997
1.68301E+18,7.003482666,-0.344599992,0.314599991,-1.850999951,,,1.491899967,-1.030499935,9.637499809,,,349,1.147299975,-0.715899944,7.786499858
1.68301E+18,7.023484131,0.030499998,0.551599979,-1.877200007,,,1.469799995,-1.090999961,9.634200096,,,350,1.500299994,-0.539399981,7.757000089
1.68301E+18,7.043482666,0.178599998,0.563799977,-1.531099916,,,1.449199915,-1.142400026,9.631400108,,,351,1.627799913,-0.578600049,8.100300193
1.68301E+18,7.063482666,0.194899991,0.654399991,-1.274999976,,,1.423099995,-1.183899999,9.630299568,,,352,1.617999986,-0.529500008,8.355299592
1.68301E+18,7.083485596,0.247499987,0.805299997,-1.078099966,,,1.39989996,-1.217199922,9.629499435,,,353,1.647399947,-0.411899924,8.551399469
1.68301E+18,7.103482666,0.314799994,0.853999972,-1.137099981,,,1.38169992,-1.236500025,9.629699707,,,354,1.696499914,-0.382500052,8.492599726
1.68301E+18,7.123485596,0.468099982,0.826099992,-1.000699997,,,1.36559999,-1.247799993,9.63049984,,,355,1.833699971,-0.421700001,8.629799843
1.68301E+18,7.143484131,0.545799971,0.882200003,-1.012199998,,,1.34679997,-1.254799962,9.632299423,,,356,1.89259994,-0.372599959,8.620099425
1.68301E+18,7.163482666,0.556599975,0.860199988,-0.494399995,,,1.326200008,-1.262300014,9.634200096,,,357,1.882799983,-0.402100027,9.139800102
1.68301E+18,7.183482666,0.636200011,0.966099977,0.572600007,,,1.295599937,-1.279899955,9.63599968,,,358,1.931799948,-0.313799977,10.20859969
1.68301E+18,7.203482666,0.750799954,0.997399986,2.148299932,,,1.24969995,-1.301399946,9.639200211,,,359,2.000499904,-0.30399996,11.78750014
1.68301E+18,7.223482666,0.827999949,0.742399991,3.644099951,,,1.191999912,-1.32099998,9.643799782,,,360,2.019999862,-0.578599989,13.28789973
1.68301E+18,7.243482666,0.727199972,0.550300002,3.971299887,,,1.135999918,-1.324999928,9.649999619,,,361,1.86319989,-0.774699926,13.62129951
1.68301E+18,7.263485596,0.435399979,0.309300005,2.415899992,,,1.113999963,-1.299799919,9.656000137,,,362,1.549399942,-0.990499914,12.07190013
1.68301E+18,7.283484131,0.635399997,-0.190399989,1.871899962,,,1.129699945,-1.251099944,9.660599709,,,363,1.765099943,-1.441499934,11.53249967
1.68301E+18,7.303482666,0.788100004,-0.441699982,3.407599926,,,1.12409997,-1.225299954,9.664599419,,,364,1.912199974,-1.666999936,13.07219934
1.68301E+18,7.323482666,0.420399994,-0.217399999,4.176199913,,,1.060299993,-1.233899951,9.670700073,,,365,1.480699986,-1.45129995,13.84689999
1.68301E+18,7.343482666,0.083299994,0.103199996,2.96269989,,,0.995299995,-1.230999947,9.677999496,,,366,1.078599989,-1.127799951,12.64069939
1.68301E+18,7.363482666,0.549899995,0.263899982,0.436399996,,,0.979799986,-1.195500016,9.684000015,,,367,1.529699981,-0.931600034,10.12040001
1.68301E+18,7.383482666,1.351799965,-0.073699996,-0.870099962,,,1.031099916,-1.132399917,9.686299324,,,368,2.38289988,-1.206099913,8.816199362
1.68301E+18,7.403482666,1.752699971,-0.44569999,-0.311199993,,,1.091099977,-1.074199915,9.686299324,,,369,2.843799949,-1.519899905,9.375099331
1.68301E+18,7.423484131,0.713199973,-0.651899993,0.628099978,,,1.110800028,-1.034799933,9.688399315,,,370,1.824000001,-1.686699927,10.31649929
1.68301E+18,7.443482666,-0.650200009,-0.929799974,1.212000012,,,1.101300001,-1.001999974,9.692899704,,,371,0.451099992,-1.931799948,10.90489972
1.68301E+18,7.463482666,-1.467499971,-1.074000001,0.775099993,,,1.094799995,-0.955899954,9.698299408,,,372,-0.372699976,-2.029899955,10.4733994
1.68301E+18,7.483482666,-1.249300003,-1.147199988,0.035499997,,,1.111999989,-0.892499983,9.702400208,,,373,-0.137300014,-2.039699972,9.737900205
1.68301E+18,7.503482666,-0.65990001,-1.073400021,-0.878699958,,,1.140399933,-0.828999996,9.704699516,,,374,0.480499923,-1.902400017,8.825999558
1.68301E+18,7.523484131,-0.286899984,-0.911899984,-1.861199975,,,1.169499993,-0.764899969,9.706500053,,,375,0.882600009,-1.676799953,7.845300078
1.68301E+18,7.543482666,-0.094899997,-0.849299967,-2.235100031,,,1.193300009,-0.709800005,9.707799911,,,376,1.098400012,-1.559099972,7.472699881
1.68301E+18,7.563482666,-0.089400001,-0.77700001,-2.088799953,,,1.207399964,-0.674299955,9.708600044,,,377,1.117999963,-1.451299965,7.619800091
1.68301E+18,7.583482666,-0.167499989,-0.674399972,-2.432600021,,,1.216799974,-0.649399996,9.70909977,,,378,1.049299985,-1.323799968,7.276499748
1.68301E+18,7.603482666,-0.064499997,-0.657099962,-3.08920002,,,1.23149991,-0.627499998,9.70870018,,,379,1.166999914,-1.28459996,6.61950016
1.68301E+18,7.623482666,0.0276,-0.430699974,-3.362399817,,,1.247200012,-0.618499994,9.707300186,,,380,1.274800012,-1.049199969,6.34490037
1.68301E+18,7.643482666,0.056499999,-0.018999999,-2.654999971,,,1.247699976,-0.637899995,9.705999374,,,381,1.304199975,-0.656899994,7.050999403
1.68301E+18,7.663482666,-0.127299994,0.387999982,-1.682699919,,,1.235399961,-0.682199955,9.704500198,,,382,1.108099967,-0.294199973,8.02180028
1.68301E+18,7.683482666,-0.293099999,0.729999959,-1.101999998,,,1.224699974,-0.729999959,9.702400208,,,383,0.931599975,0,8.600400209
1.68301E+18,7.703482666,-0.408899993,0.874499977,-0.707099974,,,1.222800016,-0.766599953,9.699799538,,,384,0.813900024,0.107900023,8.992699564
1.68301E+18,7.723482666,-0.575899959,0.858299971,-0.409799993,,,1.232900023,-0.789599955,9.696700096,,,385,0.657000065,0.068700016,9.286900103
1.68301E+18,7.743482666,-0.576699972,0.842000008,-0.298199981,,,1.253299952,-0.802699983,9.69299984,,,386,0.676599979,0.039300025,9.394799858
1.68301E+18,7.763485596,-0.489899993,0.832699955,-0.157299995,,,1.274399996,-0.81309998,9.689399719,,,387,0.784500003,0.019599974,9.532099724
1.68301E+18,7.783484131,-0.479499996,0.894400001,0.150199994,,,1.29339993,-0.825699985,9.685799599,,,388,0.813899934,0.068700016,9.835999593
1.68301E+18,7.803482666,-0.457199991,1.009799957,0.516799986,,,1.310299993,-0.843099952,9.68200016,,,389,0.853100002,0.166700006,10.19880015
1.68301E+18,7.823485596,-0.394999981,1.021199942,1.148499966,,,1.326599956,-0.864299953,9.677899361,,,390,0.931599975,0.156899989,10.82639933
1.68301E+18,7.843484131,-0.459299982,1.092499971,1.925999999,,,1.332099915,-0.886599958,9.675199509,,,391,0.872799933,0.205900013,11.60119951
1.68301E+18,7.863482666,-0.715900004,1.094200015,2.516599894,,,1.333799958,-0.907799959,9.672999382,,,392,0.617899954,0.186400056,12.18959928
1.68301E+18,7.883482666,-1.084699988,0.741999984,2.586199999,,,1.339699984,-0.908699989,9.672100067,,,393,0.254999995,-0.166700006,12.25830007
1.68301E+18,7.903482666,-0.515299976,-0.022499999,3.018499851,,,1.35860002,-0.889400005,9.671199799,,,394,0.843300045,-0.911900004,12.68969965
1.68301E+18,7.923484131,0.416599989,-0.426499993,4.265599728,,,1.377900004,-0.877699971,9.669599533,,,395,1.794499993,-1.304199964,13.93519926
1.68301E+18,7.943484131,0.615499973,-0.332100004,4.895699978,,,1.384899974,-0.893599987,9.667099953,,,396,2.000399947,-1.225699991,14.56279993
1.68301E+18,7.963482666,0.178599998,-0.051099997,3.485800028,,,1.390399933,-0.90989995,9.66479969,,,397,1.568999931,-0.960999947,13.15059972
1.68301E+18,7.983482666,0.118799999,-0.15609999,1.064999938,,,1.411000013,-0.893099964,9.663399696,,,398,1.529800013,-1.049199954,10.72839963
1.68301E+18,8.003482666,0.690999985,-0.859799981,0.3125,,,1.456499934,-0.846499979,9.66079998,,,399,2.147499919,-1.706299961,9.97329998
1.68301E+18,8.023482666,1.25759995,-1.289499998,1.557999969,,,1.478399992,-0.808999956,9.660699844,,,400,2.735999942,-2.098499954,11.21869981
1.68301E+18,8.043482666,0.436399996,-1.296700001,3.034799814,,,1.456200004,-0.801799953,9.664699554,,,401,1.8926,-2.098499954,12.69949937
1.68301E+18,8.063482666,-0.711799979,-1.37469995,2.760699987,,,1.398199916,-0.792499959,9.673999786,,,402,0.686399937,-2.16719991,12.43469977
1.68301E+18,8.083482666,-0.819999993,-1.487100005,0.398799986,,,1.369199991,-0.738900006,9.68239975,,,403,0.549199998,-2.226000011,10.08119974
1.68301E+18,8.103484131,-0.107199997,-1.613199949,-1.836599946,,,1.411499977,-0.661799967,9.681900024,,,404,1.30429998,-2.274999917,7.845300078
1.68301E+18,8.123482666,0.471899986,-1.773099899,-2.986099958,,,1.489300013,-0.599999964,9.674300194,,,405,1.961199999,-2.373099864,6.688200235
1.68301E+18,8.143482666,0.343199998,-1.719299912,-3.39380002,,,1.529699922,-0.565499961,9.670000076,,,406,1.87289992,-2.284799874,6.276200056
1.68301E+18,8.163482666,-0.332100004,-1.217299938,-2.759500027,,,1.508899927,-0.567499995,9.673199654,,,407,1.176799923,-1.784799933,6.913699627
1.68301E+18,8.183484131,-0.90019995,-0.808799982,-1.931399941,,,1.459199905,-0.603199959,9.678599358,,,408,0.558999956,-1.411999941,7.747199416
1.68301E+18,8.203482666,-1.000800014,-0.457999974,-1.885399938,,,1.422500014,-0.640299976,9.681699753,,,409,0.421700001,-1.09829995,7.796299815
1.68301E+18,8.223482666,-0.534699976,-0.369399995,-2.169299841,,,1.417299986,-0.6602,9.681099892,,,410,0.882600009,-1.029599994,7.511800051
1.68301E+18,8.243482666,-0.156000003,-0.483799994,-2.363199949,,,1.430899978,-0.663500011,9.678899765,,,411,1.274899974,-1.147300005,7.315699816
1.68301E+18,8.263482666,-0.195199996,-0.526300013,-2.118200064,,,1.430799961,-0.6602,9.679200172,,,412,1.235599965,-1.186500013,7.561000109
1.68301E+18,8.283482666,-0.403599977,-0.464899987,-1.463499904,,,1.413699985,-0.662699997,9.681499481,,,413,1.010100007,-1.127599984,8.217999578
1.68301E+18,8.303482666,-0.280799985,-0.287999988,-0.789699972,,,1.388999939,-0.672999978,9.684399605,,,414,1.108199954,-0.960999966,8.894699633
1.68301E+18,8.323482666,0.068099998,-0.184599996,-0.724299967,,,1.363499999,-0.678299963,9.687600136,,,415,1.431599997,-0.862899959,8.963300169
1.68301E+18,8.343482666,0.564700007,-0.188999996,-0.922999978,,,1.347499967,-0.673900008,9.690199852,,,416,1.912199974,-0.862900004,8.767199874
1.68301E+18,8.363482666,0.787599981,-0.084899999,-0.875199974,,,1.340299964,-0.67019999,9.691399574,,,417,2.127899945,-0.755099989,8.816199601
1.68301E+18,8.383482666,0.669799984,0.151799992,-0.169699997,,,1.330699921,-0.681299984,9.691999435,,,418,2.000499904,-0.529499993,9.522299439
1.68301E+18,8.403482666,0.469699979,0.354499996,0.985799968,,,1.305199981,-0.707499981,9.693599701,,,419,1.77489996,-0.352999985,10.67939967
1.68301E+18,8.423482666,0.446399987,0.53609997,2.208199978,,,1.259799957,-0.7421,9.69699955,,,420,1.706199944,-0.20600003,11.90519953
1.68301E+18,8.443482666,0.468599975,0.578199983,2.959300041,,,1.208199978,-0.774399996,9.701000214,,,421,1.676799953,-0.196200013,12.66030025
1.68301E+18,8.463482666,0.656099975,0.614199996,2.525300026,,,1.177699924,-0.790699959,9.703499794,,,422,1.833799899,-0.176499963,12.22879982
1.68301E+18,8.483482666,0.748299956,0.648799956,1.593999982,,,1.183499932,-0.78609997,9.703100204,,,423,1.931799889,-0.137300014,11.29710019
1.68301E+18,8.503484131,0.496999979,0.170499995,1.73269999,,,1.199499965,-0.778499961,9.701799393,,,424,1.696499944,-0.607999966,11.43449938
1.68301E+18,8.523482666,0.065399997,-0.12969999,3.094899893,,,1.189700007,-0.782199979,9.702699661,,,425,1.255100004,-0.911899969,12.79759955
1.68301E+18,8.543482666,-0.210999995,0.162199989,3.602199793,,,1.14259994,-0.819299996,9.705299377,,,426,0.931599945,-0.657100007,13.30749917
1.68301E+18,8.563482666,-0.25849998,0.491099983,2.696399927,,,1.092100024,-0.844199955,9.708999634,,,427,0.833600044,-0.353099972,12.40539956
1.68301E+18,8.583482666,0.51639998,0.592299998,0.859699965,,,1.072099924,-0.837499976,9.711799622,,,428,1.588499904,-0.245199978,10.57149959
1.68301E+18,8.603482666,1.444299936,0.187199995,-0.346199989,,,1.10529995,-0.79519999,9.71159935,,,429,2.549599886,-0.607999995,9.365399361
1.68301E+18,8.623482666,1.965599895,-0.365399987,-0.099699996,,,1.152799964,-0.742699981,9.710199356,,,430,3.118399858,-1.108099967,9.61049936
1.68301E+18,8.643482666,1.218699932,-0.872500002,0.813199997,,,1.183799982,-0.706200004,9.709199905,,,431,2.402499914,-1.578700006,10.5223999
1.68301E+18,8.663482666,-0.173799992,-1.105700016,1.153299928,,,1.174099922,-0.67899996,9.712299347,,,432,1.000299931,-1.784699976,10.86559927
1.68301E+18,8.683482666,-0.789900005,-1.075399995,0.884000003,,,1.152799964,-0.6505,9.716899872,,,433,0.362899959,-1.725899994,10.60089988
1.68301E+18,8.703482666,-0.746499956,-0.942200005,0.361599982,,,1.148599982,-0.616999984,9.719499588,,,434,0.402100027,-1.559199989,10.08109957
1.68301E+18,8.723482666,-0.514400005,-0.842299998,-0.452999979,,,1.161599994,-0.579599977,9.720299721,,,435,0.647199988,-1.421899974,9.267299742
1.68301E+18,8.743482666,-0.581699967,-0.820899963,-1.472199917,,,1.189700007,-0.532299995,9.719599724,,,436,0.60800004,-1.353199959,8.247399807
1.68301E+18,8.763482666,-0.538199961,-0.810199976,-2.068599939,,,1.224699974,-0.484200001,9.71780014,,,437,0.686500013,-1.294399977,7.649200201
1.68301E+18,8.783482666,-0.434499979,-0.761599958,-2.292999983,,,1.24849999,-0.444499999,9.716599464,,,438,0.81400001,-1.206099957,7.423599482
1.68301E+18,8.803482666,-0.291199982,-0.810699999,-2.400399923,,,1.261999965,-0.414999992,9.716199875,,,439,0.970799983,-1.225699991,7.315799952
1.68301E+18,8.823482666,-0.127199993,-0.703999996,-2.497699976,,,1.27459991,-0.394299984,9.715399742,,,440,1.147399917,-1.09829998,7.217699766
1.68301E+18,8.843482666,0.0682,-0.531799972,-2.123899937,,,1.284999967,-0.389899999,9.71420002,,,441,1.353199966,-0.921699971,7.590300083
1.68301E+18,8.863484131,0.084899999,-0.363700002,-1.613099933,,,1.287899971,-0.40109998,9.713399887,,,442,1.37279997,-0.764799982,8.100299954
1.68301E+18,8.883484131,-0.081599995,-0.16929999,-1.298499942,,,1.287799954,-0.419,9.712599754,,,443,1.206199959,-0.58829999,8.414099813
1.68301E+18,8.903482666,-0.354900002,-0.0374,-1.355599999,,,1.296399951,-0.433299989,9.710899353,,,444,0.941499949,-0.470699988,8.355299354
1.68301E+18,8.923482666,-0.510599971,0.048,-1.421499968,,,1.314800024,-0.440299988,9.708099365,,,445,0.804200053,-0.392299987,8.286599398
1.68301E+18,8.943482666,-0.611699998,0.184399992,-1.280699968,,,1.33739996,-0.449199975,9.70459938,,,446,0.725699961,-0.264799982,8.423899412
1.68301E+18,8.963482666,-0.727599978,0.424099982,-1.091199994,,,1.35529995,-0.463399976,9.701399803,,,447,0.627699971,-0.039299995,8.610199809
1.68301E+18,8.983482666,-0.884899974,0.690599978,-0.657199979,,,1.365399957,-0.484599978,9.698999405,,,448,0.480499983,0.206,9.041799426
1.68301E+18,9.003482666,-0.841299951,0.981599987,-0.194199994,,,1.370899916,-0.510899961,9.696799278,,,449,0.529599965,0.470700026,9.502599284
1.68301E+18,9.023482666,-0.475899994,1.174700022,0.474999994,,,1.378199935,-0.537299991,9.694399834,,,450,0.902299941,0.637400031,10.16939983
1.68301E+18,9.043482666,-0.0726,1.309099913,1.125,,,1.386600018,-0.563799977,9.691699982,,,451,1.314000018,0.745299935,10.81669998
1.68301E+18,9.063482666,0.061799999,1.357900023,1.696699977,,,1.399299979,-0.583099961,9.688699722,,,452,1.461099979,0.774800062,11.3853997
1.68301E+18,9.083482666,-0.144699991,1.260699987,2.257799864,,,1.409699917,-0.593800008,9.686599731,,,453,1.264999926,0.666899979,11.9443996
1.68301E+18,9.103482666,-0.515100002,1.060299993,2.415599823,,,1.417299986,-0.589599967,9.685699463,,,454,0.902199984,0.470700026,12.10129929
1.68301E+18,9.123482666,-0.631199956,0.441899985,2.711299896,,,1.435400009,-0.569400012,9.684299469,,,455,0.804200053,-0.127500027,12.39559937
1.68301E+18,9.143482666,0.024699999,-0.398299992,3.567499876,,,1.465799928,-0.542999983,9.681200027,,,456,1.490499927,-0.941299975,13.2486999
1.68301E+18,9.163484131,0.762499988,-0.544799984,3.875099897,,,1.492900014,-0.533800006,9.677599907,,,457,2.255400002,-1.078599989,13.5526998
1.68301E+18,9.183482666,0.839699984,-0.282099992,3.270799875,,,1.513799906,-0.541499972,9.673899651,,,458,2.353499889,-0.823599964,12.94469953
1.68301E+18,9.203482666,0.494199991,-0.111299999,1.450399995,,,1.535699964,-0.545700014,9.670199394,,,459,2.029899955,-0.657000013,11.12059939
1.68301E+18,9.223482666,0.52579999,-0.517199993,-0.251199991,,,1.572699904,-0.522199988,9.665599823,,,460,2.098499894,-1.039399981,9.414399832
1.68301E+18,9.243482666,1.271399975,-1.334599972,-0.0307,,,1.611699939,-0.489299983,9.660900116,,,461,2.883099914,-1.823899955,9.630200116
1.68301E+18,9.263482666,1.734299898,-1.667699933,1.941100001,,,1.619399905,-0.479900002,9.659999847,,,462,3.353699803,-2.147599936,11.60109985
1.68301E+18,9.283482666,0.690999985,-1.850099921,3.817699909,,,1.574299932,-0.503399968,9.66629982,,,463,2.265299916,-2.353499889,13.48399973
1.68301E+18,9.303482666,-0.624499977,-1.664699912,2.985800028,,,1.516899943,-0.522099972,9.674499512,,,464,0.892399967,-2.186799884,12.66029954
1.68301E+18,9.323482666,-0.908800006,-1.668799996,0.344500005,,,1.506999969,-0.488599986,9.677800179,,,465,0.598199964,-2.157399982,10.02230018
1.68301E+18,9.343482666,-0.173999995,-1.957599998,-1.590199947,,,1.566499949,-0.435099989,9.670899391,,,466,1.392499954,-2.392699987,8.080699444
1.68301E+18,9.363482666,0.0061,-2.175299883,-2.599400043,,,1.641299963,-0.393899977,9.660200119,,,467,1.647399963,-2.56919986,7.060800076
1.68301E+18,9.383482666,-0.629999995,-2.14109993,-2.634399891,,,1.669499993,-0.379099995,9.656000137,,,468,1.039499998,-2.520199925,7.021600246
1.68301E+18,9.403482666,-1.074399948,-1.750899911,-2.304800034,,,1.643199921,-0.396699995,9.659799576,,,469,0.568799973,-2.147599906,7.354999542
1.68301E+18,9.423482666,-0.978599966,-1.206599951,-2.162499905,,,1.60619998,-0.430999994,9.664499283,,,470,0.627600014,-1.637599945,7.501999378
1.68301E+18,9.443484131,-0.541299999,-0.785999954,-2.251499891,,,1.590600014,-0.469199985,9.665399551,,,471,1.049300015,-1.255199939,7.41389966
1.68301E+18,9.463482666,-0.1065,-0.487699986,-2.52339983,,,1.5970999,-0.502699971,9.662599564,,,472,1.4905999,-0.990399957,7.139199734
1.68301E+18,9.483482666,-0.087899998,-0.371399999,-2.502099991,,,1.598099947,-0.530699968,9.660900116,,,473,1.510199949,-0.902099967,7.158800125
1.68301E+18,9.503482666,-0.092500001,-0.252200007,-2.012500048,,,1.583099961,-0.561699986,9.661699295,,,474,1.49059996,-0.813899994,7.649199247
1.68301E+18,9.523482666,-0.136500001,-0.040399998,-1.563300014,,,1.558499932,-0.596899986,9.663499832,,,475,1.421999931,-0.637299985,8.100199819
1.68301E+18,9.543482666,-0.14289999,0.2421,-1.231099963,,,1.53549993,-0.63440001,9.66479969,,,476,1.39259994,-0.39230001,8.433699727
1.68301E+18,9.563482666,-0.094499998,0.466699988,-0.82949996,,,1.51639998,-0.672599971,9.665299416,,,477,1.421899982,-0.205899984,8.835799456
1.68301E+18,9.583482666,-0.13759999,0.643000007,-0.593800008,,,1.500800014,-0.711600006,9.664899826,,,478,1.363200024,-0.068599999,9.071099818
1.68301E+18,9.603484131,-0.134499997,0.668599963,-0.593100011,,,1.487800002,-0.746999979,9.664199829,,,479,1.353300005,-0.078400016,9.071099818
1.68301E+18,9.623482666,0.145499989,0.780499995,-0.180899993,,,1.472499967,-0.780499995,9.663899422,,,480,1.617999956,0,9.482999429
1.68301E+18,9.643484131,0.454899997,0.821399987,0.730599999,,,1.44749999,-0.821399987,9.664299965,,,481,1.902399987,0,10.39489996
1.68301E+18,9.663482666,0.67930001,0.822899997,1.6602,,,1.409399986,-0.862199962,9.666399956,,,482,2.088699996,-0.039299965,11.32659996
1.68301E+18,9.683482666,1.043799996,0.663699985,2.49119997,,,1.368499994,-0.899100006,9.668899536,,,483,2.412299991,-0.235400021,12.16009951
1.68301E+18,9.703482666,1.246399999,0.534200013,2.5,,,1.342399955,-0.926499963,9.670000076,,,484,2.588799953,-0.39229995,12.17000008
1.68301E+18,9.723482666,1.117900014,0.492799997,1.952600002,,,1.343500018,-0.943899989,9.668199539,,,485,2.461400032,-0.451099992,11.62079954
1.68301E+18,9.743482666,0.867500007,0.1061,2.250399828,,,1.358500004,-0.959299982,9.664499283,,,486,2.226000011,-0.853199981,11.91489911
1.68301E+18,9.763482666,0.452299982,-0.095699996,3.449299812,,,1.351999998,-0.992699981,9.662099838,,,487,1.80429998,-1.088399976,13.11139965
1.68301E+18,9.783490234,-0.039099999,0.153899997,3.804099798,,,1.323799968,-1.046299934,9.660299301,,,488,1.284699969,-0.892399937,13.4643991
1.68301E+18,9.803484131,-0.149399996,0.424099982,3.344499826,,,1.296800017,-1.090999961,9.659099579,,,489,1.147400022,-0.666899979,13.00359941
1.68301E+18,9.823482666,0.158199996,0.609600008,1.589399934,,,1.283299923,-1.109799981,9.658699989,,,490,1.441499919,-0.500199974,11.24809992
1.68301E+18,9.843482666,0.426099986,0.410999984,-0.655200005,,,1.309599996,-1.087700009,9.657699585,,,491,1.735699981,-0.676700026,9.00249958
1.68301E+18,9.863482666,1.011799932,-0.125699997,-1.045400023,,,1.361400008,-1.041199923,9.65569973,,,492,2.37319994,-1.16689992,8.610299706
1.68301E+18,9.883484131,1.180400014,-0.502399981,-0.074199997,,,1.388799906,-1.007699966,9.65530014,,,493,2.56919992,-1.510099947,9.581100143
1.68301E+18,9.903482666,0.121299997,-0.648199975,1.09920001,,,1.378999949,-0.98939997,9.658599854,,,494,1.500299945,-1.637599945,10.75779986
1.68301E+18,9.923482666,-0.736499965,-0.673099995,1.386999965,,,1.344499946,-0.974299967,9.664999962,,,495,0.60799998,-1.647399962,11.05199993
1.68301E+18,9.943482666,-1.044099927,-0.866899967,0.742399991,,,1.318699956,-0.937399983,9.672200203,,,496,0.274600029,-1.804299951,10.41460019
1.68301E+18,9.963482666,-0.362299979,-1.004699945,-0.437899977,,,1.333199978,-0.877999961,9.67579937,,,497,0.970899999,-1.882699907,9.237899393
1.68301E+18,9.983482666,0.169,-1.01699996,-1.299700022,,,1.380399942,-0.816699982,9.674499512,,,498,1.549399942,-1.833699942,8.37479949
1.68301E+18,10.00348267,0.0605,-0.987999976,-1.788299918,,,1.42019999,-0.76730001,9.672800064,,,499,1.48069999,-1.755299985,7.884500146
1.68301E+18,10.02348413,-0.41049999,-0.815099955,-2.032999992,,,1.440199971,-0.734299958,9.672399521,,,500,1.029699981,-1.549399912,7.639399529
1.68301E+18,10.04348413,-0.839999974,-0.616100013,-2.209699869,,,1.447999954,-0.717499971,9.672499657,,,501,0.60799998,-1.333599985,7.462799788
1.68301E+18,10.06348267,-0.859299958,-0.383599997,-2.35559988,,,1.457499981,-0.714599967,9.671299934,,,502,0.598200023,-1.098199964,7.315700054
1.68301E+18,10.08348267,-0.782599986,-0.198599994,-2.441400051,,,1.469099998,-0.723199964,9.668899536,,,503,0.686500013,-0.921799958,7.227499485
1.68301E+18,10.10348267,-0.629799962,0.033299997,-2.223799944,,,1.473199964,-0.73939997,9.667099953,,,504,0.843400002,-0.706099972,7.443300009
1.68301E+18,10.12348267,-0.507499993,0.27579999,-1.536000013,,,1.468599916,-0.766099989,9.665699959,,,505,0.961099923,-0.4903,8.129699945
1.68301E+18,10.14348267,-0.547500014,0.499599993,-1.211499929,,,1.459499955,-0.793799996,9.66479969,,,506,0.911999941,-0.294200003,8.453299761
1.68301E+18,10.16348267,-0.560099959,0.568300009,-0.975600004,,,1.452499986,-0.813499987,9.664299965,,,507,0.892400026,-0.245199978,8.688699961
1.68301E+18,10.18348267,-0.616299987,0.570299983,-0.906299949,,,1.449800014,-0.825299978,9.663700104,,,508,0.833500028,-0.254999995,8.757400155
1.68301E+18,10.20348267,-0.645199955,0.663100004,-0.963399947,,,1.459199905,-0.82979995,9.661899567,,,509,0.813999951,-0.166699946,8.69849962
1.68301E+18,10.22348267,-0.655099988,0.704699993,-0.69690001,,,1.469099998,-0.832199991,9.660099983,,,510,0.81400001,-0.127499998,8.963199973
1.68301E+18,10.24348267,-0.551400006,0.799299955,-0.0779,,,1.473199964,-0.838499963,9.658999443,,,511,0.921799958,-0.039200008,9.581099443
1.68301E+18,10.26348413,-0.415600002,0.909199953,0.501899958,,,1.474699974,-0.850299954,9.657699585,,,512,1.059099972,0.058899999,10.15959954
1.68301E+18,10.28348267,-0.246199995,1.06159997,0.83769995,,,1.48179996,-0.865499973,9.65530014,,,513,1.235599965,0.196099997,10.49300009
1.68301E+18,10.30348267,-0.038899999,1.05309999,1.261699915,,,1.49029994,-0.876599967,9.652999878,,,514,1.451399941,0.176500022,10.91469979
1.68301E+18,10.32348267,0.169200003,0.912499964,2.047999859,,,1.497900009,-0.883099973,9.651199341,,,515,1.667100012,0.029399991,11.6991992
1.68301E+18,10.34348267,0.085999995,0.769599974,2.647399902,,,1.502599955,-0.887299955,9.650099754,,,516,1.58859995,-0.117699981,12.29749966
1.68301E+18,10.36348267,0.0036,0.450999975,2.815799952,,,1.516299963,-0.882499993,9.648399353,,,517,1.519899963,-0.431500018,12.4641993
1.68301E+18,10.38348267,0.276499987,-0.083799995,3.280299902,,,1.547399998,-0.867299974,9.644800186,,,518,1.823899984,-0.951099969,12.92510009
1.68301E+18,10.40348267,0.373099983,-0.239199996,3.480700016,,,1.578299999,-0.859099984,9.640500069,,,519,1.951399982,-1.09829998,13.12120008
1.68301E+18,10.42348267,0.217199996,-0.24409999,3.279799938,,,1.60679996,-0.863900006,9.635399818,,,520,1.823999956,-1.107999995,12.91519976
1.68301E+18,10.44348267,0.185499996,-0.171499997,2.342499971,,,1.628700018,-0.867999971,9.631400108,,,521,1.814200014,-1.039499968,11.97390008
1.68301E+18,10.46348267,0.179999992,-0.360199988,0.827299953,,,1.663599968,-0.855799973,9.62650013,,,522,1.84359996,-1.215999961,10.45380008
1.68301E+18,10.48348267,0.389299989,-1.03489995,0.958599985,,,1.699399948,-0.828299999,9.622599602,,,523,2.088699937,-1.863199949,10.58119959
1.68301E+18,10.50348267,0.730499983,-1.532199979,2.477599859,,,1.701399922,-0.811499953,9.623700142,,,524,2.431899905,-2.343699932,12.1013
1.68301E+18,10.52348267,0.308599979,-1.529699922,3.345499992,,,1.672299981,-0.813999951,9.628600121,,,525,1.98089996,-2.343699872,12.97410011
1.68301E+18,10.54348267,-0.31279999,-1.495899916,2.212800026,,,1.646499991,-0.808600008,9.633500099,,,526,1.333700001,-2.304499924,11.84630013
1.68301E+18,10.56348267,-0.070599996,-1.644899964,0.063999996,,,1.65929997,-0.767399967,9.634699821,,,527,1.588699974,-2.412299931,9.698699817
1.68301E+18,10.58348267,0.338400006,-1.972599983,-1.501699924,,,1.701299906,-0.714399993,9.631400108,,,528,2.039699912,-2.686999977,8.129700184
1.68301E+18,10.60348267,-0.070099995,-2.121899843,-2.724099874,,,1.737199903,-0.672899961,9.627999306,,,529,1.667099908,-2.794799805,6.903899431
1.68301E+18,10.62348267,-0.81979996,-2.006299973,-2.763399839,,,1.741599917,-0.660999954,9.627999306,,,530,0.921799958,-2.667299926,6.864599466
1.68301E+18,10.64348267,-1.15989995,-1.554399967,-2.139499903,,,1.709100008,-0.691199958,9.631699562,,,531,0.549200058,-2.245599926,7.492199659
1.68301E+18,10.66348267,-1.081799984,-0.986000001,-2.024999857,,,1.67019999,-0.739799976,9.635000229,,,532,0.588400006,-1.725799978,7.610000372
1.68301E+18,10.68348413,-0.757600009,-0.733399987,-2.073799849,,,1.649999976,-0.786499977,9.634699821,,,533,0.892399967,-1.519899964,7.560899973
1.68301E+18,10.70348877,-0.2764,-0.607899964,-2.561100006,,,1.649399996,-0.823799968,9.631699562,,,534,1.372999996,-1.431699932,7.070599556
1.68301E+18,10.72348267,-0.189899996,-0.540699959,-2.499599934,,,1.65109992,-0.851799965,9.62899971,,,535,1.461199924,-1.392499924,7.129399776
1.68301E+18,10.74348267,-0.496399999,-0.408999979,-1.871799946,,,1.633999944,-0.885399997,9.628899574,,,536,1.137599945,-1.294399977,7.757099628
1.68301E+18,10.76348267,-0.623600006,-0.183799997,-1.157299995,,,1.604299903,-0.924299955,9.630199432,,,537,0.980699897,-1.108099952,8.472899437
1.68301E+18,10.78348267,-0.513300002,0.054499999,-0.57980001,,,1.572399974,-0.966600001,9.631299973,,,538,1.059099972,-0.912100002,9.051499963
1.68301E+18,10.80348267,-0.191499993,0.2949,-0.413999975,,,1.544799924,-1.000999928,9.632299423,,,539,1.353299931,-0.706099927,9.218299448
1.68301E+18,10.82348267,0.190299988,0.483099997,-0.542299986,,,1.525699973,-1.022400022,9.633099556,,,540,1.715999961,-0.539300025,9.09079957
1.68301E+18,10.84348267,0.38259998,0.635599971,-0.513700008,,,1.50999999,-1.037699938,9.633899689,,,541,1.89259997,-0.402099967,9.12019968
1.68301E+18,10.86348267,0.372799993,0.681800008,-0.0933,,,1.49029994,-1.054399967,9.635199547,,,542,1.863099933,-0.372599959,9.541899547
1.68301E+18,10.88348267,0.349700004,0.781799972,0.493399978,,,1.464399934,-1.075999975,9.636699677,,,543,1.814099938,-0.294200003,10.13009965
1.68301E+18,10.90348413,0.583599985,0.975799978,1.159199953,,,1.436499953,-1.103299975,9.637899399,,,544,2.020099938,-0.127499998,10.79709935
1.68301E+18,10.92348267,0.893799961,1.13380003,1.698199987,,,1.410599947,-1.13380003,9.63809967,,,545,2.304399908,0,11.33629966
1.68301E+18,10.94348267,0.850199997,1.109099984,1.726899981,,,1.385599971,-1.158100009,9.638899803,,,546,2.235799968,-0.049000025,11.36579978
1.68301E+18,10.96348267,0.776600003,1.003499985,1.451699972,,,1.370999932,-1.17019999,9.639499664,,,547,2.147599936,-0.166700006,11.09119964
1.68301E+18,10.98348267,0.742199957,0.518799961,2.049900055,,,1.366099954,-1.175899982,9.639499664,,,548,2.108299911,-0.657100022,11.68939972
1.68301E+18,11.00348267,0.692600012,0.027199998,3.902899981,,,1.347100019,-1.19419992,9.639900208,,,549,2.039700031,-1.166999921,13.54280019
1.68301E+18,11.02348413,0.256500006,0.109499998,4.979700089,,,1.292899966,-1.237299919,9.641900063,,,550,1.549399972,-1.127799921,14.62160015
1.68301E+18,11.04348413,0.228399992,0.246099994,4.674099922,,,1.242399931,-1.27579999,9.643499374,,,551,1.470799923,-1.029699996,14.3175993
1.68301E+18,11.06348267,0.815299988,0.49849999,2.515300035,,,1.224399924,-1.282999992,9.644899368,,,552,2.039699912,-0.784500003,12.1601994
1.68301E+18,11.08348267,1.124499917,0.690699995,-0.709699988,,,1.268299937,-1.24969995,9.64359951,,,553,2.392799854,-0.558999956,8.933899522
1.68301E+18,11.10348267,1.191399932,0.192399994,-2.088700056,,,1.358199954,-1.182899952,9.639800072,,,554,2.549599886,-0.990499958,7.551100016
1.68301E+18,11.12348267,0.421099991,-0.863699973,-1.253700018,,,1.422500014,-1.1171,9.638299942,,,555,1.843600005,-1.980799973,8.384599924
1.68301E+18,11.14348267,-0.843099952,-1.366099954,0.026099999,,,1.421700001,-1.075699925,9.643199921,,,556,0.578600049,-2.441799879,9.669299919
1.68301E+18,11.16348267,-1.47179997,-1.253700018,1.0079,,,1.373700023,-1.060599923,9.651800156,,,557,-0.098099947,-2.314299941,10.65970016
1.68301E+18,11.18348267,-0.885800004,-1.029600024,1.087100029,,,1.317299962,-1.049299955,9.660900116,,,558,0.431499958,-2.07889998,10.74800014
1.68301E+18,11.20348267,0.516499996,-0.992699981,0.335700005,,,1.297699928,-1.017499924,9.666899681,,,559,1.814199924,-2.010199904,10.00259969
1.68301E+18,11.22348267,1.196200013,-1.032299995,-0.803200006,,,1.324000001,-0.968199968,9.668399811,,,560,2.520200014,-2.000499964,8.865199804
1.68301E+18,11.24348267,1.129599929,-1.155599952,-1.576699972,,,1.370999932,-0.913499951,9.667200089,,,561,2.500599861,-2.069099903,8.090500116
1.68301E+18,11.26348267,0.349799991,-1.24119997,-1.938899994,,,1.405499935,-0.867199957,9.666500092,,,562,1.755299926,-2.108399928,7.727600098
1.68301E+18,11.28348267,-0.491399974,-1.086499929,-2.302000046,,,1.422999978,-0.835500002,9.666699409,,,563,0.931600004,-1.921999931,7.364699364
1.68301E+18,11.30348267,-0.880599976,-0.7579,-2.506700039,,,1.439599991,-0.820899963,9.665499687,,,564,0.559000015,-1.578799963,7.158799648
1.68301E+18,11.32348267,-0.790299952,-0.393299997,-2.445099831,,,1.457199931,-0.822600007,9.662799835,,,565,0.666899979,-1.215900004,7.217700005
1.68301E+18,11.34348267,-0.583899975,-0.106699996,-2.29550004,,,1.466499925,-0.834599972,9.660299301,,,566,0.88259995,-0.941299967,7.364799261
1.68301E+18,11.36348413,-0.388899982,0.13499999,-1.989899993,,,1.467599988,-0.850799978,9.658699989,,,567,1.078700006,-0.715799987,7.668799996
1.68301E+18,11.38348413,-0.31189999,0.380899996,-1.752499938,,,1.469099998,-0.871199965,9.656700134,,,568,1.157200009,-0.49029997,7.904200196
1.68301E+18,11.40348267,-0.239500001,0.719199955,-1.386500001,,,1.475099921,-0.895699978,9.653499603,,,569,1.23559992,-0.176500022,8.266999602
1.68301E+18,11.42348267,-0.203499988,0.982799947,-1.040099978,,,1.478399992,-0.923899949,9.650400162,,,570,1.274900004,0.058899999,8.610300183
1.68301E+18,11.44348267,-0.323499978,1.172599912,-0.704099953,,,1.480599999,-0.946999967,9.647799492,,,571,1.157100022,0.225599945,8.943699539
1.68301E+18,11.46348267,-0.391000003,1.183200002,-0.525200009,,,1.489300013,-0.957599998,9.645400047,,,572,1.09830001,0.225600004,9.120200038
1.68301E+18,11.48348267,-0.400999993,1.053799987,-0.365399987,,,1.509199977,-0.955799997,9.642499924,,,573,1.108199984,0.09799999,9.277099937
1.68301E+18,11.50348267,-0.343899995,0.950899959,0.068799995,,,1.530499935,-0.950899959,9.6395998,,,574,1.18659994,0,9.708399795
1.68301E+18,11.52348267,-0.263399988,0.933399975,0.709299982,,,1.548099995,-0.952999949,9.636599541,,,575,1.284700006,-0.019599974,10.34589952
1.68301E+18,11.54348267,-0.119499996,0.989799976,1.359399915,,,1.561100006,-0.960399985,9.633799553,,,576,1.44160001,0.029399991,10.99319947
1.68301E+18,11.56348267,0.0004,0.909199953,2.194900036,,,1.568599939,-0.968099952,9.631799698,,,577,1.568999939,-0.058899999,11.82669973
1.68301E+18,11.58348267,-0.0524,0.785299957,2.931399822,,,1.572399974,-0.971599996,9.630799294,,,578,1.519999973,-0.186300039,12.56219912
1.68301E+18,11.60348267,-0.226799995,0.425499976,3.157500029,,,1.58009994,-0.9648,9.630199432,,,579,1.353299946,-0.539300025,12.78769946
1.68301E+18,11.62348267,-0.207699999,-0.376699984,3.493199825,,,1.610099912,-0.937299967,9.627999306,,,580,1.402399912,-1.313999951,13.12119913
1.68301E+18,11.64348267,0.290600002,-0.952099979,3.948699951,,,1.650999904,-0.91109997,9.623600006,,,581,1.941599905,-1.863199949,13.57229996
1.68301E+18,11.66348267,0.538999975,-0.805499971,3.896099806,,,1.686999917,-0.910600007,9.617400169,,,582,2.225999892,-1.716099977,13.51349998
1.68301E+18,11.68348267,0.280399978,-0.171199992,2.656299829,,,1.710199952,-0.927100003,9.611700058,,,583,1.99059993,-1.098299995,12.26799989
1.68301E+18,11.70348267,-0.080699995,0.110199995,0.504499972,,,1.737999916,-0.933999956,9.606100082,,,584,1.657299921,-0.82379996,10.11060005
1.68301E+18,11.72348267,-0.153399989,-0.581099987,-0.413499981,,,1.771499991,-0.909500003,9.60229969,,,585,1.618100002,-1.49059999,9.188799709
1.68301E+18,11.74348267,0.3125,-1.375,0.616100013,,,1.786099911,-0.880400002,9.60229969,,,586,2.098599911,-2.255400002,10.2183997
1.68301E+18,11.76348267,0.490099996,-1.450299978,1.869599938,,,1.775099993,-0.883599997,9.604000092,,,587,2.265199989,-2.333899975,11.47360003
1.68301E+18,11.78348267,0.185499996,-1.204299927,1.481999993,,,1.736499906,-0.903999984,9.609199524,,,588,1.921999902,-2.108299911,11.09119952
1.68301E+18,11.80348267,0.391599983,-1.230399966,-0.190899998,,,1.706999898,-0.897599995,9.615099907,,,589,2.098599881,-2.127999961,9.424199909
1.68301E+18,11.82348267,0.709299982,-1.444399953,-1.261299968,,,1.712799907,-0.869799972,9.616600037,,,590,2.422099888,-2.314199924,8.355300069
1.68301E+18,11.84348267,0.420399994,-1.529399991,-1.766600013,,,1.746699929,-0.853499949,9.611999512,,,591,2.167099923,-2.38289994,7.845399499
1.68301E+18,11.86348267,-0.194499999,-1.414399981,-1.773599982,,,1.763599992,-0.850799978,9.609099388,,,592,1.569099993,-2.265199959,7.835499406
1.68301E+18,11.88348267,-0.581399977,-1.297099948,-1.628399968,,,1.748399973,-0.860199988,9.611000061,,,593,1.166999996,-2.157299936,7.982600093
1.68301E+18,11.90348267,-0.352099985,-1.059800029,-1.875,,,1.734899998,-0.871999979,9.612400055,,,594,1.382800013,-1.931800008,7.737400055
1.68301E+18,11.92348267,0.136600003,-0.938299954,-2.028599977,,,1.746099949,-0.885699987,9.609199524,,,595,1.882699952,-1.823999941,7.580599546
1.68301E+18,11.94348413,0.13319999,-0.826099992,-2.062299967,,,1.769199967,-0.899800003,9.603599548,,,596,1.902399957,-1.725899994,7.541299582
1.68301E+18,11.96348413,-0.410099983,-0.793799996,-2.009500027,,,1.782999992,-0.912399948,9.599899292,,,597,1.372900009,-1.706199944,7.590399265
1.68301E+18,11.98348267,-0.773099959,-0.732899964,-1.635699987,,,1.783199906,-0.924399972,9.59869957,,,598,1.010099947,-1.657299936,7.962999582
1.68301E+18,12.00348267,-0.75729996,-0.57919997,-1.203699946,,,1.777099967,-0.940799952,9.598199844,,,599,1.019800007,-1.519999921,8.394499898
1.68301E+18,12.02348267,-0.476499975,-0.336799979,-0.967799962,,,1.770999908,-0.957599998,9.597700119,,,600,1.294499934,-1.294399977,8.629900157
1.68301E+18,12.04348267,-0.026999999,-0.0436,-0.879199982,,,1.762799978,-0.976199985,9.597299576,,,601,1.735799979,-1.019799985,8.718099594
1.68301E+18,12.06348267,0.274199992,0.251599997,-0.888199985,,,1.755699992,-0.996899962,9.596499443,,,602,2.029899985,-0.745299965,8.708299458
1.68301E+18,12.08348413,0.282000005,0.568599999,-0.749899983,,,1.747900009,-1.019699931,9.595499992,,,603,2.029900014,-0.451099932,8.845600009
1.68301E+18,12.10348267,0.2359,0.869499981,-0.406199992,,,1.735199928,-1.046000004,9.594999313,,,604,1.971099928,-0.176500022,9.188799322
1.68301E+18,12.12348267,0.210899994,1.00669992,0.347799987,,,1.711099982,-1.075299978,9.596099854,,,605,1.921999976,-0.068600059,9.94389984
1.68301E+18,12.14348267,0.229800001,1.058699965,1.286099911,,,1.672599912,-1.10769999,9.599199295,,,606,1.902399912,-0.049000025,10.88529921
1.68301E+18,12.16348267,0.460299999,1.072099924,2.321899891,,,1.628399968,-1.140699983,9.602899551,,,607,2.088699967,-0.068600059,11.92479944
1.68301E+18,12.18348267,0.860199988,1.062799931,2.611799955,,,1.581599951,-1.170699954,9.607099533,,,608,2.441799939,-0.107900023,12.21889949
1.68301E+18,12.20348413,1.307099938,0.93629998,1.68719995,,,1.556299925,-1.181399941,9.609999657,,,609,2.863399863,-0.245099962,11.29719961
1.68301E+18,12.22348267,1.308899999,0.466499984,1.402999997,,,1.564399958,-1.172599912,9.609700203,,,610,2.873299956,-0.706099927,11.0127002
1.68301E+18,12.24348267,0.974799991,-0.089899994,3.021499872,,,1.564999938,-1.174999952,9.60929966,,,611,2.539799929,-1.264899947,12.63079953
1.68301E+18,12.26348267,0.405699998,0.100499995,3.959299803,,,1.516299963,-1.208599925,9.612999916,,,612,1.921999961,-1.10809993,13.57229972
1.68301E+18,12.28348267,-0.115999997,0.383599997,3.131899834,,,1.469299912,-1.236799955,9.616700172,,,613,1.353299916,-0.853199959,12.74860001
1.68301E+18,12.30348267,0.352699995,0.441100001,1.638399959,,,1.451599956,-1.235499978,9.61950016,,,614,1.804299951,-0.794399977,11.25790012
1.68301E+18,12.32348267,0.932699978,0.099399999,0.352899998,,,1.469799995,-1.207599998,9.620299339,,,615,2.402499974,-1.108199999,9.973199338
1.68301E+18,12.34348267,1.320299983,-0.208099991,0.186199993,,,1.503899932,-1.164799929,9.620299339,,,616,2.824199915,-1.37289992,9.806499332
1.68301E+18,12.36348267,0.770399988,-0.449399978,0.677100003,,,1.534099936,-1.129299998,9.619799614,,,617,2.304499924,-1.578699976,10.29689962
1.68301E+18,12.38348267,-0.700500011,-0.576499999,0.752599955,,,1.543900013,-1.090600014,9.622699738,,,618,0.843400002,-1.667100012,10.37529969
1.68301E+18,12.40348267,-1.759499907,-0.86589998,0.442599982,,,1.54369998,-1.036499977,9.628699303,,,619,-0.215799928,-1.902399957,10.07129928
1.68301E+18,12.42348413,-1.952600002,-1.156499982,-0.1523,,,1.550599933,-0.961699963,9.635399818,,,620,-0.40200007,-2.118199944,9.483099818
1.68301E+18,12.44348413,-1.171399951,-1.331399918,-0.539999962,,,1.563599944,-0.884799957,9.640600204,,,621,0.392199993,-2.216199875,9.100600243
1.68301E+18,12.46348267,-0.417699993,-1.38319993,-1.240800023,,,1.574800014,-0.813399971,9.64509964,,,622,1.157100022,-2.196599901,8.404299617
1.68301E+18,12.48348267,0.298999995,-1.364899993,-1.813699961,,,1.583799958,-0.743499994,9.649299622,,,623,1.882799953,-2.108399987,7.835599661
1.68301E+18,12.50348267,0.650099993,-1.155699968,-2.247400045,,,1.595499992,-0.687900007,9.651399612,,,624,2.245599985,-1.843599975,7.403999567
1.68301E+18,12.52348267,0.487999976,-0.847599983,-2.414099932,,,1.610499978,-0.652700007,9.651399612,,,625,2.098499954,-1.50029999,7.237299681
1.68301E+18,12.54348267,-0.234699994,-0.6778,-2.168900013,,,1.617499948,-0.636200011,9.651299477,,,626,1.382799953,-1.31400001,7.482399464
1.68301E+18,12.56348267,-0.893099964,-0.463099986,-1.827099919,,,1.608899951,-0.635100007,9.652799606,,,627,0.715799987,-1.098199993,7.825699687
1.68301E+18,12.58348267,-1.031499982,-0.050499998,-1.476400018,,,1.590499997,-0.645599961,9.655200005,,,628,0.559000015,-0.696099959,8.178799987
1.68301E+18,12.60348267,-0.90989995,0.261999995,-0.782799959,,,1.566999912,-0.664099991,9.657799721,,,629,0.657099962,-0.402099997,8.874999762
1.68301E+18,12.62348267,-0.737999976,0.454599977,-0.617399991,,,1.55189991,-0.680199981,9.659099579,,,630,0.813899934,-0.225600004,9.041699588
1.68301E+18,12.64348267,-0.429399997,0.541899979,-1.018700004,,,1.557199955,-0.679199994,9.658299446,,,631,1.127799958,-0.137300014,8.639599442
1.68301E+18,12.66348267,-0.259000003,0.546799958,-1.595699906,,,1.573099971,-0.664499998,9.656799316,,,632,1.314099967,-0.11770004,8.06109941
1.68301E+18,12.6834856,-0.295699984,0.564799964,-2.143499851,,,1.590099931,-0.64319998,9.655399323,,,633,1.294399947,-0.078400016,7.511899471
1.68301E+18,12.70348267,-0.371600002,0.638799965,-2.151399851,,,1.607299924,-0.629000008,9.653499603,,,634,1.235699922,0.009799957,7.502099752
1.68301E+18,12.72348267,-0.482499987,0.817200005,-1.776499987,,,1.620099902,-0.630800009,9.651199341,,,635,1.137599915,0.186399996,7.874699354
1.68301E+18,12.74348267,-0.525600016,0.984399974,-0.656599998,,,1.623999953,-0.650999963,9.649299622,,,636,1.098399937,0.333400011,8.992699623
1.68301E+18,12.76348267,-0.346699983,1.194000006,0.559599996,,,1.611699939,-0.683999956,9.649000168,,,637,1.264999956,0.51000005,10.20860016
1.68301E+18,12.78348267,-0.079399996,1.406499982,1.676499963,,,1.589599967,-0.720099986,9.650099754,,,638,1.510199971,0.686399996,11.32659972
1.68301E+18,12.80348413,0.25059998,1.478099942,2.831899881,,,1.563499928,-0.752399981,9.651899338,,,639,1.814099908,0.725699961,12.48379922
1.68301E+18,12.82348413,0.393899977,1.254499912,3.291199923,,,1.547699928,-0.764099956,9.653499603,,,640,1.941599905,0.490399957,12.94469953
1.68301E+18,12.84348267,0.295699984,0.612699986,2.918299913,,,1.557699919,-0.740199983,9.653800011,,,641,1.853399903,-0.127499998,12.57209992
1.68301E+18,12.86348267,0.326700002,-0.227699995,3.077899933,,,1.595299959,-0.694000006,9.651000023,,,642,1.921999961,-0.921700001,12.72889996
1.68301E+18,12.88348267,0.402500004,-0.561399996,3.904899836,,,1.627399921,-0.664299965,9.647799492,,,643,2.029899925,-1.225699961,13.55269933
1.68301E+18,12.90348267,0.296999991,-0.673500001,4.240999699,,,1.644599915,-0.660099983,9.64509964,,,644,1.941599905,-1.333599985,13.88609934
1.68301E+18,12.92348267,0.433699995,-0.490999997,3.38929987,,,1.655099988,-0.656300008,9.64359951,,,645,2.088799983,-1.147300005,13.03289938
1.68301E+18,12.94348267,0.57949996,-0.317499995,1.069599986,,,1.68569994,-0.64349997,9.639200211,,,646,2.2651999,-0.960999966,10.7088002
1.68301E+18,12.96348267,0.804099977,-0.964100003,-0.022299999,,,1.735799909,-0.604900002,9.632800102,,,647,2.539899886,-1.569000006,9.610500103
1.68301E+18,12.98348267,1.472599983,-1.870700002,1.579100013,,,1.763499975,-0.57099998,9.629799843,,,648,3.236099958,-2.441699982,11.20889986
1.68301E+18,13.00348267,1.203799963,-1.858899951,3.310400009,,,1.738099933,-0.573000014,9.634300232,,,649,2.941899896,-2.431899965,12.94470024
1.68301E+18,13.02348267,0.086300001,-1.595699906,3.008499861,,,1.688599944,-0.591099977,9.642000198,,,650,1.774899945,-2.186799884,12.65050006
1.68301E+18,13.04348267,-0.332499981,-1.583499908,0.630299985,,,1.666199923,-0.573799968,9.646900177,,,651,1.333699942,-2.157299876,10.27720016
1.68301E+18,13.06348267,0.056899998,-1.769299984,-1.3477,,,1.698399901,-0.525299966,9.644100189,,,652,1.7552999,-2.29459995,8.296400189
1.68301E+18,13.08348267,-0.153899997,-2.068399906,-2.322299957,,,1.742599964,-0.490999997,9.637999535,,,653,1.588699967,-2.559399903,7.315699577
1.68301E+18,13.10348267,-0.799899995,-2.034699917,-2.604099989,,,1.760899901,-0.475699991,9.635499954,,,654,0.960999906,-2.510399908,7.031399965
1.68301E+18,13.12348267,-1.255399942,-1.770499945,-2.362499952,,,1.735899925,-0.494800001,9.638999939,,,655,0.480499983,-2.265299946,7.276499987
1.68301E+18,13.14348267,-1.005800009,-1.278499961,-2.240599871,,,1.692299962,-0.535600007,9.644599915,,,656,0.686499953,-1.814099967,7.404000044
1.68301E+18,13.16348267,-0.323599994,-0.821899951,-2.280999899,,,1.667099953,-0.59009999,9.645799637,,,657,1.343499959,-1.411999941,7.364799738
1.68301E+18,13.18348413,0.0098,-0.567699969,-2.426100016,,,1.657299995,-0.648199975,9.643799782,,,658,1.667099996,-1.215899944,7.217699766
1.68301E+18,13.2034856,-0.26879999,-0.473499984,-2.297399998,,,1.64169991,-0.703199983,9.64260006,,,659,1.37289992,-1.176699966,7.345200062
1.68301E+18,13.22348267,-0.658800006,-0.373899996,-1.975299954,,,1.610099912,-0.753799975,9.644100189,,,660,0.951299906,-1.127699971,7.668800235
1.68301E+18,13.24348267,-0.621100008,-0.23179999,-1.506500006,,,1.572299957,-0.807599962,9.645999908,,,661,0.951199949,-1.039399952,8.139499903
1.68301E+18,13.26348267,-0.136999995,0.0014,-1.153800011,,,1.539399981,-0.86439997,9.646399498,,,662,1.402399987,-0.86299997,8.492599487
1.68301E+18,13.28348267,0.458099991,0.282999992,-0.995899975,,,1.512899995,-0.92049998,9.645400047,,,663,1.970999986,-0.637499988,8.649500072
1.68301E+18,13.30348267,0.757399976,0.549899995,-1.082999945,,,1.488299966,-0.971499979,9.644199371,,,664,2.245699942,-0.421599984,8.561199427
1.68301E+18,13.32348267,0.851700008,0.604499996,-1.043099999,,,1.462599993,-1.01639998,9.643499374,,,665,2.314300001,-0.411899984,8.600399375
1.68301E+18,13.34348267,0.856899977,0.751100004,-0.463,,,1.437799931,-1.064899921,9.642000198,,,666,2.294699907,-0.313799918,9.179000199
1.68301E+18,13.36348267,0.818300009,0.895299971,0.607800007,,,1.407699943,-1.120800018,9.640099525,,,667,2.225999951,-0.225500047,10.24789953
1.68301E+18,13.38348267,0.844299972,0.992399991,1.882999897,,,1.362100005,-1.178799987,9.639699936,,,668,2.206399977,-0.186399996,11.52269983
1.68301E+18,13.40348267,1.062299967,1.171700001,2.921799898,,,1.310799956,-1.230499983,9.640399933,,,669,2.373099923,-0.058799982,12.56219983
1.68301E+18,13.42348267,1.111099958,1.317600012,2.998699903,,,1.271799922,-1.258799911,9.642000198,,,670,2.38289988,0.058800101,12.6407001
1.68301E+18,13.44348267,1.024699926,1.128199935,2.222100019,,,1.260100007,-1.255699992,9.643899918,,,671,2.284799933,-0.127500057,11.86599994
1.68301E+18,13.46348267,1.179799914,0.447099984,2.102799892,,,1.271799922,-1.231599927,9.645500183,,,672,2.451599836,-0.784499943,11.74830008
1.68301E+18,13.48348267,1.294399977,-0.017199999,3.454799891,,,1.27489996,-1.218299985,9.646699905,,,673,2.569299936,-1.235499984,13.1014998
1.68301E+18,13.50348267,0.96269995,0.0178,4.082900047,,,1.253499985,-1.243600011,9.646299362,,,674,2.216199934,-1.225800011,13.72919941
1.68301E+18,13.5234856,0.765299976,0.107999995,3.630999804,,,1.225299954,-1.265200019,9.647099495,,,675,1.99059993,-1.157200024,13.2780993
1.68301E+18,13.54348267,0.996799946,0.405799985,1.698799968,,,1.219399929,-1.26880002,9.647399902,,,676,2.216199875,-0.863000035,11.34619987
1.68301E+18,13.56348413,0.90109998,0.565499961,-1.250399947,,,1.26609993,-1.2421,9.644899368,,,677,2.16719991,-0.676600039,8.394499421
1.68301E+18,13.58348413,0.856399953,-0.144799992,-1.922399998,,,1.350000024,-1.188799977,9.640199661,,,678,2.206399977,-1.33359997,7.717799664
1.68301E+18,13.60348267,0.091899998,-0.885999978,-0.556299984,,,1.40839994,-1.143899918,9.637299538,,,679,1.500299938,-2.029899895,9.080999553
1.68301E+18,13.62348267,-0.769099951,-0.950599968,1.04279995,,,1.426199913,-1.128299952,9.636499405,,,680,0.657099962,-2.07889992,10.67929935
1.68301E+18,13.64348267,-1.35769999,-0.794699967,1.775399923,,,1.406700015,-1.127300024,9.639499664,,,681,0.049000025,-1.921999991,11.41489959
1.68301E+18,13.66348267,-1.075399995,-0.944099963,0.991599977,,,1.369599938,-1.095499992,9.648499489,,,682,0.294199944,-2.039599955,10.64009947
1.68301E+18,13.68348267,0.155299991,-1.136899948,-0.407299995,,,1.37440002,-1.030300021,9.654999733,,,683,1.529700011,-2.167199969,9.247699738
1.68301E+18,13.70348267,0.755499959,-1.130399942,-1.663199902,,,1.421399951,-0.958299994,9.655599594,,,684,2.17689991,-2.088699937,7.992399693
1.68301E+18,13.72348267,0.633099973,-1.008000016,-2.150699854,,,1.475199938,-0.904199958,9.652699471,,,685,2.108299911,-1.912199974,7.501999617
1.68301E+18,13.74348267,-0.421299994,-0.90019995,-2.326999903,,,1.5,-0.864899993,9.652500153,,,686,1.078700006,-1.765099943,7.32550025
1.68301E+18,13.76348267,-1.121399999,-0.670399964,-2.26970005,,,1.503799915,-0.839699984,9.654099464,,,687,0.382399917,-1.510099947,7.384399414
1.68301E+18,13.78348267,-1.367399931,-0.50729996,-2.241299868,,,1.504699945,-0.826299965,9.655200005,,,688,0.137300014,-1.333599925,7.413900137
1.68301E+18,13.80348413,-1.282299995,-0.210999995,-2.339599848,,,1.5079,-0.818599999,9.65530014,,,689,0.225600004,-1.029599994,7.315700293
1.68301E+18,13.82348413,-0.928799987,0.066,-2.035399914,,,1.507399917,-0.821099997,9.655200005,,,690,0.57859993,-0.755099997,7.619800091
1.68301E+18,13.84348267,-0.521099985,0.309799999,-1.613899946,,,1.501799941,-0.829599977,9.65530014,,,691,0.980699956,-0.519799978,8.041400194
1.68301E+18,13.86348267,-0.212599993,0.426899999,-1.241099954,,,1.49729991,-0.838799953,9.655200005,,,692,1.284699917,-0.411899954,8.414100051
1.68301E+18,13.88348267,-0.122199997,0.510899961,-1.005599976,,,1.495199919,-0.844299972,9.655099869,,,693,1.372999921,-0.333400011,8.649499893
1.68301E+18,13.90348267,-0.248699993,0.570599973,-0.927299976,,,1.494199991,-0.845200002,9.655200005,,,694,1.245499998,-0.274600029,8.727900028
1.68301E+18,13.92348267,-0.392099977,0.636500001,-0.916700006,,,1.500299931,-0.842499971,9.654500008,,,695,1.108199954,-0.20599997,8.737800002
1.68301E+18,13.94348267,-0.508399963,0.713799953,-0.738999963,,,1.508700013,-0.841299951,9.653299332,,,696,1.00030005,-0.127499998,8.914299369
1.68301E+18,13.96348413,-0.620999992,0.824699998,-0.48299998,,,1.513399959,-0.844299972,9.652199745,,,697,0.892399967,-0.019599974,9.169199765
1.68301E+18,13.98348413,-0.601199985,0.860599995,-0.021599999,,,1.513299942,-0.850799978,9.65170002,,,698,0.912099957,0.009800017,9.630100021
1.68301E+18,14.00348267,-0.287299991,0.902399957,0.646299958,,,1.513099909,-0.863199949,9.65059948,,,699,1.225799918,0.039200008,10.29689944
1.68301E+18,14.02348267,0.105099998,0.880099952,1.461699963,,,1.512899995,-0.880099952,9.64909935,,,700,1.617999993,0,11.11079931
1.68301E+18,14.04348267,0.340199977,0.768399954,2.422699928,,,1.503399968,-0.895799994,9.649199486,,,701,1.843599945,-0.127400041,12.07189941
1.68301E+18,14.06348267,0.303200006,0.721899986,3.226099968,,,1.491299987,-0.908199966,9.649899483,,,702,1.794499993,-0.18629998,12.87599945
1.68301E+18,14.08348267,0.044099998,0.350799978,3.656899929,,,1.485700011,-0.909799993,9.65059948,,,703,1.529800009,-0.559000015,13.30749941
1.68301E+18,14.10348267,0.268700004,-0.703599989,3.734699965,,,1.496399999,-0.88499999,9.651199341,,,704,1.765100002,-1.58859998,13.38589931
1.68301E+18,14.12348267,0.979999959,-1.25059998,3.314999819,,,1.530399919,-0.84799999,9.649299622,,,705,2.510399878,-2.09859997,12.96429944
1.68301E+18,14.14348267,1.271199942,-0.967499971,2.381000042,,,1.582399964,-0.836899996,9.641799927,,,706,2.853599906,-1.804399967,12.02279997
1.68301E+18,14.16348267,0.683099985,-0.406099975,0.840799987,,,1.631199956,-0.849099994,9.632599831,,,707,2.314299941,-1.255199969,10.47339982
1.68301E+18,14.18348413,0.280699998,-0.380299985,-0.42839998,,,1.660899997,-0.855199993,9.626999855,,,708,1.941599995,-1.235499978,9.198599875
1.68301E+18,14.20348413,0.317099988,-0.904499948,-0.142199993,,,1.673499942,-0.850799978,9.625199318,,,709,1.99059993,-1.755299926,9.482999325
1.68301E+18,14.22348267,0.470599979,-1.30309999,1.534699917,,,1.667199969,-0.864099979,9.625100136,,,710,2.137799948,-2.167199969,11.15980005
1.68301E+18,14.24348267,0.234899998,-1.066299915,2.798499823,,,1.638099909,-0.904699981,9.626399994,,,711,1.872999907,-1.970999897,12.42489982
1.68301E+18,14.26348267,-0.095399998,-0.921299994,2.36349988,,,1.59589994,-0.941799998,9.629899979,,,712,1.500499941,-1.863099992,11.99339986
1.68301E+18,14.28348267,0.414099991,-0.934599996,0.692900002,,,1.576499939,-0.938299954,9.633399963,,,713,1.99059993,-1.87289995,10.32629997
1.68301E+18,14.30348267,0.846300006,-0.99879998,-0.961999953,,,1.60529995,-0.913399994,9.631099701,,,714,2.451599956,-1.912199974,8.669099748
1.68301E+18,14.32348267,0.616899967,-1.091300011,-1.955599904,,,1.658199906,-0.889499962,9.624400139,,,715,2.275099874,-1.980799973,7.668800235
1.68301E+18,14.34348267,-0.347799987,-1.243499994,-2.294399977,,,1.691299915,-0.87469995,9.619999886,,,716,1.343499929,-2.118199944,7.325599909
1.68301E+18,14.36348267,-1.227800012,-1.157299995,-2.440399885,,,1.698599935,-0.872599959,9.618899345,,,717,0.470799923,-2.029899955,7.17849946
1.68301E+18,14.38348413,-1.489300013,-0.797100008,-2.331599951,,,1.695199966,-0.889499962,9.617899895,,,718,0.205899954,-1.68659997,7.286299944
1.68301E+18,14.40348413,-1.161000013,-0.508700013,-1.966399908,,,1.690599918,-0.922999978,9.615599632,,,719,0.529599905,-1.431699991,7.649199724
1.68301E+18,14.42348267,-0.760499954,-0.24059999,-1.915599942,,,1.682299972,-0.95569998,9.613800049,,,720,0.921800017,-1.19629997,7.698200107
1.68301E+18,14.44348267,-0.491599977,-0.177699998,-1.837199926,,,1.66839993,-0.979399979,9.613900185,,,721,1.176799953,-1.157099977,7.776700258
1.68301E+18,14.46348267,-0.27699998,-0.090599999,-1.593299985,,,1.64989996,-0.99789995,9.615200043,,,722,1.372899979,-1.088499948,8.021900058
1.68301E+18,14.48348267,-0.138099998,-0.073199995,-1.192999959,,,1.628799915,-1.015200019,9.61689949,,,723,1.490699917,-1.088400014,8.423899531
1.68301E+18,14.50348267,-0.1162,-0.0189,-1.047999978,,,1.60679996,-1.030300021,9.618999481,,,724,1.49059996,-1.049200021,8.570999503
1.68301E+18,14.52348267,-0.092,-0.058599997,-1.070599914,,,1.582599998,-1.039700031,9.621999741,,,725,1.490599997,-1.098300029,8.551399827
1.68301E+18,14.54348267,0.101300001,-0.037999999,-0.916899979,,,1.555999994,-1.050499916,9.625199318,,,726,1.657299995,-1.088499915,8.708299339
1.68301E+18,14.56348267,0.309399992,0.163099989,-0.458299994,,,1.524299979,-1.075099945,9.627599716,,,727,1.833699971,-0.911999956,9.169299722
1.68301E+18,14.58348267,0.48269999,0.371600002,0.452699989,,,1.488299966,-1.116899967,9.628399849,,,728,1.970999956,-0.745299965,10.08109984
1.68301E+18,14.60348267,0.717199981,0.502200007,1.393000007,,,1.440199971,-1.169099927,9.629599571,,,729,2.157399952,-0.66689992,11.02259958
1.68301E+18,14.62348267,1.037099957,0.532899976,2.116899967,,,1.38499999,-1.219299912,9.631400108,,,730,2.422099948,-0.686399937,11.74830008
1.68301E+18,14.64348413,1.392699957,0.550799966,2.487099886,,,1.333499908,-1.256899953,9.633899689,,,731,2.726199865,-0.706099987,12.12099957
1.68301E+18,14.66348267,1.484099984,0.471299976,2.447099924,,,1.300899982,-1.2852,9.634599686,,,732,2.784999967,-0.813900024,12.08169961
1.68301E+18,14.68348267,1.271700025,0.141099989,2.203199863,,,1.297599912,-1.298200011,9.633299828,,,733,2.569299936,-1.157100022,11.83649969
1.68301E+18,14.70348267,1.082700014,-0.060899999,2.928499937,,,1.290399909,-1.302099943,9.633699417,,,734,2.373099923,-1.362999942,12.56219935
1.68301E+18,14.72348267,0.466999978,0.107099995,3.325399876,,,1.239300013,-1.313300014,9.638899803,,,735,1.70629999,-1.206200019,12.96429968
1.68301E+18,14.74348267,-0.110199995,0.447599977,2.699800014,,,1.16929996,-1.3204,9.646699905,,,736,1.059099965,-0.872800022,12.34649992
1.68301E+18,14.76348267,-0.0407,0.817499995,0.96509999,,,1.109699965,-1.307899952,9.655399323,,,737,1.068999965,-0.490399957,10.62049931
1.68301E+18,14.78348267,0.685699999,0.71329999,-0.717700005,,,1.098999977,-1.272199988,9.661399841,,,738,1.784699976,-0.558899999,8.943699837
1.68301E+18,14.8034856,1.182099938,0.147599995,-0.458599985,,,1.112499952,-1.216499925,9.666999817,,,739,2.294599891,-1.06889993,9.208399832
1.68301E+18,14.82348413,1.106299996,-0.358799994,1.429299951,,,1.109899998,-1.180699944,9.67179966,,,740,2.216199994,-1.539499938,11.10109961
1.68301E+18,14.84348267,0.182099998,-0.51849997,2.750799894,,,1.102399945,-1.168200016,9.674099922,,,741,1.284499943,-1.686699986,12.42489982
1.68301E+18,14.86348267,-0.655799985,-0.7676,2.375799894,,,1.106899977,-1.144599915,9.676499367,,,742,0.451099992,-1.912199914,12.05229926
1.68301E+18,14.88348267,-0.6523,-0.92719996,0.577199996,,,1.142699957,-1.073300004,9.680500031,,,743,0.490399957,-2.000499964,10.25770003
1.68301E+18,14.90348267,-0.343400002,-1.285699964,-0.593100011,,,1.19659996,-0.979499996,9.683899879,,,744,0.853199959,-2.265199959,9.090799868
1.68301E+18,14.92348267,-0.472499996,-1.444499969,-1.713400006,,,1.247200012,-0.889400005,9.686200142,,,745,0.774700016,-2.333899975,7.972800136
1.68301E+18,14.94348267,-0.722499967,-1.46359992,-2.547999859,,,1.291299939,-0.811399996,9.687299728,,,746,0.568799973,-2.274999917,7.13929987
1.68301E+18,14.96348267,-0.758599997,-1.272799969,-2.843099833,,,1.317600012,-0.757099986,9.688099861,,,747,0.559000015,-2.029899955,6.845000029
1.68301E+18,14.98348267,-0.688699961,-1.014899969,-2.667399883,,,1.326099992,-0.730599999,9.68900013,,,748,0.637400031,-1.745499969,7.021600246
1.68301E+18,15.00348267,-0.497399986,-0.750099957,-2.549799919,,,1.33099997,-0.720799983,9.689099312,,,749,0.833599985,-1.47089994,7.139299393
1.68301E+18,15.02348267,-0.333099991,-0.524599969,-2.392599821,,,1.333299994,-0.720699966,9.688799858,,,750,1.000200003,-1.245299935,7.296200037
1.68301E+18,15.04348267,-0.287099987,-0.290800005,-2.381799936,,,1.336399913,-0.728899956,9.687699318,,,751,1.049299926,-1.019699961,7.305899382
1.68301E+18,15.06348267,-0.168799996,0.0218,-1.927999973,,,1.345600009,-0.747500002,9.684999466,,,752,1.176800013,-0.725700002,7.756999493
1.68301E+18,15.08348267,-0.214599997,0.290399998,-1.218400002,,,1.352199912,-0.780699968,9.681499481,,,753,1.137599915,-0.49029997,8.46309948
1.68301E+18,15.10348267,-0.471599996,0.51789999,-0.950699985,,,1.354200006,-0.812099993,9.678599358,,,754,0.882600009,-0.294200003,8.727899373
1.68301E+18,15.12348267,-0.605300009,0.728399992,-0.977199972,,,1.360399961,-0.836199999,9.675700188,,,755,0.755099952,-0.107800007,8.698500216
1.68301E+18,15.14348267,-0.697999954,0.881599963,-1.081699967,,,1.37469995,-0.852199972,9.672299385,,,756,0.676699996,0.029399991,8.590599418
1.68301E+18,15.16348267,-0.808399975,1.020599961,-0.959800005,,,1.396799922,-0.863699973,9.668099403,,,757,0.588399947,0.156899989,8.708299398
1.68301E+18,15.18348267,-0.961799979,0.988599956,-0.564499974,,,1.412899971,-0.870899975,9.665100098,,,758,0.451099992,0.117699981,9.100600123
1.68301E+18,15.20348267,-0.864099979,0.95419997,0.055099998,,,1.423099995,-0.875799954,9.663199425,,,759,0.559000015,0.078400016,9.718299422
1.68301E+18,15.2234856,-0.469699979,1.029199958,0.645199955,,,1.430699944,-0.882099986,9.661499977,,,760,0.960999966,0.147099972,10.30669993
1.68301E+18,15.24348267,-0.056499999,1.097299933,1.451499939,,,1.439199924,-0.891299963,9.659399986,,,761,1.382699925,0.20599997,11.11089993
1.68301E+18,15.26348267,0.260399997,1.058200002,2.335999966,,,1.445799947,-0.901299953,9.657499313,,,762,1.706199944,0.156900048,11.99349928
1.68301E+18,15.28348267,0.194699988,0.904100001,3.043299913,,,1.452700019,-0.904100001,9.656199455,,,763,1.647400007,0,12.69949937
1.68301E+18,15.30348267,0.0243,0.388899982,3.299000025,,,1.466199994,-0.889099956,9.655499458,,,764,1.490499994,-0.500199974,12.95449948
1.68301E+18,15.32348413,0.0546,-0.293500006,3.358999968,,,1.494799972,-0.853799999,9.654299736,,,765,1.549399972,-1.147300005,13.0132997
1.68301E+18,15.34348267,0.363599986,-0.618699968,3.410699844,,,1.528999925,-0.822799981,9.65170002,,,766,1.89259991,-1.441499949,13.06239986
1.68301E+18,15.36348413,0.463999987,-0.461499989,3.151000023,,,1.565799952,-0.813299954,9.646499634,,,767,2.029799938,-1.274799943,12.79749966
1.68301E+18,15.38348267,0.300199986,-0.104800001,2.420199871,,,1.592399955,-0.816899955,9.641900063,,,768,1.89259994,-0.921699956,12.06209993
1.68301E+18,15.40348267,0.044999998,-0.138999999,0.934099972,,,1.622099996,-0.812099993,9.637399673,,,769,1.667099994,-0.951099992,10.57149965
1.68301E+18,15.42348267,0.0458,-0.808200002,0.514699996,,,1.650599957,-0.780399978,9.635099411,,,770,1.696399957,-1.58859998,10.14979941
1.68301E+18,15.44348267,0.407099992,-1.41689992,1.759699941,,,1.661999941,-0.750199974,9.63560009,,,771,2.069099933,-2.167099893,11.39530003
1.68301E+18,15.4634856,0.221499994,-1.474699974,2.98300004,,,1.651499987,-0.74149996,9.637999535,,,772,1.872999981,-2.216199934,12.62099957
1.68301E+18,15.48348267,-0.263199985,-1.494499922,2.770400047,,,1.616499901,-0.73149997,9.64470005,,,773,1.353299916,-2.225999892,12.4151001
1.68301E+18,15.50348267,-0.225299999,-1.606699944,0.685099959,,,1.598199964,-0.687999964,9.651000023,,,774,1.372899964,-2.294699907,10.33609998
1.68301E+18,15.52348267,0.181999996,-1.797699928,-1.372799993,,,1.632200003,-0.624499977,9.649600029,,,775,1.814199999,-2.422199905,8.276800036
1.68301E+18,15.54348267,0.298099995,-1.897199988,-2.562000036,,,1.692499995,-0.574000001,9.642399788,,,776,1.99059999,-2.471199989,7.080399752
1.68301E+18,15.56348267,-0.41169998,-1.907899976,-2.96969986,,,1.725799918,-0.54369998,9.638199806,,,777,1.314099938,-2.451599956,6.668499947
1.68301E+18,15.58348267,-1.206499934,-1.682699919,-2.639699936,,,1.706599951,-0.543299973,9.641699791,,,778,0.500100017,-2.225999892,7.001999855
1.68301E+18,15.60348267,-1.187699914,-1.22089994,-2.232800007,,,1.668299913,-0.573599994,9.64659977,,,779,0.480599999,-1.794499934,7.413799763
1.68301E+18,15.62348267,-0.68599999,-0.775299966,-2.194499969,,,1.647099972,-0.6171,9.647600174,,,780,0.961099982,-1.392399967,7.453100204
1.68301E+18,15.64348267,-0.225799993,-0.537699997,-2.39929986,,,1.637899995,-0.658599973,9.646399498,,,781,1.412100002,-1.19629997,7.247099638
1.68301E+18,15.6634856,-0.052099999,-0.481699973,-2.242599964,,,1.621199965,-0.694999993,9.646699905,,,782,1.569099966,-1.176699966,7.404099941
1.68301E+18,15.68348413,-0.144699991,-0.353300005,-1.871199965,,,1.595999956,-0.735199988,9.647899628,,,783,1.451299965,-1.088499993,7.776699662
1.68301E+18,15.70348267,-0.125399992,-0.1215,-1.244799972,,,1.566999912,-0.780599952,9.64909935,,,784,1.44159992,-0.902099952,8.404299378
1.68301E+18,15.72348267,-0.0084,0.101799995,-0.823799968,,,1.538199902,-0.827499986,9.649799347,,,785,1.529799902,-0.725699991,8.825999379
1.68301E+18,15.74348267,0.126900002,0.336899996,-0.756099999,,,1.510699987,-0.866400003,9.650699615,,,786,1.63759999,-0.529500008,8.894599617
1.68301E+18,15.76348267,0.330599993,0.535600007,-0.649500012,,,1.48360002,-0.898399949,9.651999474,,,787,1.814200014,-0.362799942,9.002499461
1.68301E+18,15.78348267,0.433399975,0.791599989,-0.434599996,,,1.459199905,-0.928900003,9.652799606,,,788,1.892599881,-0.137300014,9.218199611
1.68301E+18,15.80348267,0.468599975,0.946500003,-0.023799999,,,1.433799982,-0.956299961,9.653999329,,,789,1.902399957,-0.009799957,9.63019933
1.68301E+18,15.82348267,0.634299994,0.951199949,0.631399989,,,1.405300021,-0.980599999,9.65569973,,,790,2.039600015,-0.029400051,10.28709972
1.68301E+18,15.84349023,0.869300008,0.863499999,1.286299944,,,1.376299977,-1.000800014,9.657799721,,,791,2.245599985,-0.137300014,10.94409966
1.68301E+18,15.86348267,1.151199937,0.791999996,1.921700001,,,1.349399924,-1.01759994,9.659899712,,,792,2.500599861,-0.225599945,11.58159971
1.68301E+18,15.88348267,1.297399998,0.757699966,2.331199884,,,1.320899963,-1.032299995,9.662199974,,,793,2.618299961,-0.274600029,11.99339986
1.68301E+18,15.90348267,1.197000027,0.829999983,2.163599968,,,1.303499937,-1.045699954,9.663099289,,,794,2.500499964,-0.215699971,11.82669926
1.68301E+18,15.92348267,0.896299958,0.466099977,2.517099857,,,1.300300002,-1.054499984,9.662599564,,,795,2.19659996,-0.588400006,12.17969942
1.68301E+18,15.94348267,0.726499975,0.040100001,4.124899864,,,1.283800006,-1.069800019,9.663199425,,,796,2.010299981,-1.029700018,13.78809929
1.68301E+18,15.96348267,0.603899956,0.176399991,4.496099949,,,1.239599943,-1.107999921,9.664599419,,,797,1.843499899,-0.93159993,14.16069937
1.68301E+18,15.98348267,0.550999999,0.390799999,3.573099852,,,1.204299927,-1.136199951,9.665800095,,,798,1.755299926,-0.745399952,13.23889995
1.68301E+18,16.00348267,0.925399959,0.684300005,1.493699908,,,1.192700028,-1.145200014,9.666199684,,,799,2.118099988,-0.460900009,11.15989959
1.68301E+18,16.02348267,0.862399995,0.720200002,-1.221199989,,,1.226300001,-1.122200012,9.664699554,,,800,2.088699996,-0.40200001,8.443499565
1.68301E+18,16.04348267,0.620799959,0.130199999,-1.640100002,,,1.291399956,-1.071699977,9.661899567,,,801,1.912199914,-0.941499978,8.021799564
1.68301E+18,16.06348267,-0.0285,-0.488199979,-0.246299997,,,1.332799911,-1.031700015,9.660699844,,,802,1.304299911,-1.519899994,9.414399847
1.68301E+18,16.08348267,-1.135200024,-0.859799981,1.261999965,,,1.341199994,-1.003399968,9.662499428,,,803,0.20599997,-1.863199949,10.92449939
1.68301E+18,16.10348267,-1.747799993,-1.116599917,1.76669991,,,1.326099992,-0.972199976,9.66779995,,,804,-0.421700001,-2.088799894,11.43449986
1.68301E+18,16.12348267,-1.316900015,-1.373600006,0.680799961,,,1.316900015,-0.911300004,9.674900055,,,805,0,-2.28490001,10.35570002
1.68301E+18,16.14348413,-0.269699991,-1.650399923,-0.528299987,,,1.348399997,-0.830599964,9.677899361,,,806,1.078700006,-2.480999887,9.149599373
1.68301E+18,16.1634856,0.566900015,-1.682299972,-1.505399942,,,1.413999915,-0.75940001,9.674399376,,,807,1.98089993,-2.441699982,8.168999434
1.68301E+18,16.18348267,0.535399973,-1.709599972,-2.020400047,,,1.474799991,-0.702799976,9.669499397,,,808,2.010199964,-2.412399948,7.64909935
1.68301E+18,16.20348267,0.115699999,-1.681199908,-2.174399853,,,1.512099981,-0.662400007,9.666600227,,,809,1.62779998,-2.343599916,7.492200375
1.68301E+18,16.22348267,-0.319399983,-1.430799961,-2.299799919,,,1.535399914,-0.638300002,9.664599419,,,810,1.215999931,-2.069099963,7.3647995
1.68301E+18,16.24348267,-0.59009999,-1.151600003,-2.17840004,,,1.56099999,-0.633099973,9.66079998,,,811,0.970899999,-1.784699976,7.48239994
1.68301E+18,16.26348267,-0.513799965,-0.757699966,-2.142999887,,,1.592599988,-0.644499958,9.654899597,,,812,1.078800023,-1.402199924,7.51189971
1.68301E+18,16.28348267,-0.573599994,-0.456699997,-2.216899872,,,1.613099933,-0.661199987,9.650400162,,,813,1.039499938,-1.117899984,7.43350029
1.68301E+18,16.30348267,-0.752399981,-0.149399996,-1.910999894,,,1.615399957,-0.684099972,9.648399353,,,814,0.862999976,-0.833499968,7.737399459
1.68301E+18,16.32348267,-0.789299965,0.081299998,-1.537799954,,,1.603199959,-0.718699992,9.647899628,,,815,0.813899994,-0.637399994,8.110099673
1.68301E+18,16.34348267,-0.563499987,0.318399996,-1.300999999,,,1.593199968,-0.7597,9.646399498,,,816,1.029699981,-0.441300005,8.345399499
1.68301E+18,16.36348413,-0.377499998,0.578099966,-1.287599921,,,1.593500018,-0.80369997,9.642799377,,,817,1.216000021,-0.225600004,8.355199456
1.68301E+18,16.38348267,-0.334800005,0.827499986,-1.390699983,,,1.599900007,-0.84709996,9.63809967,,,818,1.265100002,-0.019599974,8.247399688
1.68301E+18,16.40348267,-0.357799977,1.058899999,-1.327199936,,,1.603199959,-0.892199993,9.633399963,,,819,1.245399982,0.166700006,8.306200027
1.68301E+18,16.42348267,-0.414599985,1.344200015,-0.989299953,,,1.601199985,-0.942200005,9.62899971,,,820,1.1866,0.40200001,8.639699757
1.68301E+18,16.44348267,-0.449999988,1.654599905,-0.258699983,,,1.59739995,-0.997500002,9.623999596,,,821,1.147399962,0.657099903,9.365299612
1.68301E+18,16.46348267,-0.496999979,1.82099998,0.912499964,,,1.585500002,-1.056100011,9.619799614,,,822,1.088500023,0.764899969,10.53229958
1.68301E+18,16.48348267,-0.497099996,2.014699936,1.974799991,,,1.565999985,-1.112499952,9.616600037,,,823,1.068899989,0.902199984,11.59140003
1.68301E+18,16.50348267,-0.399099976,2.018499851,3.03579998,,,1.546499968,-1.155499935,9.614699364,,,824,1.147399992,0.862999916,12.65049934
1.68301E+18,16.52348267,-0.279799998,1.786000013,3.870199919,,,1.534999967,-1.177999973,9.613800049,,,825,1.255199969,0.60800004,13.48399997
1.68301E+18,16.54348267,-0.057499997,1.430699944,3.763000011,,,1.548099995,-1.166000009,9.613200188,,,826,1.490599997,0.264699936,13.3762002
1.68301E+18,16.56348267,0.173799992,0.63409996,3.40109992,,,1.591300011,-1.11469996,9.612199783,,,827,1.765100002,-0.480599999,13.0132997
1.68301E+18,16.58348267,0.645299971,-0.025999999,3.892599821,,,1.639599919,-1.052600026,9.611100197,,,828,2.28489989,-1.078600025,13.50370002
1.68301E+18,16.60348413,0.810499966,-0.229299992,4.150599957,,,1.680299997,-1.016000032,9.607999802,,,829,2.490799963,-1.245300025,13.75859976
1.68301E+18,16.62348413,0.59920001,-0.138999999,3.290899992,,,1.715099931,-0.988699973,9.604700089,,,830,2.314299941,-1.127699971,12.89560008
1.68301E+18,16.64348267,0.1831,-0.23269999,0.852499962,,,1.758599997,-0.944000006,9.601299286,,,831,1.941699997,-1.176699996,10.45379925
1.68301E+18,16.66348267,0.0255,-1.156000018,-0.605099976,,,1.817999959,-0.864099979,9.597799301,,,832,1.843499959,-2.020099998,8.992699325
1.68301E+18,16.68348267,0.447399974,-2.205499887,0.5625,,,1.85710001,-0.785399973,9.597099304,,,833,2.304499984,-2.990899861,10.1595993
1.68301E+18,16.70348267,0.611999989,-2.416599989,3.116699934,,,1.83949995,-0.760599971,9.602399826,,,834,2.451499939,-3.17719996,12.71909976
1.68301E+18,16.72348267,-0.017899999,-2.085700035,3.470299959,,,1.783100009,-0.777700007,9.611700058,,,835,1.76520001,-2.863400042,13.08200002
1.68301E+18,16.74348267,-0.236499995,-1.913999915,1.148100019,,,1.746699929,-0.763199985,9.619599342,,,836,1.510199934,-2.6771999,10.76769936
1.68301E+18,16.76348267,0.325299978,-2.125699997,-1.264299989,,,1.773199916,-0.698599994,9.619599342,,,837,2.098499894,-2.824299991,8.355299354
1.68301E+18,16.78348267,0.510699987,-2.270599842,-2.608500004,,,1.842799902,-0.641799986,9.610499382,,,838,2.353499889,-2.912399828,7.001999378
1.68301E+18,16.80348267,-0.052299999,-2.261399984,-3.296399832,,,1.895999908,-0.611799955,9.602099419,,,839,1.84369991,-2.87319994,6.305699587
1.68301E+18,16.82348267,-0.854099989,-1.883899927,-3.176999807,,,1.903399944,-0.616699994,9.600299835,,,840,1.049299955,-2.500599921,6.423300028
1.68301E+18,16.84348267,-1.112100005,-1.312299967,-2.738099813,,,1.876999974,-0.658699989,9.602700233,,,841,0.764899969,-1.970999956,6.86460042
1.68301E+18,16.86348267,-0.989199996,-0.738200009,-2.375399828,,,1.852199912,-0.722899973,9.602899551,,,842,0.862999916,-1.461099982,7.227499723
1.68301E+18,16.88348267,-0.74059999,-0.342700005,-2.107499838,,,1.83889997,-0.794799984,9.59980011,,,843,1.09829998,-1.137499988,7.492300272
1.68301E+18,16.90348267,-0.597000003,-0.057799999,-1.898699999,,,1.822899938,-0.863900006,9.596899986,,,844,1.225899935,-0.921700004,7.698199987
1.68301E+18,16.92348267,-0.443699986,0.091499999,-1.574199915,,,1.796999931,-0.925099969,9.595999718,,,845,1.353299946,-0.83359997,8.021799803
1.68301E+18,16.94348267,-0.205599993,0.177499995,-1.074399948,,,1.764799953,-0.981599987,9.596399307,,,846,1.559199959,-0.804099992,8.521999359
1.68301E+18,16.96348267,0.118799999,0.266900003,-0.74119997,,,1.734599948,-1.031899929,9.596599579,,,847,1.853399947,-0.764999926,8.855399609
1.68301E+18,16.98348267,0.415899992,0.384000003,-0.809699953,,,1.712000012,-1.070500016,9.596499443,,,848,2.127900004,-0.686500013,8.78679949
