time,seconds_elapsed,z,y,x
1683009537134399700,0.041399658203125,-0.20389999449253082,-0.07989999651908875,-0.9659000039100647
1683009537154406000,0.061406005859375,-0.20389999449253082,-0.07989999651908875,-0.9659000039100647
1683009537174399700,0.081399658203125,0.019299998879432678,-0.011899999342858791,0.1462000012397766
1683009537194399700,0.101399658203125,0.00039999998989515007,0.006899999920278788,0.1460999995470047
1683009537214399700,0.121399658203125,-0.04559999704360962,-0.1454000025987625,0.2833999991416931
1683009537234399700,0.141399658203125,0.07530000060796738,-0.05249999836087227,0.11789999902248383
1683009537254399700,0.161399658203125,-0.008299999870359898,0.02419999986886978,0.004799999762326479
1683009537274399700,0.181399658203125,-0.2369999885559082,0.05179999768733978,-0.012899999506771564
1683009537294399700,0.201399658203125,-0.16449999809265137,0.010699999518692493,0.23029999434947968
1683009537314399700,0.221399658203125,0.013199999928474426,-0.02759999968111515,0.23019999265670776
1683009537334399700,0.241399658203125,-0.0005999999702908099,-0.05959999933838844,0.29179999232292175
1683009537354399700,0.261399658203125,0.155799999833107,-0.024899998679757118,0.004999999888241291
1683009537374399700,0.281399658203125,-0.044099997729063034,0.0471000000834465,-0.31540000438690186
1683009537394399700,0.301399658203125,-0.16920000314712524,0.2069999873638153,-0.46320000290870667
1683009537414399700,0.321399658203125,-0.16979999840259552,0.12439999729394913,-0.2705000042915344
1683009537434399700,0.341399658203125,-0.20739999413490295,0.12520000338554382,0.07880000025033951
1683009537454399700,0.361399658203125,-0.2532999813556671,0.09470000118017197,0.5615000128746033
1683009537474399700,0.381399658203125,-0.17090000212192535,0.36399999260902405,0.6757000088691711
1683009537494399700,0.401399658203125,0.18209999799728394,0.2760999798774719,0.3328000009059906
1683009537514399700,0.421399658203125,-0.10740000009536743,0.22119998931884766,-0.08819999545812607
1683009537534399700,0.441399658203125,-0.37439998984336853,0.20260000228881836,-0.2102999985218048
1683009537554399700,0.461399658203125,-0.14839999377727509,0.01529999915510416,0.22989998757839203
1683009537574399700,0.481399658203125,0.19979999959468842,-0.15689998865127563,0.9249999523162842
1683009537594399700,0.501399658203125,0.4544000029563904,-0.09759999811649323,1.1868000030517578
1683009537614399700,0.521399658203125,0.5726000070571899,0.10899999737739563,1.077299952507019
1683009537634399700,0.541399658203125,0.3748999834060669,0.31759998202323914,0.6164000034332275
1683009537654399700,0.561399658203125,-0.04649999737739563,0.36809998750686646,0.23249998688697815
1683009537674399700,0.581399658203125,-0.08289999514818192,0.12299999594688416,-0.18199999630451202
1683009537694399700,0.601399658203125,0.14229999482631683,-0.08999999612569809,-0.552899956703186
1683009537714399700,0.621399658203125,0.033299997448921204,-0.022199999541044235,-0.7960999608039856
1683009537734399700,0.641399658203125,0.029399998486042023,0.2377999871969223,-0.9325000047683716
1683009537754399700,0.661399658203125,0.16439999639987946,0.4081999957561493,-0.6083999872207642
1683009537774399700,0.681399658203125,0.13099999725818634,0.23979999125003815,-0.22689999639987946
1683009537794399700,0.701399658203125,0.12529999017715454,0.3384999930858612,0.027300000190734863
1683009537814399700,0.721399658203125,0.04149999842047691,0.5875999927520752,0.00699999975040555
1683009537834399700,0.741399658203125,-0.04039999842643738,0.620199978351593,0.0648999959230423
1683009537854399700,0.761399658203125,-0.11409999430179596,0.659500002861023,-0.004399999976158142
1683009537874399700,0.781399658203125,-0.04529999941587448,0.6657999753952026,-0.13079999387264252
1683009537894399700,0.801399658203125,-0.22869999706745148,0.6973999738693237,-0.36409997940063477
1683009537914399700,0.821399658203125,-0.5098999738693237,0.7929999828338623,-0.6586999893188477
1683009537934399700,0.841399658203125,-0.5324000120162964,1.1804999113082886,-0.6121999621391296
1683009537954399700,0.861399658203125,-0.5232999920845032,1.1871999502182007,-0.8503999710083008
1683009537974399700,0.881399658203125,-0.5400999784469604,0.7071999907493591,0.06719999760389328
1683009537994399700,0.901399658203125,-0.4253999888896942,0.35259997844696045,1.0340999364852905
1683009538014399700,0.921399658203125,-0.09049999713897705,0.4132999777793884,1.4567999839782715
1683009538034399700,0.941399658203125,0.16569998860359192,0.5577999949455261,1.6949999332427979
1683009538054399700,0.961399658203125,-0.009999999776482582,0.8233000040054321,1.6171000003814697
1683009538074399700,0.981399658203125,-0.13159999251365662,0.8003999590873718,1.2134000062942505
1683009538094399700,1.001399658203125,-0.06300000101327896,0.4649999737739563,1.0657999515533447
1683009538114399700,1.021399658203125,0.07759999483823776,-0.022299999371170998,1.1262999773025513
1683009538134399700,1.041399658203125,0.3455999791622162,-0.47200000286102295,1.4127999544143677
1683009538154399700,1.061399658203125,0.5934000015258789,-0.8150999546051025,2.149399995803833
1683009538174399700,1.081399658203125,0.6916999816894531,-1.2244999408721924,3.0713000297546387
1683009538194399700,1.101399658203125,0.9393999576568604,-1.4386999607086182,3.8737998008728027
1683009538214399700,1.121399658203125,1.383099913597107,-1.4255999326705933,4.508299827575684
1683009538234399700,1.141399658203125,1.5153999328613281,-1.4153000116348267,4.984499931335449
1683009538254399700,1.161399658203125,1.329699993133545,-0.7901999950408936,4.246699810028076
1683009538274399700,1.181399658203125,0.5566999912261963,-0.09269999712705612,2.2570998668670654
1683009538294399700,1.201399658203125,-0.18850000202655792,0.15549999475479126,-0.003399999812245369
1683009538314399700,1.221399658203125,-0.39629998803138733,-0.30410000681877136,-1.1039999723434448
1683009538334399700,1.241399658203125,-0.23919999599456787,-0.9498999714851379,-1.0119999647140503
1683009538354399700,1.261399658203125,0.08169999718666077,-1.1750999689102173,-0.20999999344348907
1683009538374399700,1.281399658203125,0.19709999859333038,-0.9810999631881714,0.5670999884605408
1683009538394399700,1.301399658203125,0.22609999775886536,-0.7037999629974365,0.5880999565124512
1683009538414399700,1.321399658203125,0.15240000188350677,-0.4016000032424927,-0.5946999788284302
1683009538434399700,1.341399658203125,-0.08410000056028366,-0.22049999237060547,-2.419800043106079
1683009538454399700,1.361399658203125,-0.4211999773979187,-0.17569999396800995,-3.7888998985290527
1683009538474399700,1.381399658203125,-0.555400013923645,-0.14489999413490295,-4.548399925231934
1683009538494399700,1.401399658203125,-0.6996999979019165,-0.009099999442696571,-4.791599750518799
1683009538514399700,1.421399658203125,-0.7757999897003174,0.15139999985694885,-4.762399673461914
1683009538534399700,1.441399658203125,-0.6392999887466431,0.28459998965263367,-4.233999729156494
1683009538554399700,1.461399658203125,-0.06749999523162842,0.24249999225139618,-3.1283998489379883
1683009538574399700,1.481399658203125,0.6753999590873718,0.08889999985694885,-1.4958999156951904
1683009538594399700,1.501399658203125,1.2170000076293945,0.050999999046325684,0.18320000171661377
1683009538614399700,1.521399658203125,1.3564000129699707,0.12529999017715454,1.3616999387741089
1683009538634399700,1.541399658203125,1.1754999160766602,0.07809999585151672,2.1382999420166016
1683009538654399700,1.561399658203125,0.9717999696731567,-0.10189999639987946,2.162099838256836
1683009538674399700,1.581399658203125,0.8066999912261963,-0.31709998846054077,1.6689000129699707
1683009538694399700,1.601399658203125,0.7787999510765076,-0.4602999985218048,0.9635999798774719
1683009538714402800,1.62140283203125,0.7846999764442444,-0.6236000061035156,0.6830999851226807
1683009538734399700,1.641399658203125,0.8476999998092651,-0.8197999596595764,0.8247999548912048
1683009538754399700,1.661399658203125,1.02839994430542,-1.0252000093460083,2.092399835586548
1683009538774401300,1.6814013671875,0.8064000010490417,-1.1864999532699585,4.287799835205078
1683009538794399700,1.701399658203125,0.3269999921321869,-1.0220999717712402,5.911799907684326
1683009538814399700,1.721399658203125,-0.27320000529289246,-0.9861999750137329,6.105299949645996
1683009538834399700,1.741399658203125,-0.18869999051094055,-1.222499966621399,5.732100009918213
1683009538854399700,1.761399658203125,0.11869999766349792,-1.0338000059127808,4.877899646759033
1683009538874399700,1.781399658203125,-0.021800000220537186,-0.38269999623298645,2.7500998973846436
1683009538894399700,1.801399658203125,-0.5767999887466431,-0.07679999619722366,-0.02279999852180481
1683009538914401300,1.8214013671875,-0.832099974155426,-0.3658999800682068,-1.8140000104904175
1683009538934399700,1.841399658203125,-0.7389000058174133,-0.8845999836921692,-2.448499917984009
1683009538954399700,1.861399658203125,-0.5440999865531921,-1.2044999599456787,-2.4853999614715576
1683009538974399700,1.881399658203125,-0.17839999496936798,-1.3291999101638794,-2.062299966812134
1683009538994399700,1.901399658203125,0.003499999875202775,-1.267300009727478,-1.6110999584197998
1683009539014399700,1.921399658203125,0.0210999995470047,-1.0032999515533447,-1.513700008392334
1683009539034399700,1.941399658203125,-0.2547999918460846,-0.6952999830245972,-1.593400001525879
1683009539054401300,1.9614013671875,-0.6441999673843384,-0.38769999146461487,-1.9573999643325806
1683009539074399700,1.981399658203125,-0.901699960231781,-0.1581999957561493,-2.40910005569458
1683009539094399700,2.001399658203125,-0.8583999872207642,-0.05829999968409538,-2.6053998470306396
1683009539114399700,2.021399658203125,-0.774399995803833,0.12229999899864197,-2.3711998462677
1683009539134401300,2.0414013671875,-0.6018999814987183,0.36469998955726624,-2.0692999362945557
1683009539154399700,2.061399658203125,-0.5943999886512756,0.4138999879360199,-1.767199993133545
1683009539174399700,2.081399658203125,-0.4391999840736389,0.2449999898672104,-1.5138999223709106
1683009539194401300,2.1014013671875,-0.19919998943805695,0.012299999594688416,-1.2599999904632568
1683009539214399700,2.121399658203125,0.12269999831914902,-0.24879999458789825,-1.0346999168395996
1683009539234399700,2.141399658203125,0.3837999999523163,-0.469899982213974,-0.6915000081062317
1683009539254399700,2.161399658203125,0.36059999465942383,-0.5900999903678894,-0.24129998683929443
1683009539274401300,2.1814013671875,0.21729999780654907,-0.50409996509552,-0.3008999824523926
1683009539294399700,2.201399658203125,0.1589999943971634,-0.4227999746799469,-0.4575999975204468
1683009539314399700,2.221399658203125,0.2134999930858612,-0.3238999843597412,-0.3788999915122986
1683009539334399700,2.241399658203125,0.2280000001192093,-0.09589999914169312,-0.11329999566078186
1683009539354399700,2.261399658203125,0.10119999945163727,0.2175000011920929,0.21119999885559082
1683009539374399700,2.281399658203125,0.05920000001788139,0.49799999594688416,0.43789997696876526
1683009539394399700,2.301399658203125,-0.1581999957561493,0.5907999873161316,0.6164999604225159
1683009539414401300,2.3214013671875,-0.2597000002861023,0.4291999936103821,0.7963999509811401
1683009539434399700,2.341399658203125,-0.33559998869895935,0.09070000052452087,1.2615000009536743
1683009539454399700,2.361399658203125,-0.18539999425411224,-0.085999995470047,2.2976999282836914
1683009539474399700,2.381399658203125,0.17019999027252197,-0.47450000047683716,3.6947999000549316
1683009539494399700,2.401399658203125,0.2802000045776367,-0.1922999918460846,4.618000030517578
1683009539514399700,2.421399658203125,0.5982999801635742,-0.44599997997283936,4.6768999099731445
1683009539534399700,2.441399658203125,1.0471999645233154,-0.7057999968528748,4.531899929046631
1683009539554401300,2.4614013671875,1.1390999555587769,-0.944599986076355,4.0518999099731445
1683009539574399700,2.481399658203125,1.1093000173568726,-0.770799994468689,3.2585999965667725
1683009539594399700,2.501399658203125,0.41110000014305115,-0.4373999834060669,1.8193999528884888
1683009539614399700,2.521399658203125,-0.4416999816894531,-0.39319998025894165,-0.03929999843239784
1683009539634399700,2.541399658203125,-0.8346999883651733,-0.6541999578475952,-1.19159996509552
1683009539654399700,2.561399658203125,-0.6092000007629395,-0.8693999648094177,-1.0813000202178955
1683009539674399700,2.581399658203125,-0.1824999898672104,-0.8420999646186829,-0.4738999903202057
1683009539694401300,2.6014013671875,-0.06909999996423721,-0.7586999535560608,-0.14350000023841858
1683009539714401300,2.6214013671875,-0.20189999043941498,-0.6657999753952026,-0.3140999972820282
1683009539734399700,2.641399658203125,-0.34059998393058777,-0.4294999837875366,-0.8858999609947205
1683009539754399700,2.661399658203125,-0.46779999136924744,-0.28029999136924744,-1.7105998992919922
1683009539774401300,2.6814013671875,-0.5924000144004822,-0.25360000133514404,-2.3959999084472656
1683009539794399700,2.701399658203125,-0.5550000071525574,-0.23079998791217804,-2.8652000427246094
1683009539814399700,2.721399658203125,-0.3270999789237976,-0.09929999709129333,-3.129999876022339
1683009539834402800,2.74140283203125,-0.03199999779462814,0.10509999841451645,-3.3270998001098633
1683009539854399700,2.761399658203125,0.07809999585151672,0.17009998857975006,-3.37719988822937
1683009539874399700,2.781399658203125,-0.031199999153614044,0.08009999990463257,-3.0260000228881836
1683009539894399700,2.801399658203125,-0.10429999977350235,-0.07530000060796738,-2.3531999588012695
1683009539914401300,2.8214013671875,-0.10289999842643738,-0.22419999539852142,-1.3876999616622925
1683009539934399700,2.841399658203125,0.0348999984562397,-0.3552999794483185,-0.3247999846935272
1683009539954399700,2.861399658203125,0.3456999957561493,-0.3440999984741211,0.5727999806404114
1683009539974399700,2.881399658203125,0.36809998750686646,-0.2312999963760376,0.91239994764328
1683009539994399700,2.901399658203125,0.5328999757766724,-0.07369999587535858,0.9886999726295471
1683009540014399700,2.921399658203125,0.5209000110626221,0.006899999920278788,0.8499999642372131
1683009540034399700,2.941399658203125,0.4668999910354614,0.07079999893903732,0.48579999804496765
1683009540054401300,2.9614013671875,0.40699997544288635,0.12799999117851257,-0.23089998960494995
1683009540074399700,2.981399658203125,0.3716999888420105,0.18230000138282776,-0.7317000031471252
1683009540094399700,3.001399658203125,0.4781999886035919,0.17499999701976776,-0.849399983882904
1683009540114402800,3.02140283203125,0.5970999598503113,0.23829999566078186,-0.5546000003814697
1683009540134401300,3.0414013671875,0.6807999610900879,0.38769999146461487,0.21149998903274536
1683009540154399700,3.061399658203125,0.9106999635696411,0.3806999921798706,1.3622000217437744
1683009540174399700,3.081399658203125,1.2128000259399414,0.14249999821186066,2.6836998462677
1683009540194399700,3.101399658203125,1.3009999990463257,0.20709998905658722,3.0319998264312744
1683009540214399700,3.121399658203125,1.5260999202728271,-0.21289999783039093,2.9240000247955322
1683009540234399700,3.141399658203125,1.1942999362945557,0.4724999964237213,3.7746999263763428
1683009540254399700,3.161399658203125,0.3019999861717224,-0.3361999988555908,4.161200046539307
1683009540274399700,3.181399658203125,0.013700000010430813,-0.6638999581336975,4.523099899291992
1683009540294399700,3.201399658203125,0.26819998025894165,-0.6548999547958374,5.202300071716309
1683009540314399700,3.221399658203125,0.1444000005722046,-0.42890000343322754,4.844399929046631
1683009540334399700,3.241399658203125,-0.17229999601840973,-0.15410000085830688,2.9296000003814697
1683009540354399700,3.261399658203125,-0.5837000012397766,-0.08829999715089798,0.4066999852657318
1683009540374399700,3.281399658203125,-0.6398000121116638,-0.36879998445510864,-1.5175999402999878
1683009540394399700,3.301399658203125,-0.32850000262260437,-0.9311999678611755,-2.2261998653411865
1683009540414399700,3.321399658203125,0.25189998745918274,-0.9906999468803406,-1.8566999435424805
1683009540434399700,3.341399658203125,0.5800999999046326,-0.6455999612808228,-1.1835999488830566
1683009540454399700,3.361399658203125,0.6211000084877014,-0.49449998140335083,-0.6087999939918518
1683009540474399700,3.381399658203125,0.33899998664855957,-0.38519999384880066,-0.640999972820282
1683009540494399700,3.401399658203125,0.07840000092983246,-0.4554999768733978,-0.9365999698638916
1683009540514399700,3.421399658203125,-0.4309999942779541,-0.38359999656677246,-1.7303999662399292
1683009540534399700,3.441399658203125,-0.8734999895095825,-0.2459999918937683,-2.464099884033203
1683009540554399700,3.461399658203125,-1.1014000177383423,-0.08259999752044678,-2.961400032043457
1683009540574399700,3.481399658203125,-1.1876999139785767,0.056299999356269836,-3.223599910736084
1683009540594399700,3.501399658203125,-1.0363999605178833,0.11109999567270279,-2.819999933242798
1683009540614399700,3.521399658203125,-0.7912999987602234,0.210099995136261,-2.34909987449646
1683009540634399700,3.541399658203125,-0.4096999764442444,0.23649999499320984,-1.6719999313354492
1683009540654399700,3.561399658203125,-0.21359999477863312,0.16269999742507935,-0.6232999563217163
1683009540674399700,3.581399658203125,-0.003999999724328518,0.18029999732971191,0.3061999976634979
1683009540694399700,3.601399658203125,0.03659999743103981,0.19429999589920044,0.7749999761581421
1683009540714399700,3.621399658203125,-0.10319999605417252,0.2043999880552292,0.6074999570846558
1683009540734399700,3.641399658203125,-0.16269999742507935,0.13859999179840088,0.21679998934268951
1683009540754399700,3.661399658203125,-0.03739999979734421,0.05419999733567238,-0.4170999825000763
1683009540774399700,3.681399658203125,0.26100000739097595,-0.07029999792575836,-0.913100004196167
1683009540794399700,3.701399658203125,0.4204999804496765,-0.13120000064373016,-0.9585999846458435
1683009540814399700,3.721399658203125,0.2134999930858612,-0.11299999803304672,-0.7701999545097351
1683009540834399700,3.741399658203125,0.012299999594688416,-0.013700000010430813,-0.2890999913215637
1683009540854399700,3.761399658203125,-0.1589999943971634,0.10579999536275864,0.34769999980926514
1683009540874399700,3.781399658203125,-0.20349998772144318,0.36789998412132263,1.073099970817566
1683009540894399700,3.801399658203125,-0.385699987411499,0.5306999683380127,1.6993999481201172
1683009540914399700,3.821399658203125,-0.7608999609947205,0.3231000006198883,2.6675000190734863
1683009540934399700,3.841399658203125,-0.8418999910354614,0.25509998202323914,3.5257999897003174
1683009540954399700,3.861399658203125,-0.7170000076293945,0.12099999934434891,3.472299814224243
1683009540974399700,3.881399658203125,0.09380000084638596,-0.4072999954223633,3.303999900817871
1683009540994399700,3.901399658203125,1.0396000146865845,-0.8797000050544739,3.7645998001098633
1683009541014399700,3.921399658203125,1.87909996509552,-0.882599949836731,4.234899997711182
1683009541034399700,3.941399658203125,1.17330002784729,-0.47749999165534973,3.755199909210205
1683009541054399700,3.961399658203125,0.032600000500679016,-0.21379999816417694,2.0037999153137207
1683009541074399700,3.981399658203125,-0.8648999929428101,-0.17440000176429749,-0.020600000396370888
1683009541094399700,4.001399658203125,-1.1368999481201172,-0.5090000033378601,-1.6344999074935913
1683009541114399700,4.021399658203125,-0.6348999738693237,-1.0196999311447144,-2.4047000408172607
1683009541134399700,4.041399658203125,0.21639999747276306,-1.3643999099731445,-1.587999939918518
1683009541154399700,4.061399658203125,0.8987999558448792,-1.2006999254226685,-0.28679999709129333
1683009541174399700,4.081399658203125,1.169700026512146,-0.8888999819755554,0.5019999742507935
1683009541194399700,4.101399658203125,0.974399983882904,-0.4959999918937683,0.5080999732017517
1683009541214399700,4.121399658203125,0.5026999711990356,-0.32109999656677246,-0.10099999606609344
1683009541234399700,4.141399658203125,0.04019999876618385,-0.343999981880188,-0.9432999491691589
1683009541254402800,4.16140283203125,-0.16619999706745148,-0.3805999755859375,-1.8228999376296997
1683009541274401300,4.1814013671875,-0.3473999798297882,-0.4107999801635742,-2.5254998207092285
1683009541294399700,4.201399658203125,-0.4341000020503998,-0.3823999762535095,-2.8471999168395996
1683009541314399700,4.221399658203125,-0.2735999822616577,-0.34880000352859497,-2.906399965286255
1683009541334399700,4.241399658203125,-0.08529999852180481,-0.32099997997283936,-2.58489990234375
1683009541354399700,4.261399658203125,0.17180000245571136,-0.2888000011444092,-1.9995999336242676
1683009541374399700,4.281399658203125,0.3360999822616577,-0.2043999880552292,-1.5019999742507935
1683009541394399700,4.301399658203125,0.3132999837398529,-0.15549999475479126,-0.8960999846458435
1683009541414401300,4.3214013671875,0.14459998905658722,-0.11620000004768372,-0.38830000162124634
1683009541434399700,4.341399658203125,-0.05429999902844429,-0.09149999916553497,-0.24319998919963837
1683009541454399700,4.361399658203125,-0.01769999973475933,0.05119999870657921,-0.018699999898672104
1683009541474399700,4.381399658203125,0.1469999998807907,0.2712000012397766,0.3824999928474426
1683009541494399700,4.401399658203125,0.4016000032424927,0.6333999633789062,0.6270999908447266
1683009541514399700,4.421399658203125,0.3546999990940094,0.7511000037193298,0.5084999799728394
1683009541534399700,4.441399658203125,0.27889999747276306,0.7453999519348145,0.2921999990940094
1683009541554401300,4.4614013671875,0.29760000109672546,0.6678000092506409,0.42879998683929443
1683009541574399700,4.481399658203125,0.47829997539520264,0.5281999707221985,0.5460000038146973
1683009541594399700,4.501399658203125,0.6396999955177307,0.4957999885082245,0.8985999822616577
1683009541614399700,4.521399658203125,0.965399980545044,0.5155999660491943,1.8384000062942505
1683009541634401300,4.5414013671875,1.2060999870300293,0.6234999895095825,2.385699987411499
1683009541654399700,4.561399658203125,1.2387999296188354,0.7365999817848206,2.7368998527526855
1683009541674399700,4.581399658203125,1.104699969291687,0.6969000101089478,2.8729000091552734
1683009541694401300,4.6014013671875,0.7058999538421631,0.3547999858856201,2.784299850463867
1683009541714401300,4.6214013671875,0.42989999055862427,-0.1589999943971634,3.2939000129699707
1683009541734399700,4.641399658203125,0.24129998683929443,-0.47859999537467957,4.429999828338623
1683009541754399700,4.661399658203125,-0.021699998527765274,-0.4992999732494354,4.955999851226807
1683009541774401300,4.6814013671875,-0.5526999831199646,-0.3155999779701233,3.706899881362915
1683009541794399700,4.701399658203125,-0.675000011920929,-0.3294000029563904,1.4107999801635742
1683009541814399700,4.721399658203125,-0.6284999847412109,-0.5798999667167664,-0.9120000004768372
1683009541834399700,4.741399658203125,-0.47049999237060547,-0.9348999857902527,-2.7617998123168945
1683009541854399700,4.761399658203125,-0.1517999917268753,-1.2421000003814697,-3.2276999950408936
1683009541874399700,4.781399658203125,0.030299998819828033,-1.098699927330017,-2.392199993133545
1683009541894399700,4.801399658203125,-0.10759999603033066,-0.7301999926567078,-0.914199948310852
1683009541914401300,4.8214013671875,-0.3443000018596649,-0.4324999749660492,0.2184000015258789
1683009541934399700,4.841399658203125,-0.5936999917030334,-0.38259997963905334,0.6263999938964844
1683009541954399700,4.861399658203125,-0.7351999878883362,-0.5658999681472778,0.2719999849796295
1683009541974399700,4.881399658203125,-0.677899956703186,-0.873199999332428,-0.43230000138282776
1683009541994399700,4.901399658203125,-0.3344999849796295,-0.9690999984741211,-1.1136000156402588
1683009542014399700,4.921399658203125,-0.23399999737739563,-0.9609999656677246,-1.617799997329712
1683009542034399700,4.941399658203125,-0.35339999198913574,-0.755299985408783,-1.8599998950958252
1683009542054401300,4.9614013671875,-0.5363999605178833,-0.5530999898910522,-2.271899938583374
1683009542074399700,4.981399658203125,-0.640500009059906,-0.2621999979019165,-2.6260998249053955
1683009542094399700,5.001399658203125,-0.4738999903202057,-0.028999999165534973,-2.833099842071533
1683009542114399700,5.021399658203125,-0.13249999284744263,0.1014999970793724,-2.6861000061035156
1683009542134401300,5.0414013671875,0.1468999981880188,0.15369999408721924,-2.450399875640869
1683009542154399700,5.061399658203125,0.28839999437332153,0.23559999465942383,-1.9889999628067017
1683009542174399700,5.081399658203125,0.2903999984264374,0.3179999887943268,-1.2246999740600586
1683009542194399700,5.101399658203125,0.45889997482299805,0.41269999742507935,-0.5400999784469604
1683009542214401300,5.1214013671875,0.560699999332428,0.5210999846458435,-0.0908999964594841
1683009542234399700,5.141399658203125,0.5609999895095825,0.6184999942779541,0.1437000036239624
1683009542254399700,5.161399658203125,0.27570000290870667,0.6484000086784363,0.4477999806404114
1683009542274401300,5.1814013671875,-0.05089999735355377,0.6269999742507935,0.7030999660491943
1683009542294399700,5.201399658203125,-0.35029998421669006,0.6265000104904175,0.889799952507019
1683009542314399700,5.221399658203125,-0.5893999934196472,0.6381999850273132,0.6847999691963196
1683009542334399700,5.241399658203125,-0.48669999837875366,0.5187000036239624,0.6481999754905701
1683009542354399700,5.261399658203125,-0.3262999951839447,0.40869998931884766,0.9067999720573425
1683009542374399700,5.281399658203125,-0.20409999787807465,0.33649998903274536,1.4205999374389648
1683009542394399700,5.301399658203125,-0.3261999785900116,0.16699999570846558,2.8259999752044678
1683009542414401300,5.3214013671875,-0.4229999780654907,0.026799999177455902,4.180200099945068
1683009542434399700,5.341399658203125,-0.23600000143051147,-0.11379999667406082,3.984099864959717
1683009542454399700,5.361399658203125,-0.1881999969482422,-0.5345999598503113,3.2219998836517334
1683009542474399700,5.381399658203125,-0.20479999482631683,-1.0353000164031982,2.903899908065796
1683009542494399700,5.401399658203125,0.08540000021457672,-1.1697999238967896,3.2809998989105225
1683009542514399700,5.421399658203125,0.21159999072551727,-0.8690999746322632,3.3411998748779297
1683009542534399700,5.441399658203125,0.2483999878168106,-0.4090999960899353,2.2238998413085938
1683009542554401300,5.4614013671875,0.26330000162124634,-0.11299999803304672,0.3440999984741211
1683009542574401300,5.4814013671875,0.24199999868869781,-0.23099999129772186,-1.1294000148773193
1683009542594399700,5.501399658203125,0.3263999819755554,-0.4148999750614166,-1.1793999671936035
1683009542614399700,5.521399658203125,0.03909999877214432,-0.432699978351593,-0.7924000024795532
1683009542634399700,5.541399658203125,-0.23259998857975006,-0.18199999630451202,-0.32249999046325684
1683009542654399700,5.561399658203125,-0.430899977684021,0.08529999852180481,-0.07099999487400055
1683009542674399700,5.581399658203125,-0.3358999788761139,0.20250000059604645,0.06309999525547028
1683009542694401300,5.6014013671875,-0.053599998354911804,0.1256999969482422,-0.1621999889612198
1683009542714401300,5.6214013671875,0.22939999401569366,0.09529999643564224,-0.7093999981880188
1683009542734399700,5.641399658203125,0.4140999913215637,0.1590999960899353,-1.4025999307632446
1683009542754399700,5.661399658203125,0.28129997849464417,0.2515999972820282,-1.8990999460220337
1683009542774401300,5.6814013671875,0.0007999999797903001,0.21319998800754547,-2.307299852371216
1683009542794399700,5.701399658203125,-0.203699991106987,0.3206999897956848,-3.0204999446868896
1683009542814399700,5.721399658203125,-0.11379999667406082,0.6543999910354614,-3.350299835205078
1683009542834399700,5.741399658203125,-0.29809999465942383,1.1516000032424927,-2.9560999870300293
1683009542854399700,5.761399658203125,-0.6200999617576599,1.3357999324798584,-2.1631999015808105
1683009542874399700,5.781399658203125,-0.6193999648094177,1.2817000150680542,-1.2247999906539917
1683009542894399700,5.801399658203125,-0.675599992275238,0.8438000082969666,-0.6204000115394592
1683009542914401300,5.8214013671875,-0.2628999948501587,0.5159000158309937,0.14059999585151672
1683009542934399700,5.841399658203125,0.06300000101327896,-0.10729999840259552,0.37049999833106995
1683009542954399700,5.861399658203125,0.6410999894142151,-0.5615999698638916,0.06350000202655792
1683009542974399700,5.881399658203125,0.8836999535560608,-0.8784999847412109,-0.07599999755620956
1683009542994399700,5.901399658203125,0.6040999889373779,-1.1727999448776245,-0.19849999248981476
1683009543014399700,5.921399658203125,0.2700999975204468,-1.0715999603271484,-0.20629999041557312
1683009543034399700,5.941399658203125,0.1550000011920929,-0.7698999643325806,0.23709999024868011
1683009543054401300,5.9614013671875,0.03460000082850456,-0.436599999666214,1.0943999290466309
1683009543074401300,5.9814013671875,0.2556999921798706,-0.00930000003427267,1.9562000036239624
1683009543094399700,6.001399658203125,0.4412999749183655,0.20409999787807465,2.5463998317718506
1683009543114399700,6.021399658203125,0.9003999829292297,0.08399999886751175,3.498999834060669
1683009543134399700,6.041399658203125,1.1931999921798706,-0.06129999831318855,3.9400999546051025
1683009543154399700,6.061399658203125,1.1949999332427979,-0.2215999960899353,4.126399993896484
1683009543174399700,6.081399658203125,1.1155999898910522,-0.6024999618530273,4.342299938201904
1683009543194399700,6.101399658203125,1.2699999809265137,-0.8014000058174133,4.4604997634887695
1683009543214401300,6.1214013671875,1.2028999328613281,-0.8598999977111816,4.2256999015808105
1683009543234399700,6.141399658203125,0.793999969959259,-0.5442999601364136,3.276099920272827
1683009543254399700,6.161399658203125,0.16869999468326569,-0.1046999990940094,1.876599907875061
1683009543274401300,6.1814013671875,-0.5931000113487244,0.18209999799728394,0.2514999806880951
1683009543294399700,6.201399658203125,-1.1101000308990479,0.1899999976158142,-1.4534000158309937
1683009543314399700,6.221399658203125,-1.27839994430542,-0.06149999797344208,-2.6796998977661133
1683009543334399700,6.241399658203125,-0.9914999604225159,-0.298799991607666,-2.8483998775482178
1683009543354399700,6.261399658203125,-0.5816999673843384,-0.3771999776363373,-2.0866000652313232
1683009543374399700,6.281399658203125,-0.3051999807357788,-0.2624000012874603,-1.414099931716919
1683009543394399700,6.301399658203125,-0.12919999659061432,-0.04959999769926071,-0.946899950504303
1683009543414401300,6.3214013671875,-0.030799999833106995,0.04189999774098396,-0.7337999939918518
1683009543434399700,6.341399658203125,0.0050999997183680534,0.037699997425079346,-0.9501999616622925
1683009543454399700,6.361399658203125,-0.07769999653100967,0.01489999983459711,-1.410099983215332
1683009543474399700,6.381399658203125,-0.2597000002861023,-0.0722000002861023,-1.6541999578475952
1683009543494402800,6.40140283203125,-0.44759997725486755,-0.14059999585151672,-1.8102999925613403
1683009543514399700,6.421399658203125,-0.5235999822616577,-0.21779999136924744,-1.809899926185608
1683009543534399700,6.441399658203125,-0.5440999865531921,-0.26089999079704285,-1.809899926185608
1683009543554401300,6.4614013671875,-0.5264999866485596,-0.22919999063014984,-1.9078999757766724
1683009543574401300,6.4814013671875,-0.3852999806404114,-0.1388999968767166,-1.663100004196167
1683009543594399700,6.501399658203125,-0.2175000011920929,-0.02979999966919422,-1.4089999198913574
1683009543614399700,6.521399658203125,-0.08949999511241913,0.05719999969005585,-1.1644999980926514
1683009543634401300,6.5414013671875,-0.00839999970048666,0.149399995803833,-1.0575000047683716
1683009543654399700,6.561399658203125,-0.0794999971985817,0.2246999889612198,-0.8133999705314636
1683009543674399700,6.581399658203125,-0.21709999442100525,0.2902999818325043,-0.7263000011444092
1683009543694399700,6.601399658203125,-0.2927999794483185,0.4343999922275543,-0.6090999841690063
1683009543714401300,6.6214013671875,-0.36899998784065247,0.4773999750614166,-0.5310999751091003
1683009543734399700,6.641399658203125,-0.4047999978065491,0.5162999629974365,-0.4041999876499176
1683009543754399700,6.661399658203125,-0.17499999701976776,0.5760999917984009,-0.2093999981880188
1683009543774401300,6.6814013671875,0.08999999612569809,0.5497999787330627,0.19169999659061432
1683009543794399700,6.701399658203125,0.4664999842643738,0.5654999613761902,0.6628999710083008
1683009543814399700,6.721399658203125,0.8258000016212463,0.6944999694824219,1.1749999523162842
1683009543834399700,6.741399658203125,0.8364999890327454,0.9156999588012695,1.6584999561309814
1683009543854399700,6.761399658203125,0.5471000075340271,1.0824999809265137,2.062999963760376
1683009543874399700,6.781399658203125,0.30140000581741333,1.2280999422073364,2.1733999252319336
1683009543894399700,6.801399658203125,-0.06189999729394913,1.1826999187469482,2.204699993133545
1683009543914401300,6.8214013671875,-0.20019999146461487,0.9695999622344971,2.6171998977661133
1683009543934399700,6.841399658203125,0.09989999979734421,0.7797999978065491,3.057799816131592
1683009543954399700,6.861399658203125,0.4813999831676483,0.23109999299049377,3.781899929046631
1683009543974399700,6.881399658203125,0.988599956035614,-0.07019999623298645,4.9467997550964355
1683009543994399700,6.901399658203125,1.3071999549865723,0.04959999769926071,5.73859977722168
1683009544014402800,6.92140283203125,1.5230000019073486,0.6875,5.150000095367432
1683009544034402800,6.94140283203125,0.9355999827384949,0.972000002861023,2.740799903869629
1683009544054401300,6.9614013671875,0.18850000202655792,1.0180000066757202,0.10889999568462372
1683009544074401300,6.9814013671875,-0.67249995470047,0.6615999937057495,-1.323799967765808
1683009544094399700,7.001399658203125,-1.347000002861023,-0.14499999582767487,-1.4749000072479248
1683009544114399700,7.021399658203125,-1.2587000131607056,-0.49959999322891235,-1.3276000022888184
1683009544134401300,7.0414013671875,-0.4713999927043915,-0.494299978017807,-0.5480999946594238
1683009544154399700,7.061399658203125,0.7548999786376953,-0.4145999848842621,0.1501999944448471
1683009544174399700,7.081399658203125,1.6339999437332153,-0.471699982881546,0.14169999957084656
1683009544194399700,7.101399658203125,2.0876998901367188,-0.5375999808311462,-0.7373999953269958
1683009544214401300,7.1214013671875,1.980299949645996,-0.6105999946594238,-1.8579999208450317
1683009544234399700,7.141399658203125,1.5709999799728394,-0.6482999920845032,-2.769399881362915
1683009544254399700,7.161399658203125,1.000999927520752,-0.592799961566925,-3.3269999027252197
1683009544274401300,7.1814013671875,0.5845000147819519,-0.45159998536109924,-3.6895999908447266
1683009544294399700,7.201399658203125,0.27950000762939453,-0.2662000060081482,-3.8086998462677
1683009544314399700,7.221399658203125,0.13679999113082886,-0.09039999544620514,-3.585599899291992
1683009544334399700,7.241399658203125,0.15969999134540558,0.09730000048875809,-3.0195000171661377
1683009544354399700,7.261399658203125,0.2556999921798706,0.24569998681545258,-2.149199962615967
1683009544374399700,7.281399658203125,0.3463999927043915,0.2903999984264374,-1.1512999534606934
1683009544394399700,7.301399658203125,0.49069997668266296,0.412200003862381,-0.14389999210834503
1683009544414401300,7.3214013671875,0.7466999888420105,0.5701000094413757,0.755299985408783
1683009544434399700,7.341399658203125,0.9539999961853027,0.805899977684021,0.9782999753952026
1683009544454399700,7.361399658203125,1.069700002670288,0.7940999865531921,0.5252000093460083
1683009544474399700,7.381399658203125,1.2960000038146973,0.6420999765396118,0.1704999953508377
1683009544494399700,7.401399658203125,1.6524999141693115,0.46609997749328613,-0.13529999554157257
1683009544514399700,7.421399658203125,1.9864000082015991,0.3594000041484833,-0.4307999908924103
1683009544534399700,7.441399658203125,2.020699977874756,0.3950999975204468,-0.7261999845504761
1683009544554401300,7.4614013671875,2.027099847793579,0.5203999876976013,-0.5801999568939209
1683009544574399700,7.481399658203125,1.9844999313354492,0.6466000080108643,-0.12999999523162842
1683009544594399700,7.501399658203125,1.9600999355316162,0.7369999885559082,0.14399999380111694
1683009544614399700,7.521399658203125,1.843400001525879,0.7968999743461609,0.5946999788284302
1683009544634401300,7.5414013671875,1.757099986076355,0.7057999968528748,1.1434999704360962
1683009544654399700,7.561399658203125,1.747499942779541,0.29109999537467957,1.858699917793274
1683009544674399700,7.581399658203125,1.8530999422073364,-0.43860000371932983,2.6912999153137207
1683009544694399700,7.601399658203125,1.9675999879837036,-0.9161999821662903,2.759199857711792
1683009544714401300,7.6214013671875,1.7980999946594238,-0.7080999612808228,1.50409996509552
1683009544734399700,7.641399658203125,1.3880999088287354,-0.3296000063419342,0.34860000014305115
1683009544754399700,7.661399658203125,0.8438999652862549,-0.002899999963119626,-0.16849999129772186
1683009544774401300,7.6814013671875,0.3937999904155731,0.46379998326301575,-0.4998999834060669
1683009544794399700,7.701399658203125,0.014999999664723873,0.670699954032898,-1.1651999950408936
1683009544814399700,7.721399658203125,-0.1605999916791916,0.42890000343322754,-1.399999976158142
1683009544834399700,7.741399658203125,0.1712999939918518,0.06059999763965607,-0.763700008392334
1683009544854399700,7.761399658203125,0.8118999600410461,-0.2760999798774719,0.5586999654769897
1683009544874399700,7.781399658203125,1.4226999282836914,-0.34950000047683716,1.8621000051498413
1683009544894399700,7.801399658203125,1.851699948310852,-0.30069997906684875,2.048099994659424
1683009544914401300,7.8214013671875,2.267199993133545,-0.18969999253749847,1.125999927520752
1683009544934401300,7.8414013671875,2.3093998432159424,-0.1607999950647354,0.2621999979019165
1683009544954399700,7.861399658203125,2.202899932861328,-0.1467999964952469,-0.2775999903678894
1683009544974399700,7.881399658203125,1.764699935913086,-0.10339999943971634,-0.4542999863624573
1683009544994399700,7.901399658203125,1.1180000305175781,-0.12359999865293503,-0.6994999647140503
1683009545014399700,7.921399658203125,0.75,-0.14339999854564667,-0.9838999509811401
1683009545034399700,7.941399658203125,0.9721999764442444,-0.1224999949336052,-1.0525000095367432
1683009545054401300,7.9614013671875,1.448199987411499,-0.07499999552965164,-0.7480999827384949
1683009545074399700,7.981399658203125,1.8609999418258667,0.03449999913573265,-0.42329999804496765
1683009545094399700,8.001399658203125,2.2139999866485596,0.3042999804019928,-0.08799999952316284
1683009545114399700,8.021399658203125,2.3526999950408936,0.48249998688697815,0.3164999783039093
1683009545134401300,8.0414013671875,2.3415000438690186,0.5669000148773193,0.3287999927997589
1683009545154399700,8.061399658203126,2.093899965286255,0.5084999799728394,0.15389999747276306
1683009545174399700,8.081399658203125,1.6327999830245972,0.4090999960899353,0.04699999839067459
1683009545194399700,8.101399658203125,1.2276999950408936,0.35019999742507935,-0.040699999779462814
1683009545214401300,8.1214013671875,0.9490999579429626,0.30789998173713684,-0.37439998984336853
1683009545234402800,8.14140283203125,0.9291999936103821,0.1419999897480011,-0.9050999879837036
1683009545254399700,8.161399658203125,0.9660999774932861,-0.06799999624490738,-1.319100022315979
1683009545274401300,8.1814013671875,0.913100004196167,-0.24210000038146973,-1.458799958229065
1683009545294399700,8.201399658203124,0.7813000082969666,-0.29170000553131104,-1.2645999193191528
1683009545314399700,8.221399658203126,0.7505999803543091,-0.24889999628067017,-0.7555999755859375
1683009545334399700,8.241399658203125,0.7728999853134155,-0.19789999723434448,-0.3831999897956848
1683009545354401300,8.2614013671875,0.8384000062942505,-0.18549999594688416,-0.4324999749660492
1683009545374399700,8.281399658203124,0.7975999712944031,-0.2694999873638153,-0.5313999652862549
1683009545394399700,8.301399658203126,0.7827000021934509,-0.1800999939441681,-0.15940000116825104
1683009545414401300,8.3214013671875,0.7437999844551086,-0.010300000198185444,0.5072000026702881
1683009545434399700,8.341399658203125,0.786799967288971,0.042799998074769974,1.2034000158309937
1683009545454399700,8.361399658203124,0.7835999727249146,-0.10949999839067459,1.5755999088287354
1683009545474399700,8.381399658203126,0.9817999601364136,-0.4414999783039093,2.13349986076355
1683009545494399700,8.401399658203125,1.3054999113082886,-0.8524999618530273,3.3680999279022217
1683009545514399700,8.421399658203125,1.5738999843597412,-0.8725999593734741,4.122499942779541
1683009545534399700,8.441399658203125,1.5961999893188477,-0.6259999871253967,3.700399875640869
1683009545554399700,8.461399658203124,1.5414999723434448,-0.5928999781608582,2.032599925994873
1683009545574399700,8.481399658203125,1.4574999809265137,-0.8867999911308289,0.14899998903274536
1683009545594399700,8.501399658203125,1.5845999717712402,-1.3361999988555908,-0.8219999670982361
1683009545614399700,8.521399658203125,1.4850000143051147,-1.7541999816894531,-0.7234999537467957
1683009545634399700,8.541399658203124,1.33079993724823,-1.7955999374389648,-0.07589999586343765
1683009545654399700,8.561399658203126,1.3071999549865723,-1.4053000211715698,-0.11509999632835388
1683009545674399700,8.581399658203125,1.59089994430542,-1.1983000040054321,-0.6441999673843384
1683009545694399700,8.601399658203125,1.9188998937606812,-1.2817000150680542,-0.9670999646186829
1683009545714399700,8.621399658203124,2.155099868774414,-1.3765000104904175,-0.9073999524116516
1683009545734399700,8.641399658203126,2.067499876022339,-1.3372999429702759,-0.4448999762535095
1683009545754399700,8.661399658203125,1.7146999835968018,-1.281499981880188,-0.1679999977350235
1683009545774401300,8.6814013671875,1.3418999910354614,-1.0989999771118164,-0.03799999877810478
1683009545794399700,8.701399658203124,1.0132999420166016,-0.9052000045776367,0.03309999778866768
1683009545814399700,8.721399658203126,0.8863999843597412,-0.725600004196167,0.19259999692440033
1683009545834399700,8.741399658203125,0.9223999977111816,-0.632099986076355,0.33249998092651367
1683009545854399700,8.761399658203125,1.0073999166488647,-0.5817999839782715,0.3244999945163727
1683009545874399700,8.781399658203124,1.1822999715805054,-0.5740999579429626,0.16869999468326569
1683009545894399700,8.801399658203126,1.386199951171875,-0.614799976348877,-0.07580000162124634
1683009545914401300,8.8214013671875,1.6168999671936035,-0.6525999903678894,-0.35019999742507935
1683009545934399700,8.841399658203125,1.6247999668121338,-0.620199978351593,-0.5460000038146973
1683009545954399700,8.861399658203124,1.4254999160766602,-0.4165000021457672,-0.4472000002861023
1683009545974399700,8.881399658203126,1.059000015258789,-0.262800008058548,-0.367499977350235
1683009545994399700,8.901399658203125,0.7942000031471252,-0.1136000007390976,-0.49390000104904175
1683009546014399700,8.921399658203125,0.7134000062942505,0.06830000132322311,-0.6308000087738037
1683009546034399700,8.941399658203125,0.9232999682426453,0.35029998421669006,-0.5810999870300293
1683009546054401300,8.9614013671875,1.2407000064849854,0.5875999927520752,-0.550599992275238
1683009546074401300,8.9814013671875,1.2310999631881714,0.6667999625205994,-0.6471999883651733
1683009546094399700,9.001399658203125,1.1502000093460083,0.6823999881744385,-0.7734999656677246
1683009546114399700,9.021399658203125,1.1323000192642212,0.682699978351593,-0.39010000228881836
1683009546134401300,9.0414013671875,1.1718000173568726,0.7825999855995178,0.2287999987602234
1683009546154402800,9.06140283203125,1.155900001525879,0.9536999464035034,0.6419999599456787
1683009546174402800,9.08140283203125,1.1864999532699585,1.1258000135421753,0.8693999648094177
1683009546194399700,9.101399658203125,1.1342999935150146,1.2304999828338623,0.8511999845504761
1683009546214401300,9.1214013671875,1.055299997329712,0.8782999515533447,0.8506999611854553
1683009546234399700,9.141399658203126,0.9819999933242798,0.5164999961853027,1.0543999671936035
1683009546254399700,9.161399658203125,1.056399941444397,0.24729999899864197,1.2878999710083008
1683009546274401300,9.1814013671875,1.1589999198913574,-0.06589999794960022,1.5120999813079834
1683009546294399700,9.201399658203124,1.4871000051498413,-0.3098999857902527,2.0212998390197754
1683009546314399700,9.221399658203126,1.8101999759674072,-0.45170000195503235,2.473299980163574
1683009546334399700,9.241399658203125,1.7269999980926514,-0.5737999677658081,2.789799928665161
1683009546354399700,9.261399658203125,1.5331999063491821,-0.8920999765396118,2.8230998516082764
1683009546374399700,9.281399658203124,1.1797000169754028,-1.093999981880188,2.867499828338623
1683009546394399700,9.301399658203126,0.5611000061035156,-1.1262999773025513,2.825199842453003
1683009546414401300,9.3214013671875,-0.14509999752044678,-1.0959999561309814,2.6854000091552734
1683009546434399700,9.341399658203125,-0.49379998445510864,-0.9041999578475952,1.622999906539917
1683009546454399700,9.361399658203124,-0.22029998898506165,-0.7537999749183655,0.2547000050544739
1683009546474399700,9.381399658203126,0.3739999830722809,-0.6997999548912048,-0.37939998507499695
1683009546494399700,9.401399658203125,0.9093999862670898,-0.5954999923706055,-0.022599998861551285
1683009546514399700,9.421399658203125,0.9756999611854553,-0.5331000089645386,0.4805999994277954
1683009546534399700,9.441399658203125,0.5674999952316284,-0.6697999835014343,0.8237999677658081
1683009546554401300,9.4614013671875,0.09239999949932098,-0.7142999768257141,0.8696999549865723
1683009546574401300,9.4814013671875,-0.13849999010562897,-0.7390999794006348,0.8448999524116516
1683009546594399700,9.501399658203125,-0.14549998939037323,-0.8908999562263489,0.49539998173713684
1683009546614399700,9.521399658203125,-0.13499999046325684,-1.136099934577942,-0.07149999588727951
1683009546634399700,9.541399658203124,-0.13750000298023224,-1.365899920463562,-0.8346999883651733
1683009546654399700,9.561399658203126,-0.19939999282360077,-1.438599944114685,-1.586899995803833
1683009546674399700,9.581399658203125,-0.22169999778270721,-1.4381999969482422,-1.7587000131607056
1683009546694399700,9.601399658203125,-0.2498999983072281,-1.45579993724823,-1.5464999675750732
1683009546714401300,9.6214013671875,-0.2563999891281128,-1.4585999250411987,-1.343400001525879
1683009546734399700,9.641399658203126,-0.3628000020980835,-1.305400013923645,-1.2379999160766602
1683009546754399700,9.661399658203125,-0.4822999835014343,-1.1309999227523804,-1.1026999950408936
1683009546774401300,9.6814013671875,-0.44759997725486755,-0.9296999573707581,-1.1139999628067017
1683009546794399700,9.701399658203124,-0.2638999819755554,-0.8669999837875366,-0.9679999947547913
1683009546814399700,9.721399658203126,0.045499999076128006,-0.9163999557495117,-0.8023999929428101
1683009546834399700,9.741399658203125,0.2538999915122986,-0.8488999605178833,-0.8816999793052673
1683009546854399700,9.761399658203125,0.26440000534057617,-0.6843999624252319,-1.2247999906539917
1683009546874399700,9.781399658203124,0.12559999525547028,-0.4421999752521515,-1.6353999376296997
1683009546894399700,9.801399658203126,-0.021199999377131462,-0.19919998943805695,-1.6043999195098877
1683009546914401300,9.8214013671875,-0.12969999015331268,0.015199999324977398,-1.1131999492645264
1683009546934399700,9.841399658203125,-0.31630000472068787,0.258899986743927,-0.8083999752998352
1683009546954399700,9.861399658203124,-0.5227999687194824,0.46469998359680176,-0.7585999965667725
1683009546974399700,9.881399658203126,-0.5956999659538269,0.7198999524116516,-0.600600004196167
1683009546994399700,9.901399658203125,-0.53329998254776,0.7684999704360962,-0.3149999976158142
1683009547014399700,9.921399658203125,-0.27959999442100525,0.7064999938011169,0.2158999890089035
1683009547034399700,9.941399658203125,-0.033900000154972076,0.5898999571800232,0.8554999828338623
1683009547054401300,9.9614013671875,0.25839999318122864,0.5091999769210815,1.476699948310852
1683009547074401300,9.9814013671875,0.5188999772071838,0.46469998359680176,2.3536999225616455
1683009547094399700,10.001399658203125,0.7250999808311462,0.21289999783039093,3.592599868774414
1683009547114399700,10.021399658203125,0.8373000025749207,0.28839999437332153,4.428100109100342
1683009547134401300,10.0414013671875,0.5568000078201294,0.5539000034332275,3.8511998653411865
1683009547154399700,10.061399658203126,0.3774999976158142,0.35999998450279236,2.345099925994873
1683009547174402800,10.08140283203125,0.3837999999523163,-0.32589998841285706,1.8788999319076538
1683009547194399700,10.101399658203125,0.6392999887466431,-0.7648999691009521,2.0869998931884766
1683009547214401300,10.1214013671875,0.6561999917030334,-0.7644000053405762,1.9993999004364014
1683009547234399700,10.141399658203126,0.6502000093460083,-0.6001999974250793,1.0781999826431274
1683009547254399700,10.161399658203125,0.6804999709129333,-0.6284999847412109,-0.15649999678134918
1683009547274399700,10.181399658203125,0.6284999847412109,-0.8414999842643738,-1.0367000102996826
1683009547294399700,10.201399658203124,0.6420999765396118,-1.0592999458312988,-1.3743000030517578
1683009547314399700,10.221399658203126,0.4779999852180481,-1.125599980354309,-1.3392000198364258
1683009547334399700,10.241399658203125,0.28439998626708984,-1.1191999912261963,-1.161199927330017
1683009547354399700,10.261399658203125,0.06629999727010727,-1.114799976348877,-0.9085999727249146
1683009547374399700,10.281399658203124,-0.11559999734163284,-1.136099934577942,-0.6676999926567078
1683009547394399700,10.301399658203126,-0.07119999825954437,-0.9926999807357788,-0.5932999849319458
1683009547414399700,10.321399658203125,0.17219999432563782,-0.8410999774932861,-0.801099956035614
1683009547434399700,10.341399658203125,0.3668999969959259,-0.7777999639511108,-1.320599913597107
1683009547454399700,10.361399658203124,0.5612999796867371,-0.7996000051498413,-1.8194999694824219
1683009547474399700,10.381399658203126,0.769599974155426,-0.8964999914169312,-1.9449999332427979
1683009547494399700,10.401399658203125,0.9660999774932861,-0.9070000052452087,-1.9818999767303467
1683009547514399700,10.421399658203125,1.0074999332427979,-0.8894000053405762,-1.8322999477386475
1683009547534399700,10.441399658203125,0.7520999908447266,-0.7033999562263489,-1.6734999418258667
1683009547554399700,10.461399658203124,0.4553999900817871,-0.48649999499320984,-1.3668999671936035
1683009547574399700,10.481399658203125,0.06700000166893005,-0.40289998054504395,-0.9724999666213989
1683009547594399700,10.501399658203125,-0.03700000047683716,-0.3333999812602997,-0.44200000166893005
1683009547614399700,10.521399658203125,0.02929999865591526,-0.31610000133514404,0.057499997317790985
1683009547634399700,10.541399658203124,0.3520999848842621,-0.250900000333786,0.3215999901294708
1683009547654399700,10.561399658203126,0.6944999694824219,-0.1492999941110611,0.2043999880552292
1683009547674399700,10.581399658203125,0.8969999551773071,-0.0414000004529953,0.010199999436736107
1683009547694399700,10.601399658203125,0.7849999666213989,-0.0005999999702908099,-0.09600000083446503
1683009547714399700,10.621399658203124,0.5945999622344971,0.12119999527931213,-0.07620000094175339
1683009547734399700,10.641399658203126,0.36059999465942383,0.21799999475479126,0.02029999904334545
1683009547754399700,10.661399658203125,0.16439999639987946,0.3950999975204468,0.5091999769210815
1683009547774399700,10.681399658203125,0.16910000145435333,0.49709999561309814,1.4005999565124512
1683009547794399700,10.701399658203124,0.3114999830722809,0.5559999942779541,2.214200019836426
1683009547814399700,10.721399658203126,0.5187000036239624,0.703499972820282,2.7333998680114746
1683009547834399700,10.741399658203125,0.7639999985694885,0.48330000042915344,3.233099937438965
1683009547854399700,10.761399658203125,0.8398999571800232,0.20979999005794525,3.830399990081787
1683009547874399700,10.781399658203124,0.9786999821662903,0.03519999980926514,3.7607998847961426
1683009547894399700,10.801399658203126,1.20579993724823,-0.42649999260902405,3.692699909210205
1683009547914402800,10.82140283203125,1.5166000127792358,-0.8100999593734741,3.94789981842041
1683009547934402800,10.84140283203125,1.6021000146865845,-0.7566999793052673,3.898599863052368
1683009547954402800,10.86140283203125,0.9241999983787537,-0.2971999943256378,3.263000011444092
1683009547974402800,10.88140283203125,-0.04999999701976776,0.24699999392032623,1.9514999389648438
1683009547994399700,10.901399658203125,-0.9330999851226807,0.28839999437332153,0.010799999348819256
1683009548014399700,10.921399658203125,-1.0867999792099,-0.12069999426603317,-1.8240000009536743
1683009548034399700,10.941399658203125,-0.6294999718666077,-0.8233999609947205,-2.776399850845337
1683009548054401300,10.9614013671875,0.0284000001847744,-1.1452999114990234,-2.6880998611450195
1683009548074402800,10.98140283203125,0.4641999900341034,-0.9556999802589417,-1.4523999691009521
1683009548094399700,11.001399658203125,0.2184000015258789,-0.5425999760627747,0.046699997037649155
1683009548114399700,11.021399658203125,-0.21249999105930328,-0.12219999730587006,0.623199999332428
1683009548134402800,11.04140283203125,-0.7172999978065491,-0.03229999914765358,-0.02630000002682209
1683009548154402800,11.06140283203125,-0.7973999977111816,-0.15629999339580536,-1.0181000232696533
1683009548174399700,11.081399658203125,-0.6608999967575073,-0.21709999442100525,-1.5856000185012817
1683009548194399700,11.101399658203125,-0.7811999917030334,-0.16030000150203705,-1.9263999462127686
1683009548214399700,11.121399658203124,-1.1083999872207642,-0.0071000000461936,-2.199899911880493
1683009548234402800,11.14140283203125,-1.3086999654769897,0.09439999610185623,-2.435699939727783
1683009548254399700,11.161399658203125,-1.1750999689102173,0.16200000047683716,-2.593899965286255
1683009548274401300,11.1814013671875,-0.858299970626831,0.25679999589920044,-2.2914998531341553
1683009548294399700,11.201399658203124,-0.5275999903678894,0.31200000643730164,-1.9006999731063843
1683009548314399700,11.221399658203126,-0.33469998836517334,0.36069998145103455,-1.4507999420166016
1683009548334399700,11.241399658203125,-0.1648000031709671,0.438400000333786,-1.069100022315979
1683009548354399700,11.261399658203125,-0.1923999935388565,0.3854999840259552,-0.746399998664856
1683009548374399700,11.281399658203124,-0.155799999833107,0.34289997816085815,-0.6589999794960022
1683009548394399700,11.301399658203126,-0.17649999260902405,0.2718999981880188,-0.590999960899353
1683009548414399700,11.321399658203125,-0.1662999987602234,0.22609999775886536,-0.5810999870300293
1683009548434399700,11.341399658203125,-0.21329998970031738,0.218299999833107,-0.5507999658584595
1683009548454399700,11.361399658203124,-0.2888000011444092,0.15399999916553497,-0.31349998712539673
1683009548474399700,11.381399658203126,-0.3182999789714813,0.15060000121593475,0.2087000012397766
1683009548494399700,11.401399658203125,-0.31219998002052307,0.2393999993801117,0.887499988079071
1683009548514399700,11.421399658203125,-0.4161999821662903,0.37389999628067017,1.1942999362945557
1683009548534399700,11.441399658203125,-0.43619999289512634,0.41839998960494995,1.549399971961975
1683009548554399700,11.461399658203124,-0.4875999987125397,0.32510000467300415,1.8442999124526978
1683009548574399700,11.481399658203125,-0.3116999864578247,0.13109999895095825,1.8050999641418457
1683009548594399700,11.501399658203125,0.3723999857902527,-0.3279999792575836,1.611199975013733
1683009548614399700,11.521399658203125,0.30230000615119934,-0.5669000148773193,1.680400013923645
1683009548634399700,11.541399658203124,-0.1816999912261963,-0.5943999886512756,1.7856999635696411
1683009548654399700,11.561399658203126,-0.6057999730110168,-0.44589999318122864,1.7628999948501587
1683009548674399700,11.581399658203125,-0.840999960899353,-0.620199978351593,1.770799994468689
1683009548694399700,11.601399658203125,-0.5795999765396118,-0.9063999652862549,2.1912999153137207
1683009548714399700,11.621399658203124,-0.10639999806880951,-0.9998999834060669,2.6701998710632324
1683009548734399700,11.641399658203126,0.3333999812602997,-0.9239999651908875,3.0312998294830322
1683009548754399700,11.661399658203125,0.5087999701499939,-0.6500999927520752,2.7747998237609863
1683009548774399700,11.681399658203125,0.5543000102043152,-0.24779999256134033,1.3736000061035156
1683009548794399700,11.701399658203124,0.38419997692108154,-0.030799999833106995,-0.3269999921321869
1683009548814399700,11.721399658203126,0.19759999215602875,-0.007799999788403511,-1.1516000032424927
1683009548834399700,11.741399658203125,-0.08370000123977661,-0.10260000079870224,-1.114400029182434
1683009548854399700,11.761399658203125,-0.6862999796867371,-0.07609999924898148,-0.7196999788284302
1683009548874399700,11.781399658203124,-1.1648999452590942,0.07209999859333038,-0.7008999586105347
1683009548894399700,11.801399658203126,-1.2674999237060547,0.09860000014305115,-1.0369999408721924
1683009548914399700,11.821399658203125,-0.8199999928474426,-0.01939999870955944,-1.07069993019104
1683009548934399700,11.841399658203125,-0.07009999454021454,-0.1825999915599823,-0.9566999673843384
1683009548954399700,11.861399658203124,0.5758999586105347,-0.05849999934434891,-0.684499979019165
1683009548974399700,11.881399658203126,0.7565000057220459,0.08399999886751175,-0.3824999928474426
1683009548994399700,11.901399658203125,0.7702999711036682,0.2524999976158142,-0.3750999867916107
1683009549014399700,11.921399658203125,0.7339000105857849,0.40779998898506165,-0.5634999871253967
1683009549034399700,11.941399658203125,0.6354999542236328,0.6100000143051147,-0.7501999735832214
1683009549054399700,11.961399658203124,0.5843999981880188,0.5297999978065491,-0.7762999534606934
1683009549074399700,11.981399658203125,0.6079999804496765,0.43039998412132263,-0.8482999801635742
1683009549094399700,12.001399658203125,0.748699963092804,0.34689998626708984,-1.2544000148773193
1683009549114399700,12.021399658203125,0.7549999952316284,0.22269999980926514,-1.5166999101638794
1683009549134399700,12.041399658203124,0.847599983215332,0.25189998745918274,-1.5556999444961548
1683009549154399700,12.061399658203126,0.9032999873161316,0.287200003862381,-1.3013999462127686
1683009549174399700,12.081399658203125,0.8671999573707581,0.38359999656677246,-0.8317999839782715
1683009549194399700,12.101399658203125,0.9215999841690063,0.5077999830245972,-0.18599998950958252
1683009549214401300,12.1214013671875,0.902999997138977,0.6312999725341797,0.527899980545044
1683009549234399700,12.141399658203126,0.8718999624252319,0.6567999720573425,1.014799952507019
1683009549254399700,12.161399658203125,0.702299952507019,0.5485000014305115,1.1858999729156494
1683009549274401300,12.1814013671875,0.6283000111579895,0.3617999851703644,0.8966999650001526
1683009549294399700,12.201399658203124,0.6372999548912048,0.22929999232292175,0.6977999806404114
1683009549314401300,12.2214013671875,0.6654999852180481,0.04809999838471413,0.8431999683380127
1683009549334399700,12.241399658203125,0.6026999950408936,0.02070000022649765,1.2246999740600586
1683009549354399700,12.261399658203125,0.46469998359680176,0.07509999722242355,1.6469999551773071
1683009549374399700,12.281399658203124,0.24889999628067017,0.11710000038146973,2.0795998573303223
1683009549394399700,12.301399658203126,0.2565999925136566,0.09429999440908432,2.7274999618530273
1683009549414401300,12.3214013671875,0.579800009727478,0.04749999940395355,3.5620999336242676
1683009549434399700,12.341399658203125,0.8815999627113342,-0.07779999822378159,4.474299907684326
1683009549454399700,12.361399658203124,0.9088999629020691,-0.06939999759197235,5.149899959564209
1683009549474399700,12.381399658203126,0.46050000190734863,0.26339998841285706,4.678800106048584
1683009549494399700,12.401399658203125,-0.1168999969959259,0.5709999799728394,3.0234999656677246
1683009549514399700,12.421399658203125,-0.7178999781608582,0.7260000109672546,0.8976999521255493
1683009549534399700,12.441399658203125,-0.9389999508857727,0.4416999816894531,-0.8949999809265137
1683009549554399700,12.461399658203124,-1.0090999603271484,0.037299998104572296,-2.0996999740600586
1683009549574401300,12.4814013671875,-0.977899968624115,-0.23909999430179596,-2.47189998626709
1683009549594399700,12.501399658203125,-0.852899968624115,-0.3440999984741211,-2.258699893951416
1683009549614399700,12.521399658203125,-0.8662999868392944,-0.46469998359680176,-1.9792999029159546
1683009549634401300,12.5414013671875,-0.724299967288971,-0.6667999625205994,-1.8082998991012573
1683009549654399700,12.561399658203126,-0.4032999873161316,-0.8485999703407288,-1.7436999082565308
1683009549674399700,12.581399658203125,-0.046299997717142105,-1.0056999921798706,-1.5788999795913696
1683009549694399700,12.601399658203125,0.16740000247955322,-1.0332999229431152,-1.4325000047683716
1683009549714401300,12.6214013671875,-0.053999997675418854,-1.0773999691009521,-1.3646999597549438
1683009549734399700,12.641399658203126,-0.32089999318122864,-0.9259999990463257,-1.5030999183654785
1683009549754399700,12.661399658203125,-0.4277999997138977,-0.7911999821662903,-1.4052000045776367
1683009549774401300,12.6814013671875,-0.4274999797344208,-0.6175999641418457,-1.1589999198913574
1683009549794399700,12.701399658203124,-0.48499998450279236,-0.3917999863624573,-0.9412999749183655
1683009549814399700,12.721399658203126,-0.6134999990463257,-0.17109999060630798,-0.665399968624115
1683009549834399700,12.741399658203125,-0.675000011920929,0.02719999849796295,-0.4010999798774719
1683009549854399700,12.761399658203125,-0.7204999923706055,0.13599999248981476,-0.2759000062942505
1683009549874399700,12.781399658203124,-0.6252999901771545,0.24239999055862427,-0.21949999034404755
1683009549894399700,12.801399658203126,-0.4050999879837036,0.27719998359680176,-0.19219999015331268
1683009549914401300,12.8214013671875,-0.1915999948978424,0.2505999803543091,-0.21319998800754547
1683009549934401300,12.8414013671875,-0.16200000047683716,0.27239999175071716,-0.34119999408721924
1683009549954399700,12.861399658203124,-0.15410000085830688,0.307699978351593,-0.5178999900817871
1683009549974399700,12.881399658203126,-0.20639999210834503,0.26649999618530273,-0.5972999930381775
1683009549994399700,12.901399658203125,-0.23160000145435333,0.2976999878883362,-0.5005999803543091
1683009550014399700,12.921399658203125,-0.28669998049736023,0.44519999623298645,-0.020999999716877937
1683009550034399700,12.941399658203125,-0.32099997997283936,0.6561999917030334,0.3910999894142151
1683009550054399700,12.961399658203124,-0.3942999839782715,0.8756999969482422,0.676800012588501
1683009550074401300,12.9814013671875,-0.3716999888420105,0.9300999641418457,0.9731999635696411
1683009550094399700,13.001399658203125,-0.2660999894142151,0.6354999542236328,1.5930999517440796
1683009550114399700,13.021399658203125,0.047199998050928116,0.1363999992609024,2.751199960708618
1683009550134399700,13.041399658203124,0.23680000007152557,-0.012799999676644802,3.5451998710632324
1683009550154399700,13.061399658203126,0.42649999260902405,-0.033399999141693115,3.957199811935425
1683009550174399700,13.081399658203125,0.5612999796867371,-0.003499999875202775,3.6743998527526855
1683009550194399700,13.101399658203125,0.6514999866485596,0.005200000014156103,2.8914999961853027
1683009550214401300,13.1214013671875,0.7264999747276306,0.05169999971985817,1.8251999616622925
1683009550234399700,13.141399658203126,0.5424999594688416,0.121799997985363,0.5835999846458435
1683009550254399700,13.161399658203125,0.22819998860359192,0.029899999499320984,-0.28380000591278076
1683009550274401300,13.1814013671875,-0.015399999916553497,-0.18150000274181366,-0.7490999698638916
1683009550294399700,13.201399658203124,-0.15359999239444733,-0.21319998800754547,-0.6459999680519104
1683009550314399700,13.221399658203126,-0.24650000035762787,-0.08529999852180481,-0.19099999964237213
1683009550334399700,13.241399658203125,-0.23089998960494995,-0.0011999999405816197,0.006599999964237213
1683009550354402800,13.26140283203125,-0.1834999918937683,-0.16290000081062317,0.004999999888241291
1683009550374399700,13.281399658203124,0.1348000019788742,-0.44769999384880066,-0.23319999873638153
1683009550394399700,13.301399658203126,0.3741999864578247,-0.5108000040054321,-0.6281999945640564
1683009550414401300,13.3214013671875,0.4553999900817871,-0.5519999861717224,-0.8977999687194824
1683009550434401300,13.3414013671875,0.446399986743927,-0.5658999681472778,-1.2561999559402466
1683009550454399700,13.361399658203124,0.5557999610900879,-0.5934000015258789,-1.6033999919891357
1683009550474399700,13.381399658203126,0.7146999835968018,-0.552299976348877,-1.7530999183654785
1683009550494401300,13.4014013671875,0.7662999629974365,-0.4721999764442444,-1.7455999851226807
1683009550514399700,13.421399658203125,0.5977999567985535,-0.3766999840736389,-1.6404999494552612
1683009550534399700,13.441399658203125,0.34700000286102295,-0.3878999948501587,-1.4879000186920166
1683009550554399700,13.461399658203124,0.31769999861717224,-0.3693999946117401,-1.1697999238967896
1683009550574401300,13.4814013671875,0.36809998750686646,-0.4017999768257141,-0.9298999905586243
1683009550594399700,13.501399658203125,0.49709999561309814,-0.41999998688697815,-0.6592999696731567
1683009550614399700,13.521399658203125,0.7712000012397766,-0.3536999821662903,-0.4649999737739563
1683009550634401300,13.5414013671875,1.0127999782562256,-0.22450000047683716,-0.484499990940094
1683009550654399700,13.561399658203126,1.059899926185608,-0.23079998791217804,-0.46320000290870667
1683009550674401300,13.5814013671875,0.8545999526977539,-0.17679999768733978,-0.20579999685287476
1683009550694399700,13.601399658203125,0.7145999670028687,-0.013499999418854713,0.08129999786615372
1683009550714401300,13.6214013671875,0.6333000063896179,0.13989999890327454,0.3294000029563904
1683009550734399700,13.641399658203126,0.5961999893188477,0.24859999120235443,0.39149999618530273
1683009550754399700,13.661399658203125,0.5683000087738037,0.2206999957561493,0.5113999843597412
1683009550774401300,13.6814013671875,0.5352999567985535,0.2255999892950058,1.0119999647140503
1683009550794399700,13.701399658203124,0.45569998025894165,0.30889999866485596,1.619499921798706
1683009550814399700,13.721399658203126,0.3813999891281128,0.4530999958515167,2.2951998710632324
1683009550834399700,13.741399658203125,0.2651999890804291,0.583299994468689,2.891700029373169
1683009550854399700,13.761399658203125,0.2329999953508377,0.3366999924182892,3.6733999252319336
1683009550874399700,13.781399658203124,0.3958999812602997,0.01269999984651804,4.208499908447266
1683009550894399700,13.801399658203126,0.7914999723434448,-0.2719999849796295,3.880699872970581
1683009550914399700,13.821399658203125,0.8779000043869019,-0.4438999891281128,2.8977999687194824
1683009550934401300,13.8414013671875,0.5683000087738037,-0.43039998412132263,1.6913999319076538
1683009550954399700,13.861399658203124,0.16439999639987946,-0.3610999882221222,0.5062000155448914
1683009550974399700,13.881399658203126,-0.2289000004529953,-0.29729998111724854,-0.6785999536514282
1683009550994399700,13.901399658203125,-0.3863999843597412,-0.4291999936103821,-1.2168999910354614
1683009551014399700,13.921399658203125,-0.14149999618530273,-0.4983999729156494,-1.1870999336242676
1683009551034399700,13.941399658203125,0.10349999368190765,-0.4713999927043915,-0.8736000061035156
1683009551054399700,13.961399658203124,0.01850000023841858,-0.3644999861717224,-0.6092000007629395
1683009551074401300,13.9814013671875,-0.3854999840259552,-0.3138999938964844,-0.5609999895095825
1683009551094399700,14.001399658203125,-0.6876999735832214,-0.3791999816894531,-0.6405999660491943
1683009551114399700,14.021399658203125,-0.6293999552726746,-0.4490000009536743,-0.6022999882698059
1683009551134401300,14.0414013671875,-0.46239998936653137,-0.4672999978065491,-0.49459999799728394
1683009551154399700,14.061399658203126,-0.42989999055862427,-0.40950000286102295,-0.46549999713897705
1683009551174399700,14.081399658203125,-0.44349998235702515,-0.2467999905347824,-0.7012999653816223
1683009551194399700,14.101399658203125,-0.45559999346733093,-0.12039999663829803,-0.9667999744415283
1683009551214401300,14.1214013671875,-0.47369998693466187,-0.08320000022649765,-1.437600016593933
1683009551234399700,14.141399658203126,-0.599299967288971,-0.13300000131130219,-1.6232999563217163
1683009551254399700,14.161399658203125,-0.7407999634742737,-0.05169999971985817,-1.8672999143600464
1683009551274401300,14.1814013671875,-0.7960999608039856,-0.009499999694526196,-1.806999921798706
1683009551294399700,14.201399658203124,-0.7806999683380127,0.07109999656677246,-1.541700005531311
1683009551314399700,14.221399658203126,-0.6086999773979187,0.09019999951124191,-1.2770999670028687
1683009551334399700,14.241399658203125,-0.4009999930858612,0.09219999611377716,-1.0130000114440918
1683009551354399700,14.261399658203125,-0.16290000081062317,0.09569999575614929,-0.8672999739646912
1683009551374399700,14.281399658203124,0.11699999868869781,0.023399999365210533,-0.8294000029563904
1683009551394399700,14.301399658203126,0.2540000081062317,0.06039999797940254,-0.5268999934196472
1683009551414401300,14.3214013671875,0.22739998996257782,0.1232999935746193,-0.14569999277591705
1683009551434399700,14.341399658203125,0.04779999703168869,0.2902999818325043,0.2069000005722046
1683009551454399700,14.361399658203124,-0.23389999568462372,0.5164999961853027,0.3450999855995178
1683009551474399700,14.381399658203126,-0.5235999822616577,0.7655999660491943,0.3660999834537506
1683009551494399700,14.401399658203125,-0.5806999802589417,0.8876999616622925,0.44599997997283936
1683009551514399700,14.421399658203125,-0.4592999815940857,0.9004999995231628,0.6926999688148499
1683009551534399700,14.441399658203125,-0.25999999046325684,0.9229999780654907,0.9192999601364136
1683009551554399700,14.461399658203124,-0.07029999792575836,0.9904999732971191,0.9495999813079834
1683009551574401300,14.4814013671875,0.10489999502897263,0.9847999811172485,0.9702999591827393
1683009551594399700,14.501399658203125,0.28619998693466187,0.5885999798774719,1.1966999769210815
1683009551614399700,14.521399658203125,0.3752000033855438,0.3432999849319458,1.4615999460220337
1683009551634401300,14.5414013671875,0.4821999967098236,0.3698999881744385,1.6883999109268188
1683009551654399700,14.561399658203126,0.4292999804019928,0.28859999775886536,1.9457999467849731
1683009551674399700,14.581399658203125,0.49719998240470886,0.06480000168085098,2.6445999145507812
1683009551694399700,14.601399658203125,0.7687000036239624,-0.03179999813437462,3.685999870300293
1683009551714401300,14.6214013671875,0.9323999881744385,0.32839998602867126,4.34529972076416
1683009551734399700,14.641399658203126,0.873699963092804,0.8312999606132507,3.702399969100952
1683009551754399700,14.661399658203125,0.6879000067710876,1.2039999961853027,1.9823999404907227
1683009551774401300,14.6814013671875,0.6890000104904175,1.0030999183654785,0.21359999477863312
1683009551794399700,14.701399658203124,0.5914999842643738,0.431799978017807,-0.5256999731063843
1683009551814399700,14.721399658203126,0.19709999859333038,-0.12709999084472656,-0.746999979019165
1683009551834399700,14.741399658203125,-0.4107999801635742,-0.49779999256134033,-0.8237999677658081
1683009551854399700,14.761399658203125,-0.932699978351593,-0.5157999992370605,-0.6089000105857849
1683009551874399700,14.781399658203124,-0.9567999839782715,-0.32269999384880066,-0.34759998321533203
1683009551894399700,14.801399658203126,-0.4562999904155731,-0.1988999992609024,-0.47849997878074646
1683009551914401300,14.8214013671875,0.21480000019073486,-0.18490000069141388,-0.8245999813079834
1683009551934401300,14.8414013671875,0.7439999580383301,-0.22439999878406525,-1.160599946975708
1683009551954399700,14.861399658203124,0.9860999584197998,-0.26339998841285706,-1.3588999509811401
1683009551974399700,14.881399658203126,0.8851999640464783,-0.2789999842643738,-1.5275999307632446
1683009551994399700,14.901399658203125,0.6134999990463257,-0.23499999940395355,-1.7840999364852905
1683009552014399700,14.921399658203125,0.3849000036716461,-0.1988999992609024,-1.9810999631881714
1683009552034399700,14.941399658203125,0.22010000050067902,-0.21469999849796295,-2.0501999855041504
1683009552054399700,14.961399658203124,0.17919999361038208,-0.29260000586509705,-2.0406999588012695
1683009552074401300,14.9814013671875,0.2184000015258789,-0.28200000524520874,-1.8351999521255493
1683009552094399700,15.001399658203125,0.3798999786376953,-0.2369999885559082,-1.6495000123977661
1683009552114399700,15.021399658203125,0.6049000024795532,-0.13989999890327454,-1.1698999404907227
1683009552134401300,15.0414013671875,0.6656000018119812,-0.07779999822378159,-0.6029999852180481
1683009552154399700,15.061399658203126,0.6363999843597412,0.03669999912381172,-0.2514999806880951
1683009552174399700,15.081399658203125,0.736299991607666,0.34849998354911804,0.17919999361038208
1683009552194399700,15.101399658203125,0.9536999464035034,0.6202999949455261,0.7674999833106995
1683009552214399700,15.121399658203124,0.9702000021934509,0.7723000049591064,1.1001999378204346
1683009552234399700,15.141399658203126,1.0018999576568604,0.8109999895095825,1.0109000205993652
1683009552254399700,15.161399658203125,1.0333999395370483,0.792199969291687,0.8835999965667725
1683009552274401300,15.1814013671875,1.0389000177383423,0.8032000064849854,0.9930999875068665
1683009552294399700,15.201399658203124,0.9696999788284302,0.8222000002861023,1.4763000011444092
1683009552314399700,15.221399658203126,0.633899986743927,0.8079999685287476,2.536900043487549
1683009552334399700,15.241399658203125,0.29580000042915344,0.753600001335144,3.7228000164031982
1683009552354399700,15.261399658203125,0.36569997668266296,0.5360000133514404,4.673099994659424
1683009552374399700,15.281399658203124,0.6413999795913696,0.21239998936653137,5.18179988861084
1683009552394399700,15.301399658203126,0.9328999519348145,-0.053599998354911804,5.278899669647217
1683009552414401300,15.3214013671875,1.0062999725341797,0,4.7978997230529785
1683009552434401300,15.3414013671875,0.6917999982833862,0.21559999883174896,3.6410999298095703
1683009552454399700,15.361399658203124,0.053700000047683716,0.43869999051094055,1.8077999353408813
1683009552474399700,15.381399658203126,-0.42409998178482056,0.5848000049591064,-0.5252999663352966
1683009552494399700,15.401399658203125,-0.7325999736785889,0.10839999467134476,-2.5348000526428223
1683009552514399700,15.421399658203125,-0.2514999806880951,-0.32189998030662537,-3.279599905014038
1683009552534399700,15.441399658203125,0.08089999854564667,-0.468099981546402,-2.790599822998047
1683009552554399700,15.461399658203124,0.14589999616146088,-0.3034999966621399,-1.8217999935150146
1683009552574401300,15.4814013671875,-0.09569999575614929,-0.02279999852180481,-1.12909996509552
1683009552594399700,15.501399658203125,-0.05920000001788139,0.035099998116493225,-0.5945000052452087
1683009552614399700,15.521399658203125,0.2603999972343445,0.007799999788403511,-0.4034999907016754
1683009552634401300,15.5414013671875,0.6802999973297119,-0.10509999841451645,-0.4952999949455261
1683009552654402800,15.56140283203125,1.0256999731063843,-0.0746999979019165,-0.7805999517440796
1683009552674399700,15.581399658203125,1.0817999839782715,0.07739999890327454,-1.0839999914169312
1683009552694399700,15.601399658203125,0.9906999468803406,0.29490000009536743,-1.2694000005722046
1683009552714401300,15.6214013671875,0.6265000104904175,0.4462999999523163,-1.5733000040054321
1683009552734399700,15.641399658203126,0.1817999929189682,0.5277000069618225,-2.0443999767303467
1683009552754399700,15.661399658203125,-0.08399999886751175,0.5911999940872192,-2.3880999088287354
1683009552774401300,15.6814013671875,-0.1907999962568283,0.63919997215271,-2.555299997329712
1683009552794399700,15.701399658203124,-0.27320000529289246,0.651699960231781,-2.6148998737335205
1683009552814399700,15.721399658203126,-0.2886999845504761,0.6800000071525574,-2.3513998985290527
1683009552834399700,15.741399658203125,-0.20479999482631683,0.6451999545097351,-1.980799913406372
1683009552854399700,15.761399658203125,0.07689999788999557,0.6123999953269958,-1.4637999534606934
1683009552874399700,15.781399658203124,0.5357999801635742,0.5537999868392944,-0.8982999920845032
1683009552894399700,15.801399658203126,0.9770999550819397,0.3782999813556671,-0.3718999922275543
1683009552914401300,15.8214013671875,1.2889999151229858,0.2719999849796295,-0.0510999970138073
1683009552934399700,15.841399658203125,1.2806999683380127,0.1875,0.1720999926328659
1683009552954399700,15.861399658203124,1.236799955368042,0.11639999598264694,0.16110000014305115
1683009552974399700,15.881399658203126,1.1552000045776367,0.2556999921798706,-0.13359999656677246
1683009552994399700,15.901399658203125,1.0931999683380127,0.5913999676704407,-0.37860000133514404
1683009553014399700,15.921399658203125,0.75,0.9151999950408936,-0.5349000096321106
1683009553034399700,15.941399658203125,0.46609997749328613,1.0601999759674072,-0.9554999470710754
1683009553054399700,15.961399658203124,0.45170000195503235,1.011199951171875,-1.316499948501587
1683009553074399700,15.981399658203125,0.7409999966621399,0.8210999965667725,-1.4514999389648438
1683009553094399700,16.001399658203123,0.8718999624252319,0.5583999752998352,-1.0760999917984009
1683009553114399700,16.021399658203126,0.8809999823570251,0.2913999855518341,0.14229999482631683
1683009553134401300,16.0414013671875,0.5895999670028687,0.5453999638557434,1.4185999631881714
1683009553154399700,16.061399658203126,0.39969998598098755,0.8677999973297119,1.9991999864578247
1683009553174399700,16.081399658203125,0.6807999610900879,0.6944999694824219,2.295799970626831
1683009553194399700,16.101399658203125,1.1446999311447144,0.40789997577667236,2.5434999465942383
1683009553214401300,16.1214013671875,1.5377999544143677,0.3091000020503998,2.252699851989746
1683009553234399700,16.141399658203124,1.46589994430542,0.10159999877214432,2.159600019454956
1683009553254399700,16.161399658203123,1.1841999292373657,-0.22129999101161957,2.4184000492095947
1683009553274401300,16.1814013671875,1.125100016593933,-0.4921000003814697,2.6952998638153076
1683009553294399700,16.201399658203126,0.9217000007629395,-0.590499997138977,2.6088998317718506
1683009553314399700,16.221399658203126,0.7293999791145325,-0.6340000033378601,1.561900019645691
1683009553334399700,16.241399658203125,0.6344999670982361,-0.6345999836921692,0.21130000054836273
1683009553354399700,16.261399658203125,0.7471999526023865,-0.7428999543190002,-0.9724999666213989
1683009553374399700,16.281399658203124,0.8807999491691589,-0.9358999729156494,-1.70579993724823
1683009553394399700,16.301399658203124,0.9663999676704407,-0.9929999709129333,-1.8216999769210815
1683009553414399700,16.321399658203124,0.8455999493598938,-0.8478999733924866,-1.5654000043869019
1683009553434399700,16.341399658203127,0.8622999787330627,-0.5361999869346619,-1.063499927520752
1683009553454399700,16.361399658203126,0.9074999690055847,-0.29580000042915344,-0.5511999726295471
1683009553474399700,16.381399658203126,1.0780999660491943,-0.10559999942779541,-0.47919997572898865
1683009553494399700,16.401399658203125,1.341499924659729,-0.05299999937415123,-0.46539998054504395
1683009553514399700,16.421399658203125,1.5518999099731445,-0.13650000095367432,-0.26489999890327454
1683009553534399700,16.441399658203125,1.5681999921798706,-0.21939998865127563,-0.0737999975681305
1683009553554399700,16.461399658203124,1.378600001335144,-0.2597000002861023,-0.148499995470047
1683009553574399700,16.481399658203124,1.3476999998092651,-0.09459999948740005,-0.2622999846935272
1683009553594399700,16.501399658203123,1.8030999898910522,0.06399999558925629,-0.031700000166893005
1683009553614399700,16.521399658203126,2.3766000270843506,0.29339998960494995,0.120899997651577
1683009553634399700,16.541399658203126,2.6562998294830322,0.4212999939918518,0.008799999952316284
1683009553654399700,16.561399658203126,2.636199951171875,0.559499979019165,-0.12359999865293503
1683009553674399700,16.581399658203125,2.4301998615264893,0.6295999884605408,-0.188400000333786
1683009553694399700,16.601399658203125,2.2700998783111572,0.6093999743461609,-0.2150999903678894
1683009553714399700,16.621399658203124,2.249500036239624,0.6054999828338623,-0.26319998502731323
1683009553734399700,16.641399658203124,2.2015998363494873,0.8623999953269958,-0.22369998693466187
1683009553754399700,16.661399658203123,2.0541999340057373,1.218500018119812,0.012000000104308128
1683009553774399700,16.681399658203127,1.8646999597549438,1.4462000131607056,0.05989999696612358
1683009553794399700,16.701399658203126,1.7937999963760376,1.4571999311447144,0.11490000039339066
1683009553814399700,16.721399658203126,1.709299921989441,1.3184999227523804,0.2158999890089035
1683009553834399700,16.741399658203125,1.6033999919891357,1.0845999717712402,0.1678999960422516
1683009553854399700,16.761399658203125,1.4822999238967896,0.8108999729156494,0.1972000002861023
1683009553874399700,16.781399658203124,1.5192999839782715,0.4554999768733978,0.20719999074935913
1683009553894399700,16.801399658203124,1.6782000064849854,0.1598999947309494,0.35499998927116394
1683009553914399700,16.821399658203124,1.789599895477295,-0.026099998503923416,0.4948999881744385
1683009553934399700,16.841399658203127,1.8029999732971191,-0.1078999936580658,0.6662999987602234
1683009553954399700,16.861399658203126,1.6239999532699585,-0.3698999881744385,0.9472000002861023
1683009553974399700,16.881399658203126,1.5252000093460083,-0.501800000667572,1.5038999319076538
1683009553994399700,16.901399658203125,1.753600001335144,-0.3893999755382538,2.406399965286255
1683009554014399700,16.921399658203125,1.8901000022888184,0.032499998807907104,2.8501999378204346
1683009554034399700,16.941399658203125,1.6944999694824219,0.7063999772071838,2.0197999477386475
1683009554054399700,16.961399658203124,1.2426999807357788,1.212499976158142,-0.25270000100135803
1683009554074399700,16.981399658203124,0.9621999859809875,0.8011999726295471,-1.9393999576568604
1683009554094399700,17.001399658203123,0.9440999627113342,-0.18850000202655792,-1.5794999599456787
1683009554114399700,17.021399658203126,1.0341999530792236,-0.9945999979972839,-0.34939998388290405
1683009554134399700,17.041399658203126,1.0636999607086182,-1.3493999242782593,0.6353999972343445
1683009554154399700,17.061399658203126,1.2163000106811523,-1.4043999910354614,0.9057999849319458
1683009554174399700,17.081399658203125,1.8121999502182007,-1.350000023841858,0.550000011920929
1683009554194399700,17.101399658203125,2.359099864959717,-1.1318999528884888,-0.09769999980926514
1683009554214399700,17.121399658203124,2.537600040435791,-1.1720999479293823,-0.5173999667167664
1683009554234399700,17.141399658203124,2.3015999794006348,-1.3736000061035156,-0.7009999752044678
1683009554254399700,17.161399658203123,1.5271999835968018,-1.6447999477386475,-0.552299976348877
1683009554274399700,17.181399658203127,0.8018999695777893,-1.4904999732971191,-0.19939999282360077
1683009554294399700,17.201399658203126,0.4885999858379364,-1.1067999601364136,0.26179999113082886
1683009554314399700,17.221399658203126,0.6297000050544739,-0.6933000087738037,0.3716999888420105
1683009554334399700,17.241399658203125,0.9860000014305115,-0.41609999537467957,0.28610000014305115
1683009554354399700,17.261399658203125,1.2999999523162842,-0.34109997749328613,0.1412999927997589
1683009554374399700,17.281399658203124,1.4584999084472656,-0.3894999921321869,-0.0828000009059906
1683009554394399700,17.301399658203124,1.3700000047683716,-0.49699997901916504,-0.2586999833583832
1683009554414399700,17.321399658203124,1.1064000129699707,-0.41179999709129333,-0.3270999789237976
1683009554434399700,17.341399658203127,0.6818999648094177,-0.334199994802475,-0.14069999754428864
1683009554454399700,17.361399658203126,0.45649999380111694,-0.19990000128746033,0.14329999685287476
1683009554474399700,17.381399658203126,0.3977999985218048,-0.12999999523162842,0.3093000054359436
1683009554494399700,17.401399658203125,0.4658999741077423,-0.09070000052452087,0.05269999802112579
1683009554514399700,17.421399658203125,0.4870999753475189,-0.19020000100135803,-0.31279999017715454
1683009554534399700,17.441399658203125,0.3799999952316284,-0.2635999917984009,-0.63919997215271
1683009554554399700,17.461399658203124,0.1419999897480011,-0.28189998865127563,-0.9353999495506287
1683009554574399700,17.481399658203124,0.07609999924898148,-0.14000000059604645,-0.9556999802589417
1683009554594399700,17.501399658203123,0.08460000157356262,0.023099999874830246,-0.8283999562263489
1683009554614399700,17.521399658203126,-0.06689999997615814,0.13210000097751617,-0.5349999666213989
1683009554634399700,17.541399658203126,-0.0348999984562397,0.21869999170303345,-0.37880000472068787
1683009554654399700,17.561399658203126,0.1711999922990799,0.4287000000476837,-0.36899998784065247
1683009554674399700,17.581399658203125,0.4714999794960022,0.7549999952316284,-0.3093000054359436
1683009554694399700,17.601399658203125,0.6243000030517578,0.851099967956543,-0.26819998025894165
1683009554714399700,17.621399658203124,0.4673999845981598,0.8068000078201294,-0.08999999612569809
1683009554734399700,17.641399658203124,0.25119999051094055,0.5162999629974365,0.362199991941452
1683009554754399700,17.661399658203123,0.15489999949932098,0.13329999148845673,1.354599952697754
1683009554774399700,17.681399658203127,0.16990000009536743,-0.16929998993873596,2.425600051879883
1683009554794399700,17.701399658203126,0.307699978351593,-0.3652999997138977,3.0354998111724854
1683009554814399700,17.721399658203126,0.43379998207092285,-0.5827999711036682,3.155900001525879
1683009554834399700,17.741399658203125,0.7368999719619751,-0.929099977016449,3.0534000396728516
1683009554854399700,17.761399658203125,1.0433000326156616,-1.3629999160766602,3.482599973678589
1683009554874399700,17.781399658203124,1.1055999994277954,-1.4787999391555786,4.345200061798096
1683009554894399700,17.801399658203124,0.9416999816894531,-0.9229999780654907,4.482800006866455
1683009554914399700,17.821399658203124,0.5072999596595764,-0.30709999799728394,3.346599817276001
1683009554934399700,17.841399658203127,0.1290999948978424,-0.07069999724626541,1.3585000038146973
1683009554954399700,17.861399658203126,0.2247999906539917,-0.5672000050544739,-0.051500000059604645
1683009554974399700,17.881399658203126,0.42969998717308044,-1.0997999906539917,-0.41449999809265137
1683009554994399700,17.901399658203125,0.4334999918937683,-1.4213999509811401,-0.32029998302459717
1683009555014399700,17.921399658203125,0.16820000112056732,-1.5430999994277954,-0.298799991607666
1683009555034399700,17.941399658203125,-0.23849999904632568,-1.4294999837875366,-0.19380000233650208
1683009555054399700,17.961399658203124,-0.3407999873161316,-1.389299988746643,-0.2190999984741211
1683009555074399700,17.981399658203124,-0.1639999896287918,-1.3518999814987183,-0.2532999813556671
1683009555094399700,18.001399658203123,0.14829999208450317,-1.3035999536514282,-0.4424999952316284
1683009555114399700,18.021399658203126,0.32499998807907104,-1.3330999612808228,-1.1794999837875366
1683009555134399700,18.041399658203126,0.2858999967575073,-1.5017999410629272,-1.907099962234497
1683009555154399700,18.061399658203126,0.28529998660087585,-1.5648999214172363,-2.753700017929077
1683009555174399700,18.081399658203125,0.3342999815940857,-1.4882999658584595,-3.0700998306274414
1683009555194399700,18.101399658203125,0.24049998819828033,-1.3364999294281006,-2.660599946975708
1683009555214399700,18.121399658203124,0.1907999962568283,-1.2315999269485474,-2.0058000087738037
1683009555234399700,18.141399658203124,0.2043999880552292,-1.0992000102996826,-1.5276999473571777
1683009555254399700,18.161399658203123,0.14989998936653137,-0.9336999654769897,-1.2259999513626099
1683009555274399700,18.181399658203127,0.1598999947309494,-0.8134999871253967,-1.2470999956130981
1683009555294399700,18.201399658203126,0.26739999651908875,-0.8427000045776367,-1.2273999452590942
1683009555314399700,18.221399658203126,0.4285999834537506,-0.9150999784469604,-0.961899995803833
1683009555334399700,18.241399658203125,0.582099974155426,-0.8834999799728394,-0.37279999256134033
1683009555354399700,18.261399658203125,0.4761999845504761,-0.6441999673843384,-0.01889999955892563
1683009555374399700,18.281399658203124,-0.01979999989271164,-0.44209998846054077,0.0210999995470047
1683009555394399700,18.301399658203124,-0.4185999929904938,-0.2953999936580658,-0.08590000122785568
1683009555414399700,18.321399658203124,-0.47609999775886536,-0.19049999117851257,0.052299998700618744
1683009555434399700,18.341399658203127,-0.19539999961853027,-0.014399999752640724,0.1915999948978424
1683009555454399700,18.361399658203126,0.10749999433755875,0.2134999930858612,0.1656000018119812
1683009555474402800,18.38140283203125,0.24479998648166656,0.38040000200271606,0.20799998939037323
1683009555494399700,18.401399658203125,0.33980000019073486,0.4324999749660492,0.3962000012397766
1683009555514399700,18.421399658203125,0.5148000121116638,0.41909998655319214,0.7798999547958374
1683009555534399700,18.441399658203125,0.548799991607666,0.5342999696731567,1.1151999235153198
1683009555554399700,18.461399658203124,0.4901999831199646,0.707099974155426,1.431399941444397
1683009555574401300,18.4814013671875,0.42639997601509094,0.857699990272522,1.795799970626831
1683009555594399700,18.501399658203123,0.4203999936580658,0.8424999713897705,2.285799980163574
1683009555614399700,18.521399658203126,0.42899999022483826,0.8449999690055847,2.567999839782715
1683009555634401300,18.5414013671875,0.5091999769210815,0.7908999919891357,2.69350004196167
1683009555654399700,18.561399658203126,0.5203999876976013,0.5020999908447266,2.8097000122070312
1683009555674399700,18.581399658203125,0.4300999939441681,-0.01809999905526638,3.1305999755859375
1683009555694399700,18.601399658203125,0.3734000027179718,-0.5313999652862549,3.6078999042510986
1683009555714401300,18.6214013671875,0.23680000007152557,-0.715499997138977,3.78059983253479
1683009555734399700,18.641399658203124,-0.06639999896287918,-0.5916000008583069,3.3945000171661377
1683009555754399700,18.661399658203123,-0.39579999446868896,-0.36789998412132263,1.8705999851226807
1683009555774401300,18.6814013671875,-0.6226999759674072,-0.3077999949455261,-0.29019999504089355
1683009555794399700,18.701399658203126,-0.6011999845504761,-0.49719998240470886,-1.968400001525879
1683009555814399700,18.721399658203126,-0.4438000023365021,-0.8215999603271484,-2.7726998329162598
1683009555834399700,18.741399658203125,-0.2687000036239624,-0.8992999792098999,-2.33270001411438
1683009555854399700,18.761399658203125,-0.23089998960494995,-0.7092999815940857,-1.208899974822998
1683009555874399700,18.781399658203124,-0.5688999891281128,-0.508899986743927,-0.4795999825000763
1683009555894399700,18.801399658203124,-0.8341000080108643,-0.5666999816894531,-0.47699999809265137
1683009555914399700,18.821399658203124,-0.5460000038146973,-0.8330000042915344,-0.9452999830245972
1683009555934401300,18.8414013671875,-0.275299996137619,-1.125999927520752,-1.3034999370574951
1683009555954399700,18.861399658203126,0.0876999944448471,-1.2074999809265137,-1.5015000104904175
1683009555974399700,18.881399658203126,0.20069999992847443,-1.2264000177383423,-1.7273999452590942
1683009555994399700,18.901399658203125,0.05289999768137932,-1.1740000247955322,-1.9824999570846558
1683009556014399700,18.921399658203125,-0.2329999953508377,-0.960099995136261,-1.9936999082565308
1683009556034399700,18.941399658203125,-0.3446999788284302,-0.7150999903678894,-1.6036999225616455
1683009556054399700,18.961399658203124,-0.4177999794483185,-0.39649999141693115,-1.1942999362945557
1683009556074401300,18.9814013671875,-0.5742999911308289,-0.1762000024318695,-0.8915999531745911
1683009556094399700,19.001399658203123,-0.7391999959945679,0.06830000132322311,-0.6071999669075012
1683009556114399700,19.021399658203126,-0.7735999822616577,0.19509999454021454,-0.40039998292922974
1683009556134401300,19.0414013671875,-0.51910001039505,0.26999998092651367,-0.3100000023841858
1683009556154399700,19.061399658203126,-0.23079998791217804,0.3464999794960022,-0.2683999836444855
1683009556174399700,19.081399658203125,-0.09939999878406525,0.26010000705718994,-0.27619999647140503
1683009556194399700,19.101399658203125,-0.04859999939799309,0.1688999980688095,-0.24489998817443848
1683009556214401300,19.1214013671875,-0.11679999530315399,0.18879999220371246,-0.21310000121593475
1683009556234399700,19.141399658203124,-0.10179999470710754,0.34849998354911804,-0.0916999951004982
1683009556254399700,19.161399658203123,-0.21459999680519104,0.5748000144958496,0.13830000162124634
1683009556274401300,19.1814013671875,-0.3872999846935272,0.8035999536514282,0.23169998824596405
1683009556294399700,19.201399658203126,-0.53329998254776,1.0210999250411987,0.1096000000834465
1683009556314399700,19.221399658203126,-0.6220999956130981,1.1237000226974487,0.11479999870061874
1683009556334399700,19.241399658203125,-0.642799973487854,1.1513999700546265,0.3156999945640564
1683009556354399700,19.261399658203125,-0.5529999732971191,1.107200026512146,0.9672999978065491
1683009556374399700,19.281399658203124,-0.5338999629020691,0.9829999804496765,1.9218999147415161
1683009556394399700,19.301399658203124,-0.3628999888896942,0.717199981212616,3.3757998943328857
1683009556414399700,19.321399658203124,-0.4185999929904938,0.8815000057220459,3.856599807739258
1683009556434399700,19.341399658203127,-0.06780000030994415,0.6159999966621399,3.750999927520752
1683009556454399700,19.361399658203126,0.3352999985218048,0.21459999680519104,3.7314000129699707
1683009556474399700,19.381399658203126,0.8538999557495117,-0.2622999846935272,3.728799819946289
1683009556494399700,19.401399658203125,1.0394999980926514,-0.4828999936580658,3.188199996948242
1683009556514399700,19.421399658203125,1.0799999237060547,-0.5453000068664551,2.5016000270843506
1683009556534399700,19.441399658203125,0.8738999962806702,-0.677299976348877,1.5710999965667725
1683009556554399700,19.461399658203124,0.6317999958992004,-0.7106999754905701,0.4641999900341034
1683009556574399700,19.481399658203124,0.43379998207092285,-0.777999997138977,-0.3862999975681305
1683009556594399700,19.501399658203123,0.13109999895095825,-0.894599974155426,-0.70660001039505
1683009556614399700,19.521399658203126,-0.3154999911785126,-0.9399999976158142,-0.5776999592781067
1683009556634399700,19.541399658203126,-0.46609997749328613,-0.8014999628067017,-0.19509999454021454
1683009556654399700,19.561399658203126,-0.5586999654769897,-0.40149998664855957,0.00989999994635582
1683009556674399700,19.581399658203125,-0.685699999332428,-0.0989999994635582,-0.5600999593734741
1683009556694399700,19.601399658203125,-0.6110999584197998,-0.035599999129772186,-1.6001999378204346
1683009556714399700,19.621399658203124,-0.36559998989105225,-0.1370999962091446,-2.444000005722046
1683009556734399700,19.641399658203124,-0.19909998774528503,-0.2638999819755554,-2.8259999752044678
1683009556754399700,19.661399658203123,-0.13130000233650208,-0.17549999058246613,-2.952199935913086
1683009556774399700,19.681399658203127,-0.181099995970726,0.026599999517202377,-2.6857998371124268
1683009556794399700,19.701399658203126,-0.4154999852180481,0.1785999983549118,-2.1564998626708984
1683009556814399700,19.721399658203126,-0.5141000151634216,0.27950000762939453,-1.6784999370574951
1683009556834399700,19.741399658203125,-0.4377000033855438,0.3253999948501587,-1.1723999977111816
1683009556854399700,19.761399658203125,-0.23799999058246613,0.3452000021934509,-0.5105000138282776
1683009556874399700,19.781399658203124,-0.09149999916553497,0.3100999891757965,0.07209999859333038
1683009556894399700,19.801399658203124,0.10899999737739563,0.12629999220371246,0.23259998857975006
1683009556914399700,19.821399658203124,0.424699991941452,-0.12229999899864197,0.010699999518692493
1683009556934399700,19.841399658203127,0.7249000072479248,-0.41279998421669006,-0.250900000333786
1683009556954399700,19.861399658203126,0.9794999957084656,-0.6341999769210815,-0.2175000011920929
1683009556974399700,19.881399658203126,1.1733999252319336,-0.5839999914169312,-0.19119998812675476
1683009556994399700,19.901399658203125,1.3381999731063843,-0.4341000020503998,-0.2888999879360199
1683009557014399700,19.921399658203125,1.2245999574661255,-0.20239999890327454,-0.1103999987244606
1683009557034399700,19.941399658203125,0.9474999904632568,0.059699997305870056,0.26479998230934143
1683009557054399700,19.961399658203124,0.5895999670028687,0.23279999196529388,0.6904000043869019
1683009557074399700,19.981399658203124,0.25279998779296875,0.33390000462532043,1.0273000001907349
1683009557094399700,20.001399658203123,0.012399999424815178,0.36739999055862427,1.5988999605178833
1683009557114399700,20.021399658203126,-0.21809999644756317,0.2645999789237976,2.3552000522613525
1683009557134399700,20.041399658203126,-0.3391000032424927,0.05429999902844429,3.1494998931884766
1683009557154399700,20.061399658203126,-0.4294999837875366,-0.5408999919891357,3.9326999187469482
1683009557174399700,20.081399658203125,-0.45069998502731323,-1.0123000144958496,4.399799823760986
1683009557194399700,20.101399658203125,-0.19909998774528503,-1.3873999118804932,3.993299961090088
1683009557214399700,20.121399658203124,0.0625,-1.4660999774932861,2.921099901199341
1683009557234399700,20.141399658203124,0.023599999025464058,-1.354599952697754,1.5261999368667603
1683009557254399700,20.161399658203123,-0.09479999542236328,-1.1672999858856201,0.5349000096321106
1683009557274399700,20.181399658203127,-0.4465999901294708,-0.8025999665260315,-0.17170000076293945
1683009557294399700,20.201399658203126,-0.7878999710083008,-0.4294999837875366,-0.8889999985694885
1683009557314399700,20.221399658203126,-0.8876999616622925,-0.2768999934196472,-1.2833999395370483
1683009557334399700,20.241399658203125,-0.6714999675750732,-0.23359999060630798,-1.4534000158309937
1683009557354399700,20.261399658203125,-0.34619998931884766,-0.15279999375343323,-1.2991999387741089
1683009557374399700,20.281399658203124,-0.12129999697208405,-0.07909999787807465,-1.0360000133514404
1683009557394399700,20.301399658203124,-0.006899999920278788,-0.07739999890327454,-0.9396999478340149
1683009557414399700,20.321399658203124,0.08829999715089798,-0.06199999898672104,-0.8341999650001526
1683009557434399700,20.341399658203127,0.0965999960899353,-0.03059999831020832,-0.9642999768257141
1683009557454399700,20.361399658203126,-0.027899999171495438,0.031599998474121094,-0.9369999766349792
1683009557474399700,20.381399658203126,-0.24939998984336853,0.17809998989105225,-1.1049000024795532
1683009557494399700,20.401399658203125,-0.40209999680519104,0.3337000012397766,-1.1243000030517578
1683009557514399700,20.421399658203125,-0.512499988079071,0.47419998049736023,-1.2513999938964844
1683009557534399700,20.441399658203125,-0.49139997363090515,0.623199999332428,-1.3787999153137207
1683009557554399700,20.461399658203124,-0.4966000020503998,0.7342999577522278,-1.496399998664856
1683009557574399700,20.481399658203124,-0.40549999475479126,0.7453999519348145,-1.4767999649047852
1683009557594399700,20.501399658203123,-0.32330000400543213,0.667199969291687,-1.4671999216079712
1683009557614399700,20.521399658203126,-0.19349999725818634,0.6279999613761902,-1.1730999946594238
1683009557634399700,20.541399658203126,-0.1508999913930893,0.5961999893188477,-0.7705999612808228
1683009557654399700,20.561399658203126,-0.12150000035762787,0.5880999565124512,-0.31839999556541443
1683009557674399700,20.581399658203125,-0.23559999465942383,0.512499988079071,0.09439999610185623
1683009557694399700,20.601399658203125,-0.17549999058246613,0.5029999613761902,0.26190000772476196
1683009557714399700,20.621399658203124,-0.1394999921321869,0.45069998502731323,0.1842999905347824
1683009557734399700,20.641399658203124,-0.03749999776482582,0.3920999765396118,-0.11879999935626984
1683009557754399700,20.661399658203123,-0.08579999953508377,0.24279999732971191,-0.31349998712539673
1683009557774399700,20.681399658203127,-0.13179999589920044,0.13199999928474426,-0.05729999765753746
1683009557794399700,20.701399658203126,-0.3700999915599823,0.10899999737739563,0.14069999754428864
1683009557814399700,20.721399658203126,-0.5884000062942505,0.25110000371932983,0.3886999785900116
1683009557834399700,20.741399658203125,-0.6367999911308289,0.4397999942302704,0.7353000044822693
1683009557854399700,20.761399658203125,-0.6297999620437622,0.5816999673843384,0.9941999912261963
1683009557874399700,20.781399658203124,-0.5769999623298645,0.6782000064849854,1.1841999292373657
1683009557894399700,20.801399658203124,-0.4017999768257141,0.4154999852180481,1.7563999891281128
1683009557914399700,20.821399658203124,-0.31700000166893005,0.04569999873638153,2.807799816131592
1683009557934399700,20.841399658203127,-0.11840000003576279,-0.002899999963119626,3.4370999336242676
1683009557954399700,20.861399658203126,0.10759999603033066,-0.0771000012755394,3.8137998580932617
1683009557974399700,20.881399658203126,0.1021999940276146,-0.016899999231100082,4.003600120544434
1683009557994399700,20.901399658203125,0.3610999882221222,-0.06939999759197235,4.045899868011475
1683009558014399700,20.921399658203125,0.3109999895095825,-0.0284000001847744,3.714399814605713
1683009558034399700,20.941399658203125,0.07669999450445175,0.1451999992132187,2.528899908065796
1683009558054399700,20.961399658203124,-0.22109998762607574,0.27309998869895935,0.8436999917030334
1683009558074399700,20.981399658203124,-0.11669999361038208,0.07079999893903732,-0.35040000081062317
1683009558094399700,21.001399658203123,-0.021299999207258224,-0.31689998507499695,-0.8974999785423279
1683009558114399700,21.021399658203126,-0.025200000032782555,-0.6118999719619751,-0.9846999645233154
1683009558134399700,21.041399658203126,-0.3490999937057495,-0.5801999568939209,-0.9063999652862549
1683009558154399700,21.061399658203126,-0.7135999798774719,-0.35819998383522034,-0.4860000014305115
1683009558174399700,21.081399658203125,-0.7407999634742737,-0.13220000267028809,-0.1454000025987625
1683009558194399700,21.101399658203125,-0.6875999569892883,-0.12439999729394913,-0.14839999377727509
1683009558214399700,21.121399658203124,-0.44039997458457947,-0.12559999525547028,-0.49399998784065247
1683009558234399700,21.141399658203124,-0.19839999079704285,-0.11149999499320984,-0.9080999493598938
1683009558254399700,21.161399658203123,-0.17729999125003815,-0.12029999494552612,-1.3229999542236328
1683009558274399700,21.181399658203127,-0.07739999890327454,-0.20229999721050262,-1.7577999830245972
1683009558294399700,21.201399658203126,0.0786999985575676,-0.24819999933242798,-2.0455000400543213
1683009558314399700,21.221399658203126,0.23149999976158142,-0.2912999987602234,-2.1952998638153076
1683009558334399700,21.241399658203125,0.3836999833583832,-0.24089999496936798,-2.1875998973846436
1683009558354399700,21.261399658203125,0.5087999701499939,-0.20499999821186066,-2.013000011444092
1683009558374399700,21.281399658203124,0.5191999673843384,-0.2256999909877777,-1.7207999229431152
1683009558394399700,21.301399658203124,0.4926999807357788,-0.3158999979496002,-1.2423999309539795
1683009558414399700,21.321399658203124,0.33379998803138733,-0.4277999997138977,-0.8519999980926514
1683009558434399700,21.341399658203127,0.2766000032424927,-0.5130999684333801,-0.4122999906539917
1683009558454399700,21.361399658203126,0.34360000491142273,-0.5577999949455261,-0.1387999951839447
1683009558474399700,21.381399658203126,0.5224999785423279,-0.41099998354911804,-0.16849999129772186
1683009558494399700,21.401399658203125,0.6176999807357788,-0.2996000051498413,-0.22679999470710754
1683009558514399700,21.421399658203125,0.6284999847412109,-0.13660000264644623,-0.06949999928474426
1683009558534399700,21.441399658203125,0.773099958896637,0.06109999865293503,-0.029899999499320984
1683009558554399700,21.461399658203124,0.8114999532699585,0.1516999900341034,0.28329998254776
1683009558574399700,21.481399658203124,0.6424999833106995,0.19409999251365662,0.4194999933242798
1683009558594399700,21.501399658203123,0.18199999630451202,0.08100000023841858,0.21329998970031738
1683009558614399700,21.521399658203126,0.05130000039935112,0.1046999990940094,0.2721000015735626
1683009558634399700,21.541399658203126,0.18879999220371246,0.13910000026226044,0.9494999647140503
1683009558654399700,21.561399658203126,0.2574000060558319,0.20399999618530273,1.6868999004364014
1683009558674399700,21.581399658203125,0.001500000013038516,-0.00989999994635582,2.492799997329712
1683009558694399700,21.601399658203125,-0.1290999948978424,-0.461899995803833,3.8068997859954834
1683009558714399700,21.621399658203124,-0.0405999980866909,-0.7228999733924866,4.87470006942749
1683009558734399700,21.641399658203124,0.23109999299049377,-0.882099986076355,5.0808000564575195
1683009558754399700,21.661399658203123,0.5801999568939209,-0.8571999669075012,4.709399700164795
1683009558774399700,21.681399658203127,0.7592999935150146,-0.48079997301101685,3.868499994277954
1683009558794399700,21.701399658203126,0.5309999585151672,-0.05979999899864197,2.529599905014038
1683009558814399700,21.721399658203126,-0.3446999788284302,0.14259999990463257,0.651699960231781
1683009558834399700,21.741399658203125,-0.9143999814987183,0.32099997997283936,-1.5505999326705933
1683009558854399700,21.761399658203125,-1.0484999418258667,0.041099999099969864,-2.9602999687194824
1683009558874399700,21.781399658203124,-0.9322999715805054,-0.14079999923706055,-3.281899929046631
1683009558894399700,21.801399658203124,-0.7346999645233154,-0.08799999952316284,-2.781599998474121
1683009558914399700,21.821399658203124,-0.7069999575614929,0.12199999392032623,-1.9894999265670776
1683009558934399700,21.841399658203127,-0.6987000107765198,0.2735999822616577,-1.6403999328613281
1683009558954399700,21.861399658203126,-0.5116999745368958,0.18699999153614044,-1.3127999305725098
1683009558974399700,21.881399658203126,-0.10499999672174454,0.14829999208450317,-0.769599974155426
1683009558994399700,21.901399658203125,0.07880000025033951,0.11859999597072601,-0.25429999828338623
1683009559014399700,21.921399658203125,0.11299999803304672,0.11029999703168869,0.037299998104572296
1683009559034399700,21.941399658203125,-0.09600000083446503,0.10520000010728836,-0.12199999392032623
1683009559054399700,21.961399658203124,-0.27649998664855957,0.008100000210106373,-0.5760999917984009
1683009559074399700,21.981399658203124,-0.3407000005245209,-0.19749999046325684,-0.8341999650001526
1683009559094399700,22.001399658203123,-0.3057999908924103,-0.30469998717308044,-0.9443999528884888
1683009559114399700,22.021399658203126,-0.3718000054359436,-0.2726999819278717,-0.9256999492645264
1683009559134399700,22.041399658203126,-0.5011000037193298,-0.10040000081062317,-0.847599983215332
1683009559154399700,22.061399658203126,-0.6229000091552734,0.12150000035762787,-0.6807999610900879
1683009559174399700,22.081399658203125,-0.7714999914169312,0.3261999785900116,-0.621999979019165
1683009559194399700,22.101399658203125,-0.9447999596595764,0.32919999957084656,-0.8574000000953674
1683009559214399700,22.121399658203124,-0.905299961566925,0.22809998691082,-0.9949999451637268
1683009559234399700,22.141399658203124,-0.7295999526977539,0.18379999697208405,-1.0148999691009521
1683009559254399700,22.161399658203123,-0.5370000004768372,0.1459999978542328,-0.818399965763092
1683009559274399700,22.181399658203127,-0.4185999929904938,0.18519999086856842,-0.5823000073432922
1683009559294399700,22.201399658203126,-0.2994000017642975,0.21809999644756317,-0.4244999885559082
1683009559314399700,22.221399658203126,-0.13570000231266022,0.1655000001192093,-0.2563000023365021
1683009559334399700,22.241399658203125,-0.017099998891353607,0.21619999408721924,0.06949999928474426
1683009559354399700,22.261399658203125,0.06019999831914902,0.4025999903678894,0.30809998512268066
1683009559374399700,22.281399658203124,-0.031099999323487282,0.6331999897956848,0.3511999845504761
1683009559394399700,22.301399658203124,-0.14669999480247498,0.8039999604225159,0.3652999997138977
1683009559414399700,22.321399658203124,-0.20669999718666077,0.8412999510765076,0.6931999921798706
1683009559434399700,22.341399658203127,-0.218299999833107,0.8847000002861023,1.1973999738693237
1683009559454399700,22.361399658203126,-0.12469999492168427,0.7283999919891357,2.3097000122070312
1683009559474399700,22.381399658203126,0.005799999926239252,0.4584999978542328,3.2639999389648438
1683009559494399700,22.401399658203125,0.3856000006198883,0.30239999294281006,3.3447999954223633
1683009559514399700,22.421399658203125,0.6000999808311462,0.12150000035762787,3.426100015640259
1683009559534399700,22.441399658203125,0.4730999767780304,-0.023499999195337296,3.7423999309539795
1683009559554399700,22.461399658203124,0.2838999927043915,0.02329999953508377,3.852599859237671
1683009559574399700,22.481399658203124,-0.017899999395012856,0.08129999786615372,3.334699869155884
1683009559594399700,22.501399658203123,0.013799999840557575,0.11229999363422394,1.6993999481201172
1683009559614399700,22.521399658203126,0.6435999870300293,0.04019999876618385,-0.04360000044107437
1683009559634399700,22.541399658203126,1.2877999544143677,-0.2915000021457672,-1.0384999513626099
1683009559654399700,22.561399658203126,1.5867999792099,-0.47189998626708984,-1.1960999965667725
1683009559674399700,22.581399658203125,1.0300999879837036,-0.5284000039100647,-0.45329999923706055
1683009559694399700,22.601399658203125,0.10949999839067459,-0.5115000009536743,0.3427000045776367
1683009559714399700,22.621399658203124,-0.5302000045776367,-0.468999981880188,0.6542999744415283
1683009559734399700,22.641399658203124,-0.8481999635696411,-0.513700008392334,0.5221999883651733
1683009559754399700,22.661399658203123,-0.7191999554634094,-0.8080999851226807,-0.08819999545812607
1683009559774399700,22.681399658203127,-0.2856000065803528,-0.9116999506950378,-0.9512999653816223
1683009559794399700,22.701399658203126,-0.015799999237060547,-0.9483999609947205,-1.5197999477386475
1683009559814399700,22.721399658203126,-0.03659999743103981,-0.8037999868392944,-1.9911999702453613
1683009559834399700,22.741399658203125,-0.17149999737739563,-0.6571999788284302,-2.30679988861084
1683009559854399700,22.761399658203125,-0.34379997849464417,-0.4607999920845032,-2.319200038909912
1683009559874399700,22.781399658203124,-0.5084999799728394,-0.2944999933242798,-2.253499984741211
1683009559894399700,22.801399658203124,-0.6087999939918518,-0.14309999346733093,-1.9710999727249146
1683009559914399700,22.821399658203124,-0.6534000039100647,-0.09719999879598618,-1.501599907875061
1683009559934399700,22.841399658203127,-0.6184999942779541,-0.1306999921798706,-0.924299955368042
1683009559954399700,22.861399658203126,-0.38439998030662537,-0.13679999113082886,-0.3669999837875366
1683009559974399700,22.881399658203126,-0.19609999656677246,-0.12469999492168427,-0.13369999825954437
1683009559994401300,22.9014013671875,0.09189999848604202,-0.13699999451637268,-0.11669999361038208
1683009560014399700,22.921399658203125,0.4633999764919281,-0.15449999272823334,-0.2757999897003174
1683009560034399700,22.941399658203125,0.8066999912261963,-0.125900000333786,-0.38519999384880066
1683009560054399700,22.961399658203124,0.8723999857902527,-0.20389999449253082,-0.20960000157356262
1683009560074401300,22.9814013671875,0.934499979019165,-0.12960000336170197,0.07349999994039536
1683009560094399700,23.001399658203123,0.9023999571800232,-0.017899999395012856,0.6416000127792358
1683009560114399700,23.021399658203126,0.8441999554634094,0.210999995470047,1.347499966621399
1683009560134399700,23.041399658203126,0.8545999526977539,0.4355999827384949,1.8678998947143555
1683009560154399700,23.061399658203126,1.0626999139785767,0.6484000086784363,2.182299852371216
1683009560174399700,23.081399658203125,1.434000015258789,0.6882999539375305,2.5553998947143555
1683009560194399700,23.101399658203125,1.719599962234497,0.5845999717712402,3.379699945449829
1683009560214401300,23.1214013671875,1.743299961090088,0.6080999970436096,4.419699668884277
1683009560234399700,23.141399658203124,1.4667999744415283,0.7892999649047852,4.890699863433838
1683009560254399700,23.161399658203123,0.9813999533653259,0.7466999888420105,4.546899795532227
1683009560274401300,23.1814013671875,0.48799997568130493,0.49559998512268066,3.1419999599456787
1683009560294399700,23.201399658203126,0.1671999990940094,0.3425000011920929,1.431999921798706
1683009560314399700,23.221399658203126,-0.14149999618530273,0.296099990606308,-0.00139999995008111
1683009560334399700,23.241399658203125,-0.5152999758720398,0.31769999861717224,-1.4917999505996704
1683009560354401300,23.2614013671875,-0.8141999840736389,0.09769999980926514,-2.5219998359680176
1683009560374399700,23.281399658203124,-1.0490999221801758,-0.14190000295639038,-2.574399948120117
1683009560394399700,23.301399658203124,-1.0949000120162964,-0.2434999942779541,-2.3729000091552734
1683009560414399700,23.321399658203124,-1.0520999431610107,-0.2709999978542328,-1.788599967956543
1683009560434401300,23.3414013671875,-1.0217000246047974,-0.41449999809265137,-1.2841999530792236
1683009560454399700,23.361399658203126,-0.8829999566078186,-0.5390999913215637,-0.9567999839782715
1683009560474399700,23.381399658203126,-0.6796000003814697,-0.6566999554634094,-0.6288999915122986
1683009560494401300,23.4014013671875,-0.5209999680519104,-0.6547999978065491,-0.4764999747276306
1683009560514399700,23.421399658203125,-0.5906999707221985,-0.6908999681472778,-0.6177999973297119
1683009560534399700,23.441399658203125,-0.582099974155426,-0.5885999798774719,-0.9246000051498413
1683009560554399700,23.461399658203124,-0.49069997668266296,-0.5855000019073486,-1.0440999269485474
1683009560574399700,23.481399658203124,-0.5051000118255615,-0.5769000053405762,-1.084999918937683
1683009560594402800,23.50140283203125,-0.7033999562263489,-0.5899999737739563,-1.0963000059127808
1683009560614399700,23.521399658203126,-0.8436999917030334,-0.5135999917984009,-1.0776000022888184
1683009560634399700,23.541399658203126,-0.7454999685287476,-0.3580999970436096,-1.0295000076293945
1683009560654401300,23.5614013671875,-0.62909996509552,-0.23569999635219574,-0.9425999522209167
1683009560674399700,23.581399658203125,-0.5627999901771545,-0.1898999959230423,-0.9437999725341797
1683009560694399700,23.601399658203125,-0.5752999782562256,-0.21089999377727509,-0.9839999675750732
1683009560714401300,23.6214013671875,-0.5081999897956848,-0.22789999842643738,-1.0437999963760376
1683009560734399700,23.641399658203124,-0.2970999777317047,-0.18809999525547028,-1.073599934577942
1683009560754399700,23.661399658203123,-0.08839999884366989,-0.06539999693632126,-0.9553999900817871
1683009560774399700,23.681399658203127,-0.10040000081062317,0.09910000115633011,-0.7486000061035156
1683009560794399700,23.701399658203126,-0.17389999330043793,0.2565000057220459,-0.4034999907016754
1683009560814399700,23.721399658203126,-0.32909998297691345,0.4596000015735626,-0.008299999870359898
1683009560834399700,23.741399658203125,-0.30559998750686646,0.6376999616622925,0.3391000032424927
1683009560854399700,23.761399658203125,-0.2712000012397766,0.7764999866485596,0.4032000005245209
1683009560874399700,23.781399658203124,-0.0828000009059906,0.8301999568939209,0.8402000069618225
1683009560894402800,23.80140283203125,-0.003700000001117587,0.9448999762535095,1.5033999681472778
1683009560914402800,23.82140283203125,0.2004999965429306,0.9905999898910522,2.382999897003174
1683009560934401300,23.8414013671875,0.2791000008583069,0.8238999843597412,3.1935999393463135
1683009560954399700,23.861399658203126,0.1679999977350235,0.2759000062942505,4.395100116729736
1683009560974399700,23.881399658203126,-0.20149999856948853,-0.0714000016450882,5.526099681854248
1683009560994399700,23.901399658203125,-0.46879997849464417,-0.18649999797344208,5.148099899291992
1683009561014399700,23.921399658203125,-0.38439998030662537,-0.19529999792575836,4.054999828338623
1683009561034399700,23.941399658203125,-0.10449999570846558,-0.3245999813079834,2.8028998374938965
1683009561054399700,23.961399658203124,-0.022599998861551285,-0.27489998936653137,1.0900999307632446
1683009561074401300,23.9814013671875,-0.3779999911785126,-0.02449999935925007,-0.48339998722076416
1683009561094399700,24.001399658203123,-0.28949999809265137,0.22369998693466187,-1.8773999214172363
1683009561114399700,24.021399658203126,0.18209999799728394,0.23439998924732208,-2.2913999557495117
1683009561134402800,24.04140283203125,0.7389999628067017,0.16019999980926514,-1.6785999536514282
1683009561154402800,24.06140283203125,0.9921000003814697,0.2500999867916107,-0.9869999885559082
1683009561174399700,24.081399658203125,0.8435999751091003,0.3333999812602997,-0.38199999928474426
1683009561194399700,24.101399658203125,0.613099992275238,0.31919997930526733,-0.03280000016093254
1683009561214401300,24.1214013671875,0.4211999773979187,0.27549999952316284,0.06759999692440033
1683009561234399700,24.141399658203124,0.38819998502731323,0.2766000032424927,-0.2360999882221222
1683009561254399700,24.161399658203123,0.536799967288971,0.22769999504089355,-0.7657999992370605
1683009561274399700,24.181399658203127,0.6229000091552734,0.17379999160766602,-1.2558000087738037
1683009561294399700,24.201399658203126,0.616100013256073,0.16990000009536743,-1.5784999132156372
1683009561314399700,24.221399658203126,0.5038999915122986,0.23309999704360962,-1.6059999465942383
1683009561334399700,24.241399658203125,0.32850000262260437,0.36249998211860657,-1.5052999258041382
1683009561354399700,24.261399658203125,0.20679999887943268,0.5740999579429626,-1.3946999311447144
1683009561374399700,24.281399658203124,0.21629999577999115,0.7297999858856201,-1.1761000156402588
1683009561394399700,24.301399658203124,0.27459999918937683,0.833299994468689,-0.9873999953269958
1683009561414399700,24.321399658203124,0.3105999827384949,0.8693000078201294,-0.9271999597549438
1683009561434401300,24.3414013671875,0.2069999873638153,0.8748999834060669,-0.8095999956130981
1683009561454399700,24.361399658203126,0.20430000126361847,0.8614999651908875,-0.6643999814987183
1683009561474399700,24.381399658203126,0.2595999836921692,0.8003000020980835,-0.609499990940094
1683009561494399700,24.401399658203125,0.4212999939918518,0.7821999788284302,-0.4973999857902527
1683009561514399700,24.421399658203125,0.5702999830245972,0.732699990272522,-0.4449999928474426
1683009561534399700,24.441399658203125,0.7730000019073486,0.6329999566078186,-0.4714999794960022
1683009561554399700,24.461399658203124,0.9289999604225159,0.5462999939918518,-0.5171999931335449
1683009561574401300,24.4814013671875,1.0830999612808228,0.40789997577667236,-0.5810999870300293
1683009561594399700,24.501399658203123,1.2523000240325928,0.368399977684021,-0.44699999690055847
1683009561614399700,24.521399658203126,1.1108999252319336,0.2798999845981598,-0.027400000020861626
1683009561634401300,24.5414013671875,1.4526000022888184,0.2433999925851822,0.3434000015258789
1683009561654401300,24.5614013671875,1.604099988937378,0.3480999767780304,0.6067000031471252
1683009561674399700,24.581399658203125,1.7929999828338623,0.3522999882698059,0.7946999669075012
1683009561694399700,24.601399658203125,1.6475999355316162,0.550599992275238,0.955299973487854
1683009561714401300,24.6214013671875,1.3925999402999878,0.5640999674797058,1.2633999586105347
1683009561734399700,24.641399658203124,1.2703999280929565,0.32729998230934143,1.9830999374389648
1683009561754399700,24.661399658203123,1.249400019645691,0.14159999787807465,3.1029000282287598
