time,seconds_elapsed,z,y,x
1683009537134399700,0.041399658203125,2.1064000129699707,-0.17499999701976776,9.576099395751953
1683009537154406000,0.061406005859375,2.1064000129699707,-0.17499999701976776,9.576099395751953
1683009537174399700,0.081399658203125,1.2847999334335327,-0.7920999526977539,9.68970012664795
1683009537194399700,0.101399658203125,1.2841999530792236,-0.7914999723434448,9.689899444580078
1683009537214399700,0.121399658203125,1.2811999320983887,-0.7958999872207642,9.689899444580078
1683009537234399700,0.141399658203125,1.2876999378204346,-0.800599992275238,9.688699722290039
1683009537254399700,0.161399658203125,1.2732999324798584,-0.7597000002861023,9.69379997253418
1683009537274399700,0.181399658203125,1.2177000045776367,-0.7480999827384949,9.701899528503418
1683009537294399700,0.201399658203125,1.2039999961853027,-0.7461999654769897,9.703800201416016
1683009537314399700,0.221399658203125,1.2027000188827515,-0.746999979019165,9.703800201416016
1683009537334399700,0.241399658203125,1.2264000177383423,-0.7443999648094177,9.701099395751953
1683009537354399700,0.261399658203125,1.3738999366760254,-0.7105000019073486,9.683799743652344
1683009537374399700,0.281399658203125,1.4268999099731445,-0.6453999876976013,9.680699348449707
1683009537394399700,0.301399658203125,1.4538999795913696,-0.5697999596595764,9.681499481201172
1683009537414399700,0.321399658203125,1.4544999599456787,-0.5067999958992004,9.68489933013916
1683009537434399700,0.341399658203125,1.4430999755859375,-0.4684999883174896,9.688499450683594
1683009537454399700,0.361399658203125,1.4006999731063843,-0.43789997696876526,9.696199417114258
1683009537474399700,0.381399658203125,1.3280999660491943,-0.36399999260902405,9.709400177001953
1683009537494399700,0.401399658203125,1.3377999067306519,-0.33489999175071716,9.709099769592285
1683009537514399700,0.421399658203125,1.3528999090194702,-0.2897999882698059,9.708499908447266
1683009537534399700,0.441399658203125,1.3355000019073486,-0.21249999105930328,9.712900161743164
1683009537554399700,0.461399658203125,1.334999918937683,-0.1623999923467636,9.713899612426758
1683009537574399700,0.481399658203125,1.3298999071121216,-0.1273999959230423,9.71519947052002
1683009537594399700,0.501399658203125,1.3106999397277832,-0.09839999675750732,9.718099594116211
1683009537614399700,0.521399658203125,1.3004000186920166,-0.0697999969124794,9.71969985961914
1683009537634399700,0.541399658203125,1.3018999099731445,-0.03319999948143959,9.71969985961914
1683009537654399700,0.561399658203125,1.2918999195098877,0.014299999922513962,9.721099853515625
1683009537674399700,0.581399658203125,1.2695000171661377,0.0632999986410141,9.723899841308594
1683009537694399700,0.601399658203125,1.2795000076293945,0.1096000000834465,9.722099304199219
1683009537714399700,0.621399658203125,1.2904999256134033,0.14970000088214874,9.720199584960938
1683009537734399700,0.641399658203125,1.2943999767303467,0.17399999499320984,9.719200134277344
1683009537754399700,0.661399658203125,1.2967000007629395,0.1800999939441681,9.718799591064453
1683009537774399700,0.681399658203125,1.2907999753952026,0.171999990940094,9.71969985961914
1683009537794399700,0.701399658203125,1.2868000268936157,0.1614999920129776,9.720499992370605
1683009537814399700,0.721399658203125,1.2822999954223633,0.15760000050067902,9.721099853515625
1683009537834399700,0.741399658203125,1.2760000228881836,0.15439999103546143,9.722000122070312
1683009537854399700,0.761399658203125,1.2711999416351318,0.14459998905658722,9.722799301147461
1683009537874399700,0.781399658203125,1.280900001525879,0.12839999794960022,9.721699714660645
1683009537894399700,0.801399658203125,1.2975999116897583,0.11649999767541885,9.71969985961914
1683009537914399700,0.821399658203125,1.2943999767303467,0.11889999359846115,9.720099449157715
1683009537934399700,0.841399658203125,1.2776999473571777,0.09429999440908432,9.72249984741211
1683009537954399700,0.861399658203125,1.2587999105453491,0.038599997758865356,9.7253999710083
1683009537974399700,0.881399658203125,1.226599931716919,-0.03059999831020832,9.729499816894531
1683009537994399700,0.901399658203125,1.1904000043869019,-0.10749999433755875,9.733499526977539
1683009538014399700,0.921399658203125,1.1887999773025513,-0.18779999017715454,9.732500076293945
1683009538034399700,0.941399658203125,1.2070999145507812,-0.21459999680519104,9.729700088500977
1683009538054399700,0.961399658203125,1.2161999940872192,-0.1859000027179718,9.729100227355957
1683009538074399700,0.981399658203125,1.2103999853134155,-0.13359999656677246,9.73069953918457
1683009538094399700,1.001399658203125,1.2103999853134155,-0.08249999582767487,9.73129940032959
1683009538114399700,1.021399658203125,1.226599931716919,-0.02669999934732914,9.729499816894531
1683009538134399700,1.041399658203125,1.2429999113082886,0.030700000002980232,9.727499961853027
1683009538154399700,1.061399658203125,1.2501999139785767,0.0697999969124794,9.726299285888672
1683009538174399700,1.081399658203125,1.249899983406067,0.0771000012755394,9.726299285888672
1683009538194399700,1.101399658203125,1.2375999689102173,0.06579999625682831,9.727999687194824
1683009538214399700,1.121399658203125,1.2156000137329102,0.042899999767541885,9.730899810791016
1683009538234399700,1.141399658203125,1.181399941444397,0.0031999999191612005,9.735199928283691
1683009538254399700,1.161399658203125,1.1611000299453735,-0.043299999088048935,9.737500190734863
1683009538274399700,1.181399658203125,1.1690999269485474,-0.07400000095367432,9.73639965057373
1683009538294399700,1.201399658203125,1.208400011062622,-0.0771000012755394,9.731599807739258
1683009538314399700,1.221399658203125,1.2690999507904053,-0.04879999905824661,9.723999977111816
1683009538334399700,1.241399658203125,1.2982999086380005,-0.0011999999405816197,9.72029972076416
1683009538354399700,1.261399658203125,1.2812999486923218,0.027699999511241913,9.72249984741211
1683009538374399700,1.281399658203125,1.2246999740600586,0.020099999383091927,9.7298002243042
1683009538394399700,1.301399658203125,1.156499981880188,-0.012000000104308128,9.738200187683105
1683009538414399700,1.321399658203125,1.1028000116348267,-0.02979999966919422,9.74429988861084
1683009538434399700,1.341399658203125,1.094099998474121,-0.02449999935925007,9.745299339294434
1683009538454399700,1.361399658203125,1.1273000240325928,-0.010499999858438969,9.741600036621094
1683009538474399700,1.381399658203125,1.173200011253357,-0.002099999925121665,9.736199378967285
1683009538494399700,1.401399658203125,1.1900999546051025,-0.000699999975040555,9.734099388122559
1683009538514399700,1.421399658203125,1.187600016593933,-0.004299999680370092,9.734399795532227
1683009538534399700,1.441399658203125,1.1786999702453613,-0.01979999989271164,9.735499382019043
1683009538554399700,1.461399658203125,1.1560999155044556,-0.04639999940991402,9.738100051879883
1683009538574399700,1.481399658203125,1.1093000173568726,-0.07909999787807465,9.74329948425293
1683009538594399700,1.501399658203125,1.0383999347686768,-0.10979999601840973,9.750800132751465
1683009538614399700,1.521399658203125,0.9578999876976013,-0.12529999017715454,9.758899688720703
1683009538634399700,1.541399658203125,0.8739999532699585,-0.11729999631643295,9.766900062561035
1683009538654399700,1.561399658203125,0.8129000067710876,-0.08429999649524689,9.772500038146973
1683009538674399700,1.581399658203125,0.7818999886512756,-0.026099998503923416,9.775300025939941
1683009538694399700,1.601399658203125,0.7901999950408936,0.038599997758865356,9.7746000289917
1683009538714402800,1.62140283203125,0.833299994468689,0.0940999984741211,9.770699501037598
1683009538734399700,1.641399658203125,0.8781999945640564,0.13329999148845673,9.766300201416016
1683009538754399700,1.661399658203125,0.9034000039100647,0.15240000188350677,9.763699531555176
1683009538774401300,1.6814013671875,0.8899999856948853,0.1469999998807907,9.764999389648438
1683009538794399700,1.701399658203125,0.8496999740600586,0.11979999393224716,9.769000053405762
1683009538814399700,1.721399658203125,0.8222999572753906,0.09380000084638596,9.771599769592285
1683009538834399700,1.741399658203125,0.8163999915122986,0.09470000118017197,9.772099494934082
1683009538854399700,1.761399658203125,0.8029999732971191,0.1021999940276146,9.773099899291992
1683009538874399700,1.781399658203125,0.8062999844551086,0.09829999506473541,9.772899627685547
1683009538894399700,1.801399658203125,0.8317999839782715,0.11599999666213989,9.770599365234375
1683009538914401300,1.8214013671875,0.8615999817848206,0.16979999840259552,9.767199516296387
1683009538934399700,1.841399658203125,0.8761999607086182,0.24719999730587006,9.764200210571289
1683009538954399700,1.861399658203125,0.8774999976158142,0.32189998030662537,9.76200008392334
1683009538974399700,1.881399658203125,0.8746999502182007,0.36809998750686646,9.760600090026855
1683009538994399700,1.901399658203125,0.8691999912261963,0.3847000002861023,9.76039981842041
1683009539014399700,1.921399658203125,0.8613999485969543,0.3854999840259552,9.761099815368652
1683009539034399700,1.941399658203125,0.8529999852180481,0.3716000020503998,9.762399673461914
1683009539054401300,1.9614013671875,0.8500999808311462,0.34849998354911804,9.763500213623047
1683009539074399700,1.981399658203125,0.8525999784469604,0.3249000012874603,9.764100074768066
1683009539094399700,2.001399658203125,0.8583999872207642,0.3034999966621399,9.764200210571289
1683009539114399700,2.021399658203125,0.8527999520301819,0.27969998121261597,9.765399932861328
1683009539134401300,2.0414013671875,0.8373000025749207,0.2529999911785126,9.767499923706055
1683009539154399700,2.061399658203125,0.8198999762535095,0.23330000042915344,9.769499778747559
1683009539174399700,2.081399658203125,0.8019999861717224,0.2256999909877777,9.771100044250488
1683009539194401300,2.1014013671875,0.7875999808311462,0.23279999196529388,9.772099494934082
1683009539214399700,2.121399658203125,0.7793999910354614,0.24879999458789825,9.77239990234375
1683009539234399700,2.141399658203125,0.7732999920845032,0.2639999985694885,9.772500038146973
1683009539254399700,2.161399658203125,0.7572999596595764,0.27629998326301575,9.773399353027344
1683009539274401300,2.1814013671875,0.7436999678611755,0.28839999437332153,9.774099349975586
1683009539294399700,2.201399658203125,0.7430999875068665,0.2953000068664551,9.773900032043457
1683009539314399700,2.221399658203125,0.7473999857902527,0.2944999933242798,9.773599624633789
1683009539334399700,2.241399658203125,0.7623999714851379,0.2821999788284302,9.772799491882324
1683009539354399700,2.261399658203125,0.7813000082969666,0.2629999816417694,9.771900177001953
1683009539374399700,2.281399658203125,0.8036999702453613,0.23739999532699585,9.770699501037598
1683009539394399700,2.301399658203125,0.8348999619483948,0.21319998800754547,9.768699645996094
1683009539414401300,2.3214013671875,0.8774999976158142,0.19839999079704285,9.765199661254883
1683009539434399700,2.341399658203125,0.9239999651908875,0.19359999895095825,9.76099967956543
1683009539454399700,2.361399658203125,0.9896000027656555,0.1938999891281128,9.754599571228027
1683009539474399700,2.381399658203125,1.0358999967575073,0.18029999732971191,9.750100135803223
1683009539494399700,2.401399658203125,1.053399920463562,0.15309999883174896,9.748700141906738
1683009539514399700,2.421399658203125,1.058899998664856,0.11249999701976776,9.748600006103516
1683009539534399700,2.441399658203125,1.0806999206542969,0.08799999952316284,9.746500015258789
1683009539554401300,2.4614013671875,1.086899995803833,0.07180000096559525,9.74590015411377
1683009539574399700,2.481399658203125,1.097100019454956,0.04519999772310257,9.74489974975586
1683009539594399700,2.501399658203125,1.1186000108718872,0.015699999406933784,9.742599487304688
1683009539614399700,2.521399658203125,1.1575000286102295,0.0008999999845400453,9.73799991607666
1683009539634399700,2.541399658203125,1.1974999904632568,0.00699999975040555,9.733200073242188
1683009539654399700,2.561399658203125,1.2171999216079712,0.016200000420212746,9.730799674987793
1683009539674399700,2.581399658203125,1.2121999263763428,-0.0010999999940395355,9.731399536132812
1683009539694401300,2.6014013671875,1.1870999336242676,-0.035499997437000275,9.734399795532227
1683009539714401300,2.6214013671875,1.1531000137329102,-0.06960000097751617,9.738299369812012
1683009539734399700,2.641399658203125,1.125100016593933,-0.09999999403953552,9.741299629211426
1683009539754399700,2.661399658203125,1.1150000095367432,-0.1216999962925911,9.742199897766113
1683009539774401300,2.6814013671875,1.121899962425232,-0.13859999179840088,9.741199493408203
1683009539794399700,2.701399658203125,1.1335999965667725,-0.15160000324249268,9.739699363708496
1683009539814399700,2.721399658203125,1.1311999559402466,-0.16539999842643738,9.739699363708496
1683009539834402800,2.74140283203125,1.1205999851226807,-0.1834999918937683,9.740599632263184
1683009539854399700,2.761399658203125,1.1083999872207642,-0.19949999451637268,9.741700172424316
1683009539874399700,2.781399658203125,1.090399980545044,-0.20759999752044678,9.743599891662598
1683009539894399700,2.801399658203125,1.0555999279022217,-0.20899999141693115,9.74739933013916
1683009539914401300,2.8214013671875,1.0051000118255615,-0.20719999074935913,9.752799987792969
1683009539934399700,2.841399658203125,0.9456999897956848,-0.2035999894142151,9.75879955291748
1683009539954399700,2.861399658203125,0.8996999859809875,-0.19519999623298645,9.763299942016602
1683009539974399700,2.881399658203125,0.8575999736785889,-0.19999998807907104,9.767000198364258
1683009539994399700,2.901399658203125,0.8301999568939209,-0.21059998869895935,9.769100189208984
1683009540014399700,2.921399658203125,0.8126999735832214,-0.21289999783039093,9.770500183105469
1683009540034399700,2.941399658203125,0.7980999946594238,-0.20809999108314514,9.771900177001953
1683009540054401300,2.9614013671875,0.7892999649047852,-0.19659999012947083,9.772799491882324
1683009540074399700,2.981399658203125,0.7853999733924866,-0.18230000138282776,9.773399353027344
1683009540094399700,3.001399658203125,0.786799967288971,-0.17499999701976776,9.773399353027344
1683009540114402800,3.02140283203125,0.7953999638557434,-0.1695999950170517,9.772799491882324
1683009540134401300,3.0414013671875,0.8096999526023865,-0.171999990940094,9.771599769592285
1683009540154399700,3.061399658203125,0.8445999622344971,-0.19439999759197235,9.768199920654297
1683009540174399700,3.081399658203125,0.9151999950408936,-0.24049998819828033,9.760799407958984
1683009540194399700,3.101399658203125,1.042699933052063,-0.3149999976158142,9.74590015411377
1683009540214399700,3.121399658203125,1.180400013923645,-0.4145999848842621,9.726499557495117
1683009540234399700,3.141399658203125,1.2180999517440796,-0.4724999964237213,9.719200134277344
1683009540254399700,3.161399658203125,1.1689000129699707,-0.47769999504089355,9.72499942779541
1683009540274399700,3.181399658203125,1.0943999290466309,-0.4342999756336212,9.735699653625488
1683009540294399700,3.201399658203125,1.0360000133514404,-0.4138999879360199,9.742899894714355
1683009540314399700,3.221399658203125,0.9930999875068665,-0.40459999442100525,9.74779987335205
1683009540334399700,3.241399658203125,0.9763999581336975,-0.38509997725486755,9.750299453735352
1683009540354399700,3.261399658203125,0.9661999940872192,-0.343099981546402,9.752799987792969
1683009540374399700,3.281399658203125,0.9633999466896057,-0.2782999873161316,9.755199432373047
1683009540394399700,3.301399658203125,0.9560999870300293,-0.20629999041557312,9.757699966430664
1683009540414399700,3.321399658203125,0.9345999956130981,-0.14669999480247498,9.760899543762207
1683009540434399700,3.341399658203125,0.9005999565124512,-0.11919999867677689,9.764399528503418
1683009540454399700,3.361399658203125,0.8596000075340271,-0.11339999735355377,9.768199920654297
1683009540474399700,3.381399658203125,0.8278999924659729,-0.10499999672174454,9.770999908447266
1683009540494399700,3.401399658203125,0.8138999938964844,-0.08379999548196793,9.77239990234375
1683009540514399700,3.421399658203125,0.823199987411499,-0.0575999990105629,9.77180004119873
1683009540534399700,3.441399658203125,0.843999981880188,-0.04809999838471413,9.770099639892578
1683009540554399700,3.461399658203125,0.8757999539375305,-0.054499998688697815,9.76729965209961
1683009540574399700,3.481399658203125,0.9032999873161316,-0.06610000133514404,9.764699935913086
1683009540594399700,3.501399658203125,0.9186999797821045,-0.08169999718666077,9.763099670410156
1683009540614399700,3.521399658203125,0.9187999963760376,-0.1021999940276146,9.762899398803711
1683009540634399700,3.541399658203125,0.9195999503135681,-0.12870000302791595,9.762499809265137
1683009540654399700,3.561399658203125,0.9098999500274658,-0.15289999544620514,9.763099670410156
1683009540674399700,3.581399658203125,0.8865999579429626,-0.1606999933719635,9.76509952545166
1683009540694399700,3.601399658203125,0.8654999732971191,-0.1551000028848648,9.767099380493164
1683009540714399700,3.621399658203125,0.858299970626831,-0.14559999108314514,9.767899513244629
1683009540734399700,3.641399658203125,0.8784999847412109,-0.12879998981952667,9.766300201416016
1683009540754399700,3.661399658203125,0.9199999570846558,-0.10319999605417252,9.762800216674805
1683009540774399700,3.681399658203125,0.9648000001907349,-0.07669999450445175,9.758699417114258
1683009540794399700,3.701399658203125,1.0012999773025513,-0.05509999766945839,9.755199432373047
1683009540814399700,3.721399658203125,1.0219999551773071,-0.043800000101327896,9.75309944152832
1683009540834399700,3.741399658203125,1.0270999670028687,-0.044999998062849045,9.752599716186523
1683009540854399700,3.761399658203125,1.0219999551773071,-0.0568000003695488,9.752999305725098
1683009540874399700,3.781399658203125,1.0174999237060547,-0.07369999587535858,9.753399848937988
1683009540894399700,3.801399658203125,1.003499984741211,-0.08940000087022781,9.75469970703125
1683009540914399700,3.821399658203125,0.9765999913215637,-0.0876999944448471,9.757499694824219
1683009540934399700,3.841399658203125,0.9301999807357788,-0.06870000064373016,9.762100219726562
1683009540954399700,3.861399658203125,0.8837999701499939,-0.042500000447034836,9.766599655151367
1683009540974399700,3.881399658203125,0.8671000003814697,-0.0044999998062849045,9.768199920654297
1683009540994399700,3.901399658203125,0.8628000020980835,0.036399997770786285,9.768499374389648
1683009541014399700,3.921399658203125,0.8567999601364136,0.058799996972084045,9.768899917602539
1683009541034399700,3.941399658203125,0.8664000034332275,0.06560000032186508,9.767999649047852
1683009541054399700,3.961399658203125,0.9086999893188477,0.07660000026226044,9.764100074768066
1683009541074399700,3.981399658203125,0.9628999829292297,0.10579999536275864,9.758599281311035
1683009541094399700,4.001399658203125,0.9996999502182007,0.1462000012397766,9.754399299621582
1683009541114399700,4.021399658203125,1.0369999408721924,0.18619999289512634,9.749799728393555
1683009541134399700,4.041399658203125,1.0583999156951904,0.20719999074935913,9.747099876403809
1683009541154399700,4.061399658203125,1.0329999923706055,0.19059999287128448,9.750199317932129
1683009541174399700,4.081399658203125,0.9876999855041504,0.1436000019311905,9.75570011138916
1683009541194399700,4.101399658203125,0.9573999643325806,0.08410000056028366,9.7593994140625
1683009541214399700,4.121399658203125,0.9485999941825867,0.03680000081658363,9.760499954223633
1683009541234399700,4.141399658203125,0.9599999785423279,0.010599999688565731,9.759499549865723
1683009541254402800,4.16140283203125,0.9899999499320984,-0.0016999999061226845,9.756499290466309
1683009541274401300,4.1814013671875,1.0240999460220337,-0.010799999348819256,9.752999305725098
1683009541294399700,4.201399658203125,1.042099952697754,-0.019600000232458115,9.751099586486816
1683009541314399700,4.221399658203125,1.0384999513626099,-0.03350000083446503,9.751399993896484
1683009541334399700,4.241399658203125,1.0168999433517456,-0.05159999802708626,9.753600120544434
1683009541354399700,4.261399658203125,0.9851999878883362,-0.07400000095367432,9.756699562072754
1683009541374399700,4.281399658203125,0.958299994468689,-0.09950000047683716,9.759200096130371
1683009541394399700,4.301399658203125,0.9320999979972839,-0.12879998981952667,9.761300086975098
1683009541414401300,4.3214013671875,0.9045999646186829,-0.1581999957561493,9.763500213623047
1683009541434399700,4.341399658203125,0.8779999613761902,-0.18299999833106995,9.76550006866455
1683009541454399700,4.361399658203125,0.8610999584197998,-0.20809999108314514,9.766499519348145
1683009541474399700,4.381399658203125,0.8434000015258789,-0.241799995303154,9.76729965209961
1683009541494399700,4.401399658203125,0.8240999579429626,-0.28039997816085815,9.767899513244629
1683009541514399700,4.421399658203125,0.8023999929428101,-0.30979999899864197,9.768799781799316
1683009541534399700,4.441399658203125,0.7899999618530273,-0.3236999809741974,9.769399642944336
1683009541554401300,4.4614013671875,0.7810999751091003,-0.3245999813079834,9.769999504089355
1683009541574399700,4.481399658203125,0.7768999934196472,-0.322299987077713,9.770500183105469
1683009541594399700,4.501399658203125,0.7723999619483948,-0.31929999589920044,9.770899772644043
1683009541614399700,4.521399658203125,0.7506999969482422,-0.31949999928474426,9.772600173950195
1683009541634401300,4.5414013671875,0.7256999611854553,-0.31949999928474426,9.774499893188477
1683009541654399700,4.561399658203125,0.7027999758720398,-0.3149999976158142,9.776299476623535
1683009541674399700,4.581399658203125,0.689799964427948,-0.3046000003814697,9.777599334716797
1683009541694401300,4.6014013671875,0.6962999701499939,-0.27639999985694885,9.777899742126465
1683009541714401300,4.6214013671875,0.7075999975204468,-0.23319999873638153,9.778299331665039
1683009541734399700,4.641399658203125,0.7001000046730042,-0.18809999525547028,9.779799461364746
1683009541754399700,4.661399658203125,0.6590999960899353,-0.1477999985218048,9.783299446105957
1683009541774401300,4.6814013671875,0.6115999817848206,-0.10599999874830246,9.78689956665039
1683009541794399700,4.701399658203125,0.5965999960899353,-0.05299999937415123,9.788299560546875
1683009541814399700,4.721399658203125,0.6186999678611755,0.020899999886751175,9.786999702453613
1683009541834399700,4.741399658203125,0.6665999889373779,0.10130000114440918,9.78339958190918
1683009541854399700,4.761399658203125,0.7206000089645386,0.17319999635219574,9.778499603271484
1683009541874399700,4.781399658203125,0.7346000075340271,0.21609999239444733,9.776700019836426
1683009541894399700,4.801399658203125,0.6959999799728394,0.22019998729228973,9.779399871826172
1683009541914401300,4.8214013671875,0.628600001335144,0.2069000005722046,9.784199714660645
1683009541934399700,4.841399658203125,0.564300000667572,0.2061000019311905,9.788199424743652
1683009541954399700,4.861399658203125,0.5292999744415283,0.23240000009536743,9.789499282836914
1683009541974399700,4.881399658203125,0.5406000018119812,0.2750000059604645,9.787799835205078
1683009541994399700,4.901399658203125,0.6090999841690063,0.31200000643730164,9.782699584960938
1683009542014399700,4.921399658203125,0.6850999593734741,0.3333999812602997,9.776999473571777
1683009542034399700,4.941399658203125,0.7260000109672546,0.3335999846458435,9.77400016784668
1683009542054401300,4.9614013671875,0.7324999570846558,0.31779998540878296,9.77400016784668
1683009542074399700,4.981399658203125,0.7287999987602234,0.29159998893737793,9.775099754333496
1683009542094399700,5.001399658203125,0.7287999987602234,0.25450000166893005,9.776199340820312
1683009542114399700,5.021399658203125,0.7404999732971191,0.21220000088214874,9.776299476623535
1683009542134401300,5.0414013671875,0.755299985408783,0.16990000009536743,9.776000022888184
1683009542154399700,5.061399658203125,0.7706999778747559,0.12719999253749847,9.775400161743164
1683009542174399700,5.081399658203125,0.7685999870300293,0.08389999717473984,9.776100158691406
1683009542194399700,5.101399658203125,0.7471999526023865,0.03830000013113022,9.777999877929688
1683009542214401300,5.1214013671875,0.7238999605178833,-0.0013000000035390258,9.779799461364746
1683009542234399700,5.141399658203125,0.7137999534606934,-0.03009999915957451,9.780499458312988
1683009542254399700,5.161399658203125,0.7146999835968018,-0.050200000405311584,9.780399322509766
1683009542274401300,5.1814013671875,0.717799961566925,-0.05819999799132347,9.780099868774414
1683009542294399700,5.201399658203125,0.7228999733924866,-0.05769999697804451,9.779699325561523
1683009542314399700,5.221399658203125,0.7364999651908875,-0.049799997359514236,9.778800010681152
1683009542334399700,5.241399658203125,0.7710999846458435,-0.03819999843835831,9.776199340820312
1683009542354399700,5.261399658203125,0.8166999816894531,-0.026200000196695328,9.772500038146973
1683009542374399700,5.281399658203125,0.8611999750137329,-0.022599998861551285,9.768699645996094
1683009542394399700,5.301399658203125,0.8949999809265137,-0.02969999983906746,9.765600204467773
1683009542414401300,5.3214013671875,0.903499960899353,-0.04639999940991402,9.764800071716309
1683009542434399700,5.341399658203125,0.902899980545044,-0.06260000169277191,9.764699935913086
1683009542454399700,5.361399658203125,0.9334999918937683,-0.06350000202655792,9.761899948120117
1683009542474399700,5.381399658203125,0.9893999695777893,-0.05309999734163284,9.756400108337402
1683009542494399700,5.401399658203125,1.0325000286102295,-0.05590000003576279,9.751899719238281
1683009542514399700,5.421399658203125,1.0434999465942383,-0.08209999650716782,9.75059986114502
1683009542534399700,5.441399658203125,1.0458999872207642,-0.12039999663829803,9.749899864196777
1683009542554401300,5.4614013671875,1.0702999830245972,-0.1516999900341034,9.74679946899414
1683009542574401300,5.4814013671875,1.1308000087738037,-0.17099998891353607,9.739699363708496
1683009542594399700,5.501399658203125,1.2032999992370605,-0.18320000171661377,9.730799674987793
1683009542614399700,5.521399658203125,1.235700011253357,-0.204599991440773,9.726299285888672
1683009542634399700,5.541399658203125,1.222999930381775,-0.23959998786449432,9.727099418640137
1683009542654399700,5.561399658203125,1.1859999895095825,-0.28139999508857727,9.730500221252441
1683009542674399700,5.581399658203125,1.1497999429702759,-0.32019999623298645,9.733699798583984
1683009542694401300,5.6014013671875,1.1420999765396118,-0.3513000011444092,9.733499526977539
1683009542714401300,5.6214013671875,1.1532000303268433,-0.3698999881744385,9.731499671936035
1683009542734399700,5.641399658203125,1.1744999885559082,-0.3847000002861023,9.728400230407715
1683009542754399700,5.661399658203125,1.1993999481201172,-0.3986999988555908,9.724800109863281
1683009542774401300,5.6814013671875,1.2249000072479248,-0.4092999994754791,9.721199989318848
1683009542794399700,5.701399658203125,1.243299961090088,-0.4187999963760376,9.718400001525879
1683009542814399700,5.721399658203125,1.261099934577942,-0.44849997758865356,9.714799880981445
1683009542834399700,5.741399658203125,1.2590999603271484,-0.49459999799728394,9.712800025939941
1683009542854399700,5.761399658203125,1.2280999422073364,-0.5414999723434448,9.714300155639648
1683009542874399700,5.781399658203125,1.1881999969482422,-0.5756999850273132,9.717299461364746
1683009542894399700,5.801399658203125,1.1560999155044556,-0.5789999961853027,9.720999717712402
1683009542914401300,5.8214013671875,1.135699987411499,-0.5550999641418457,9.724800109863281
1683009542934399700,5.841399658203125,1.1136999130249023,-0.5005999803543091,9.730299949645996
1683009542954399700,5.861399658203125,1.1140999794006348,-0.43860000371932983,9.733200073242188
1683009542974399700,5.881399658203125,1.1166999340057373,-0.3765999972820282,9.735499382019043
1683009542994399700,5.901399658203125,1.0922999382019043,-0.31769999861717224,9.740399360656738
1683009543014399700,5.921399658203125,1.0340999364852905,-0.2717999815940857,9.748099327087402
1683009543034399700,5.941399658203125,0.9627999663352966,-0.2597000002861023,9.755799293518066
1683009543054401300,5.9614013671875,0.8968999981880188,-0.2791999876499176,9.761499404907227
1683009543074401300,5.9814013671875,0.871999979019165,-0.3141999840736389,9.762700080871582
1683009543094399700,6.001399658203125,0.8824999928474426,-0.34139999747276306,9.760799407958984
1683009543114399700,6.021399658203125,0.8940999507904053,-0.34880000352859497,9.759499549865723
1683009543134399700,6.041399658203125,0.8955000042915344,-0.3407000005245209,9.759699821472168
1683009543154399700,6.061399658203125,0.903499960899353,-0.31769999861717224,9.759699821472168
1683009543174399700,6.081399658203125,0.914199948310852,-0.2897999882698059,9.759599685668945
1683009543194399700,6.101399658203125,0.9265999794006348,-0.26739999651908875,9.759099960327148
1683009543214401300,6.1214013671875,0.9347999691963196,-0.2578999996185303,9.758500099182129
1683009543234399700,6.141399658203125,0.9514999985694885,-0.2597000002861023,9.7568998336792
1683009543254399700,6.161399658203125,0.9785999655723572,-0.2678999900817871,9.753999710083008
1683009543274401300,6.1814013671875,1.0048999786376953,-0.2703999876976013,9.751199722290039
1683009543294399700,6.201399658203125,1.021799921989441,-0.2586999833583832,9.749799728393555
1683009543314399700,6.221399658203125,1.0233999490737915,-0.23259998857975006,9.750299453735352
1683009543334399700,6.241399658203125,1.011099934577942,-0.2011999934911728,9.752299308776855
1683009543354399700,6.261399658203125,0.9837999939918518,-0.18159998953342438,9.755399703979492
1683009543374399700,6.281399658203125,0.9425999522209167,-0.17880000174045563,9.759599685668945
1683009543394399700,6.301399658203125,0.9038999676704407,-0.18569999933242798,9.763099670410156
1683009543414401300,6.3214013671875,0.8741999864578247,-0.1889999955892563,9.76569938659668
1683009543434399700,6.341399658203125,0.8675999641418457,-0.18479999899864197,9.766399383544922
1683009543454399700,6.361399658203125,0.8818999528884888,-0.17180000245571136,9.765399932861328
1683009543474399700,6.381399658203125,0.8970999717712402,-0.15330000221729279,9.764299392700195
1683009543494402800,6.40140283203125,0.9084999561309814,-0.1339000016450882,9.763500213623047
1683009543514399700,6.421399658203125,0.9157999753952026,-0.11559999734163284,9.763099670410156
1683009543534399700,6.441399658203125,0.9167999625205994,-0.10179999470710754,9.763099670410156
1683009543554401300,6.4614013671875,0.9187999963760376,-0.09429999440908432,9.762999534606934
1683009543574401300,6.4814013671875,0.914900004863739,-0.09629999846220016,9.763400077819824
1683009543594399700,6.501399658203125,0.9038999676704407,-0.10740000009536743,9.764299392700195
1683009543614399700,6.521399658203125,0.8937000036239624,-0.125900000333786,9.764999389648438
1683009543634401300,6.5414013671875,0.8811999559402466,-0.149399995803833,9.765799522399902
1683009543654399700,6.561399658203125,0.8639999628067017,-0.17559999227523804,9.766900062561035
1683009543674399700,6.581399658203125,0.8447999954223633,-0.2019999921321869,9.768099784851074
1683009543694399700,6.601399658203125,0.8321999907493591,-0.22839999198913574,9.768599510192871
1683009543714401300,6.6214013671875,0.820099949836731,-0.251800000667572,9.769000053405762
1683009543734399700,6.641399658203125,0.8068000078201294,-0.2710999846458435,9.769599914550781
1683009543754399700,6.661399658203125,0.7829999923706055,-0.29170000553131104,9.770899772644043
1683009543774401300,6.6814013671875,0.7630999684333801,-0.31439998745918274,9.77180004119873
1683009543794399700,6.701399658203125,0.7592999935150146,-0.3398999869823456,9.771200180053711
1683009543814399700,6.721399658203125,0.772599995136261,-0.3709000051021576,9.769100189208984
1683009543834399700,6.741399658203125,0.7912999987602234,-0.4056999981403351,9.766200065612793
1683009543854399700,6.761399658203125,0.8061999678611755,-0.43529999256134033,9.763699531555176
1683009543874399700,6.781399658203125,0.8262999653816223,-0.45339998602867126,9.761199951171875
1683009543894399700,6.801399658203125,0.8463999629020691,-0.457099974155426,9.759299278259277
1683009543914401300,6.8214013671875,0.8571999669075012,-0.4499000012874603,9.758699417114258
1683009543934399700,6.841399658203125,0.8513000011444092,-0.446399986743927,9.7593994140625
1683009543954399700,6.861399658203125,0.8325999975204468,-0.44679999351501465,9.76099967956543
1683009543974399700,6.881399658203125,0.805899977684021,-0.4493999779224396,9.763099670410156
1683009543994399700,6.901399658203125,0.761900007724762,-0.4712999761104584,9.765600204467773
1683009544014402800,6.92140283203125,0.7324999570846558,-0.5108999609947205,9.765799522399902
1683009544034402800,6.94140283203125,0.7608000040054321,-0.5306999683380127,9.76259994506836
1683009544054401300,6.9614013671875,0.8312999606132507,-0.5374000072479248,9.756499290466309
1683009544074401300,6.9814013671875,0.9470999836921692,-0.5047000050544739,9.747699737548828
1683009544094399700,7.001399658203125,1.0332000255584717,-0.4432999789714813,9.741899490356445
1683009544114399700,7.021399658203125,1.062600016593933,-0.3730999827384949,9.741700172424316
1683009544134401300,7.0414013671875,1.0303999185562134,-0.3294000029563904,9.746699333190918
1683009544154399700,7.061399658203125,0.9611999988555908,-0.3109999895095825,9.754399299621582
1683009544174399700,7.081399658203125,0.8763999938964844,-0.2930999994277954,9.762999534606934
1683009544194399700,7.101399658203125,0.8149999976158142,-0.2565999925136566,9.769299507141113
1683009544214401300,7.1214013671875,0.7949000000953674,-0.21310000121593475,9.77199935913086
1683009544234399700,7.141399658203125,0.8118999600410461,-0.1753999888896942,9.77139949798584
1683009544254399700,7.161399658203125,0.8326999545097351,-0.15240000188350677,9.769999504089355
1683009544274401300,7.1814013671875,0.837399959564209,-0.14649999141693115,9.769700050354004
1683009544294399700,7.201399658203125,0.8186999559402466,-0.15539999306201935,9.771100044250488
1683009544314399700,7.221399658203125,0.7849000096321106,-0.17430000007152557,9.773599624633789
1683009544334399700,7.241399658203125,0.7423999905586243,-0.20520000159740448,9.776299476623535
1683009544354399700,7.261399658203125,0.6954999566078186,-0.24569998681545258,9.778800010681152
1683009544374399700,7.281399658203125,0.6439999938011169,-0.2903999984264374,9.781099319458008
1683009544394399700,7.301399658203125,0.5781999826431274,-0.3337000012397766,9.78380012512207
1683009544414401300,7.3214013671875,0.49859997630119324,-0.3739999830722809,9.786799430847168
1683009544434399700,7.341399658203125,0.4188999831676483,-0.40379998087882996,9.789299964904785
1683009544454399700,7.361399658203125,0.3619999885559082,-0.4115999937057495,9.791299819946289
1683009544474399700,7.381399658203125,0.3317999839782715,-0.3968999981880188,9.792900085449219
1683009544494399700,7.401399658203125,0.30879998207092285,-0.36809998750686646,9.7947998046875
1683009544514399700,7.421399658203125,0.29839998483657837,-0.33980000019073486,9.796199798583984
1683009544534399700,7.441399658203125,0.28380000591278076,-0.3166999816894531,9.797399520874023
1683009544554401300,7.4614013671875,0.25779998302459717,-0.3046000003814697,9.798500061035156
1683009544574399700,7.481399658203125,0.22190000116825104,-0.3033999800682068,9.799399375915527
1683009544594399700,7.501399658203125,0.1972000002861023,-0.30550000071525574,9.79990005493164
1683009544614399700,7.521399658203125,0.17659999430179596,-0.30660000443458557,9.800199508666992
1683009544634401300,7.5414013671875,0.1551000028848648,-0.3037000000476837,9.800700187683105
1683009544654399700,7.561399658203125,0.13529999554157257,-0.29109999537467957,9.801300048828125
1683009544674399700,7.581399658203125,0.11789999902248383,-0.26729997992515564,9.802199363708496
1683009544694399700,7.601399658203125,0.11129999905824661,-0.24079999327659607,9.802999496459961
1683009544714401300,7.6214013671875,0.13369999825954437,-0.23330000042915344,9.802899360656738
1683009544734399700,7.641399658203125,0.2004999965429306,-0.2586999833583832,9.80109977722168
1683009544754399700,7.661399658203125,0.25429999828338623,-0.3009999990463257,9.798699378967285
1683009544774401300,7.6814013671875,0.2630999982357025,-0.35589998960494995,9.796599388122559
1683009544794399700,7.701399658203125,0.24969999492168427,-0.4059000015258789,9.795000076293945
1683009544814399700,7.721399658203125,0.22929999232292175,-0.42890000343322754,9.794499397277832
1683009544834399700,7.741399658203125,0.1914999932050705,-0.42339998483657837,9.795599937438965
1683009544854399700,7.761399658203125,0.13930000364780426,-0.41029998660087585,9.79699993133545
1683009544874399700,7.781399658203125,0.07769999653100967,-0.40549999475479126,9.797900199890137
1683009544894399700,7.801399658203125,0.011500000022351742,-0.40529999136924744,9.798199653625488
1683009544914401300,7.8214013671875,-0.021399999037384987,-0.3985999822616577,9.798500061035156
1683009544934401300,7.8414013671875,-0.014599999412894249,-0.37849998474121094,9.799300193786621
1683009544954399700,7.861399658203125,0.013299999758601189,-0.36309999227523804,9.79990005493164
1683009544974399700,7.881399658203125,0.03959999978542328,-0.35740000009536743,9.800000190734863
1683009544994399700,7.901399658203125,0.03909999877214432,-0.3568999767303467,9.800000190734863
1683009545014399700,7.921399658203125,0.014800000004470348,-0.35670000314712524,9.80009937286377
1683009545034399700,7.941399658203125,-0.020999999716877937,-0.3578999936580658,9.800000190734863
1683009545054401300,7.9614013671875,-0.05559999868273735,-0.3662000000476837,9.799599647521973
1683009545074399700,7.981399658203125,-0.0957999974489212,-0.38760000467300415,9.798500061035156
1683009545094399700,8.001399658203125,-0.13490000367164612,-0.421999990940094,9.796599388122559
1683009545114399700,8.021399658203125,-0.17559999227523804,-0.46289998292922974,9.794099807739258
1683009545134401300,8.0414013671875,-0.2133999913930893,-0.498199999332428,9.791600227355957
1683009545154399700,8.061399658203126,-0.24049998819828033,-0.5182999968528748,9.789899826049805
1683009545174399700,8.081399658203125,-0.2599000036716461,-0.5267999768257141,9.788999557495117
1683009545194399700,8.101399658203125,-0.27649998664855957,-0.526699960231781,9.78849983215332
1683009545214401300,8.1214013671875,-0.2919999957084656,-0.5138999819755554,9.788799285888672
1683009545234402800,8.14140283203125,-0.30159997940063477,-0.4851999878883362,9.789899826049805
1683009545254399700,8.161399658203125,-0.29919999837875366,-0.44189998507499695,9.792099952697754
1683009545274401300,8.1814013671875,-0.2854999899864197,-0.3951999843120575,9.794499397277832
1683009545294399700,8.201399658203124,-0.27140000462532043,-0.3554999828338623,9.79640007019043
1683009545314399700,8.221399658203126,-0.2700999975204468,-0.3296000063419342,9.7972993850708
1683009545334399700,8.241399658203125,-0.2825999855995178,-0.31189998984336853,9.797599792480469
1683009545354401300,8.2614013671875,-0.28929999470710754,-0.29499998688697815,9.797900199890137
1683009545374399700,8.281399658203124,-0.27789998054504395,-0.27959999442100525,9.798699378967285
1683009545394399700,8.301399658203126,-0.2628999948501587,-0.2708999812602997,9.799300193786621
1683009545414401300,8.3214013671875,-0.2533999979496002,-0.27399998903274536,9.79949951171875
1683009545434399700,8.341399658203125,-0.24740000069141388,-0.2782000005245209,9.79949951171875
1683009545454399700,8.361399658203124,-0.234499990940094,-0.2727999985218048,9.800000190734863
1683009545474399700,8.381399658203126,-0.20709998905658722,-0.2547000050544739,9.80109977722168
1683009545494399700,8.401399658203125,-0.1776999980211258,-0.23589999973773956,9.802199363708496
1683009545514399700,8.421399658203125,-0.15199999511241913,-0.2255999892950058,9.802800178527832
1683009545534399700,8.441399658203125,-0.11539999395608902,-0.22709999978542328,9.803299903869629
1683009545554399700,8.461399658203124,-0.05089999735355377,-0.22100000083446503,9.803999900817871
1683009545574399700,8.481399658203125,0.02319999970495701,-0.19189999997615814,9.804699897766113
1683009545594399700,8.501399658203125,0.10209999978542328,-0.15429998934268951,9.804900169372559
1683009545614399700,8.521399658203125,0.1623999923467636,-0.12860000133514404,9.804399490356445
1683009545634399700,8.541399658203124,0.179299995303154,-0.12639999389648438,9.804100036621094
1683009545654399700,8.561399658203126,0.16369999945163727,-0.15389999747276306,9.803999900817871
1683009545674399700,8.581399658203125,0.14469999074935913,-0.19409999251365662,9.80359935760498
1683009545694399700,8.601399658203125,0.1403999924659729,-0.22839999198913574,9.802899360656738
1683009545714399700,8.621399658203124,0.149399995803833,-0.2611999809741974,9.802000045776367
1683009545734399700,8.641399658203126,0.15850000083446503,-0.3100999891757965,9.800399780273438
1683009545754399700,8.661399658203125,0.1581999957561493,-0.3756999969482422,9.798099517822266
1683009545774401300,8.6814013671875,0.1485999971628189,-0.4404999911785126,9.795599937438965
1683009545794399700,8.701399658203124,0.1340000033378601,-0.49709999561309814,9.793099403381348
1683009545814399700,8.721399658203126,0.12349999696016312,-0.5491999983787537,9.790399551391602
1683009545834399700,8.741399658203125,0.11699999868869781,-0.5936999917030334,9.7878999710083
1683009545854399700,8.761399658203125,0.1103999987244606,-0.6243000030517578,9.786099433898926
1683009545874399700,8.781399658203124,0.1119999960064888,-0.6419000029563904,9.784899711608887
1683009545894399700,8.801399658203126,0.11409999430179596,-0.6502000093460083,9.78439998626709
1683009545914401300,8.8214013671875,0.11879999935626984,-0.6516000032424927,9.784199714660645
1683009545934399700,8.841399658203125,0.13050000369548798,-0.6545999646186829,9.783899307250977
1683009545954399700,8.861399658203124,0.14350000023841858,-0.6621999740600586,9.783199310302734
1683009545974399700,8.881399658203126,0.15699999034404755,-0.6784999966621399,9.78179931640625
1683009545994399700,8.901399658203125,0.16669999063014984,-0.6904999613761902,9.780799865722656
1683009546014399700,8.921399658203125,0.16910000145435333,-0.6958999633789062,9.780399322509766
1683009546034399700,8.941399658203125,0.17499999701976776,-0.7033999562263489,9.779799461364746
1683009546054401300,8.9614013671875,0.19099999964237213,-0.7150999903678894,9.778599739074707
1683009546074401300,8.9814013671875,0.22019998729228973,-0.7256999611854553,9.777199745178223
1683009546094399700,9.001399658203125,0.25200000405311584,-0.731499969959259,9.776000022888184
1683009546114399700,9.021399658203125,0.26010000705718994,-0.741599977016449,9.775099754333496
1683009546134401300,9.0414013671875,0.2402999997138977,-0.762999951839447,9.773900032043457
1683009546154402800,9.06140283203125,0.21699999272823334,-0.7870000004768372,9.772600173950195
1683009546174402800,9.08140283203125,0.20600000023841858,-0.8119999766349792,9.77079963684082
1683009546194399700,9.101399658203125,0.20909999310970306,-0.8283999562263489,9.769299507141113
1683009546214401300,9.1214013671875,0.21949999034404755,-0.8193999528884888,9.769800186157227
1683009546234399700,9.141399658203126,0.2240999937057495,-0.7910999655723572,9.772099494934082
1683009546254399700,9.161399658203125,0.22819998860359192,-0.7670999765396118,9.773900032043457
1683009546274401300,9.1814013671875,0.23349998891353607,-0.7479999661445618,9.775199890136719
1683009546294399700,9.201399658203124,0.2289000004529953,-0.7392999529838562,9.776000022888184
1683009546314399700,9.221399658203126,0.21959999203681946,-0.7543999552726746,9.775099754333496
1683009546334399700,9.241399658203125,0.21469999849796295,-0.7892999649047852,9.77239990234375
1683009546354399700,9.261399658203125,0.22209998965263367,-0.8337999582290649,9.768599510192871
1683009546374399700,9.281399658203124,0.24219998717308044,-0.8867999911308289,9.763400077819824
1683009546394399700,9.301399658203126,0.26249998807907104,-0.9526999592781067,9.756699562072754
1683009546414401300,9.3214013671875,0.272599995136261,-1.0221999883651733,9.74940013885498
1683009546434399700,9.341399658203125,0.25839999318122864,-1.086400032043457,9.742799758911133
1683009546454399700,9.361399658203124,0.24979999661445618,-1.128999948501587,9.738200187683105
1683009546474399700,9.381399658203126,0.26330000162124634,-1.153499960899353,9.734999656677246
1683009546494399700,9.401399658203125,0.28689998388290405,-1.1793999671936035,9.731200218200684
1683009546514399700,9.421399658203125,0.29899999499320984,-1.2026000022888184,9.727999687194824
1683009546534399700,9.441399658203125,0.2953999936580658,-1.2030999660491943,9.727999687194824
1683009546554401300,9.4614013671875,0.28999999165534973,-1.1783000230789185,9.731200218200684
1683009546574401300,9.4814013671875,0.2953999936580658,-1.1338000297546387,9.736299514770508
1683009546594399700,9.501399658203125,0.32199999690055847,-1.0703999996185303,9.74269962310791
1683009546614399700,9.521399658203125,0.3604999780654907,-0.9819999933242798,9.75059986114502
1683009546634399700,9.541399658203124,0.40219998359680176,-0.8797000050544739,9.75879955291748
1683009546654399700,9.561399658203126,0.44449999928474426,-0.7775999903678894,9.765600204467773
1683009546674399700,9.581399658203125,0.47669997811317444,-0.6897000074386597,9.770699501037598
1683009546694399700,9.601399658203125,0.4950999915599823,-0.6230999827384949,9.774199485778809
1683009546714401300,9.6214013671875,0.5015000104904175,-0.5712999701499939,9.777099609375
1683009546734399700,9.641399658203126,0.5001000165939331,-0.5282999873161316,9.779600143432617
1683009546754399700,9.661399658203125,0.4921000003814697,-0.4967999756336212,9.781599998474121
1683009546774401300,9.6814013671875,0.4867999851703644,-0.4724999964237213,9.783100128173828
1683009546794399700,9.701399658203124,0.4894999861717224,-0.44699999690055847,9.784199714660645
1683009546814399700,9.721399658203126,0.4936999976634979,-0.4171999990940094,9.785299301147461
1683009546834399700,9.741399658203125,0.5011999607086182,-0.38670000433921814,9.786099433898926
1683009546854399700,9.761399658203125,0.5199999809265137,-0.36479997634887695,9.785999298095703
1683009546874399700,9.781399658203124,0.5509999990463257,-0.3520999848842621,9.784799575805664
1683009546894399700,9.801399658203126,0.5800999999046326,-0.3498999774456024,9.783199310302734
1683009546914401300,9.8214013671875,0.5906000137329102,-0.35839998722076416,9.78219985961914
1683009546934399700,9.841399658203125,0.5909000039100647,-0.3765999972820282,9.781499862670898
1683009546954399700,9.861399658203124,0.5913999676704407,-0.3959999978542328,9.780699729919434
1683009546974399700,9.881399658203126,0.5956999659538269,-0.41589999198913574,9.779600143432617
1683009546994399700,9.901399658203125,0.6019999980926514,-0.4350999891757965,9.778399467468262
1683009547014399700,9.921399658203125,0.6129999756813049,-0.45159998536109924,9.776999473571777
1683009547034399700,9.941399658203125,0.632099986076355,-0.4721999764442444,9.774799346923828
1683009547054401300,9.9614013671875,0.6632999777793884,-0.49939998984336853,9.77139949798584
1683009547074401300,9.9814013671875,0.6970999836921692,-0.53329998254776,9.767199516296387
1683009547094399700,10.001399658203125,0.7163999676704407,-0.5658999681472778,9.763999938964844
1683009547114399700,10.021399658203125,0.7218999862670898,-0.5924000144004822,9.76200008392334
1683009547134401300,10.0414013671875,0.7277999520301819,-0.6126999855041504,9.760299682617188
1683009547154399700,10.061399658203126,0.7795999646186829,-0.6148999929428101,9.756199836730957
1683009547174402800,10.08140283203125,0.8614999651908875,-0.576200008392334,9.751699447631836
1683009547194399700,10.101399658203125,0.9197999835014343,-0.519599974155426,9.749499320983887
1683009547214401300,10.1214013671875,0.9519999623298645,-0.47110000252723694,9.748899459838867
1683009547234399700,10.141399658203126,0.9775999784469604,-0.4293999969959259,9.748299598693848
1683009547254399700,10.161399658203125,1.0060999393463135,-0.3814999759197235,9.74739933013916
1683009547274399700,10.181399658203125,1.04830002784729,-0.3253999948501587,9.744999885559082
1683009547294399700,10.201399658203124,1.1131999492645264,-0.2742999792098999,9.739299774169922
1683009547314399700,10.221399658203126,1.1693999767303467,-0.23739999532699585,9.733699798583984
1683009547334399700,10.241399658203125,1.1864999532699585,-0.21439999341964722,9.732199668884277
1683009547354399700,10.261399658203125,1.1691999435424805,-0.19919998943805695,9.734600067138672
1683009547374399700,10.281399658203124,1.1354999542236328,-0.18769998848438263,9.738800048828125
1683009547394399700,10.301399658203126,1.1008999347686768,-0.18400000035762787,9.742899894714355
1683009547414399700,10.321399658203125,1.0829999446868896,-0.18850000202655792,9.744799613952637
1683009547434399700,10.341399658203125,1.084399938583374,-0.19299998879432678,9.744500160217285
1683009547454399700,10.361399658203124,1.0958999395370483,-0.1907999962568283,9.74329948425293
1683009547474399700,10.381399658203126,1.1131999492645264,-0.19200000166893005,9.741299629211426
1683009547494399700,10.401399658203125,1.1323999166488647,-0.20109999179840088,9.738900184631348
1683009547514399700,10.421399658203125,1.1497999429702759,-0.21869999170303345,9.736499786376953
1683009547534399700,10.441399658203125,1.160099983215332,-0.24769999086856842,9.734600067138672
1683009547554399700,10.461399658203124,1.1723999977111816,-0.288100004196167,9.731999397277832
1683009547574399700,10.481399658203125,1.1783000230789185,-0.33249998092651367,9.729899406433105
1683009547594399700,10.501399658203125,1.1744999885559082,-0.3725999891757965,9.728899955749512
1683009547614399700,10.521399658203125,1.1571999788284302,-0.40950000286102295,9.729499816894531
1683009547634399700,10.541399658203124,1.1383999586105347,-0.44519999623298645,9.73009967803955
1683009547654399700,10.561399658203126,1.1294000148773193,-0.4781999886035919,9.729599952697754
1683009547674399700,10.581399658203125,1.1328999996185303,-0.5076999664306641,9.727699279785156
1683009547694399700,10.601399658203125,1.1369999647140503,-0.5288999676704407,9.726099967956543
1683009547714399700,10.621399658203124,1.1312999725341797,-0.5428999662399292,9.72599983215332
1683009547734399700,10.641399658203126,1.1102999448776245,-0.561199963092804,9.727399826049805
1683009547754399700,10.661399658203125,1.080899953842163,-0.5911999940872192,9.728899955749512
1683009547774399700,10.681399658203125,1.0468000173568726,-0.6344000101089478,9.729899406433105
1683009547794399700,10.701399658203124,1.0123000144958496,-0.6834999918937683,9.730199813842773
1683009547814399700,10.721399658203126,0.9717999696731567,-0.7329999804496765,9.730799674987793
1683009547834399700,10.741399658203125,0.9323999881744385,-0.7774999737739563,9.731200218200684
1683009547854399700,10.761399658203125,0.895799994468689,-0.8079999685287476,9.732099533081055
1683009547874399700,10.781399658203124,0.8648999929428101,-0.8295999765396118,9.733099937438965
1683009547894399700,10.801399658203126,0.8534999489784241,-0.8482999801635742,9.732500076293945
1683009547914402800,10.82140283203125,0.8466999530792236,-0.8568999767303467,9.7322998046875
1683009547934402800,10.84140283203125,0.8297999501228333,-0.8710999488830566,9.732500076293945
1683009547954402800,10.86140283203125,0.8212999701499939,-0.8991000056266785,9.73069953918457
1683009547974402800,10.88140283203125,0.8246999979019165,-0.9235999584197998,9.728099822998047
1683009547994399700,10.901399658203125,0.8448999524116516,-0.9159999489784241,9.727099418640137
1683009548014399700,10.921399658203125,0.8905999660491943,-0.8597999811172485,9.728099822998047
1683009548034399700,10.941399658203125,0.9530999660491943,-0.7749999761581421,9.729299545288086
1683009548054401300,10.9614013671875,1.0109999179840088,-0.698199987411499,9.729299545288086
1683009548074402800,10.98140283203125,1.0361000299453735,-0.6622999906539917,9.729199409484863
1683009548094399700,11.001399658203125,1.0170999765396118,-0.6732999682426453,9.730400085449219
1683009548114399700,11.021399658203125,0.977400004863739,-0.7014999985694885,9.732500076293945
1683009548134402800,11.04140283203125,0.9526999592781067,-0.7030999660491943,9.734899520874023
1683009548154402800,11.06140283203125,0.9641000032424927,-0.6674000024795532,9.736199378967285
1683009548174399700,11.081399658203125,1.00409996509552,-0.6261999607086182,9.734899520874023
1683009548194399700,11.101399658203125,1.0460000038146973,-0.5946999788284302,9.732500076293945
1683009548214399700,11.121399658203124,1.0691999197006226,-0.571399986743927,9.731399536132812
1683009548234402800,11.14140283203125,1.0734000205993652,-0.5552999973297119,9.731800079345703
1683009548254399700,11.161399658203125,1.0672999620437622,-0.5444999933242798,9.733099937438965
1683009548274401300,11.1814013671875,1.0543999671936035,-0.5411999821662903,9.734700202941895
1683009548294399700,11.201399658203124,1.037500023841858,-0.5472999811172485,9.736199378967285
1683009548314399700,11.221399658203126,1.0211999416351318,-0.5568999648094177,9.73740005493164
1683009548334399700,11.241399658203125,1.00819993019104,-0.5658999681472778,9.738200187683105
1683009548354399700,11.261399658203125,0.9965999722480774,-0.5717999935150146,9.739099502563477
1683009548374399700,11.281399658203124,0.9893999695777893,-0.5684999823570251,9.739999771118164
1683009548394399700,11.301399658203126,0.9904999732971191,-0.5562999844551086,9.740599632263184
1683009548414399700,11.321399658203125,0.9997999668121338,-0.539900004863739,9.740499496459961
1683009548434399700,11.341399658203125,1.0174999237060547,-0.5223000049591064,9.739699363708496
1683009548454399700,11.361399658203124,1.0439000129699707,-0.507099986076355,9.737699508666992
1683009548474399700,11.381399658203126,1.0734000205993652,-0.49390000104904175,9.735099792480469
1683009548494399700,11.401399658203125,1.0966999530792236,-0.4845999777317047,9.732999801635742
1683009548514399700,11.421399658203125,1.1223000288009644,-0.48179998993873596,9.730199813842773
1683009548534399700,11.441399658203125,1.142199993133545,-0.4772999882698059,9.728099822998047
1683009548554399700,11.461399658203124,1.1545000076293945,-0.46239998936653137,9.727399826049805
1683009548574399700,11.481399658203125,1.1648999452590942,-0.4350999891757965,9.727399826049805
1683009548594399700,11.501399658203125,1.1965999603271484,-0.397599995136261,9.725199699401855
1683009548614399700,11.521399658203125,1.2175999879837036,-0.3449999988079071,9.724599838256836
1683009548634399700,11.541399658203124,1.2113999128341675,-0.288100004196167,9.72719955444336
1683009548654399700,11.561399658203126,1.1941999197006226,-0.2502000033855438,9.730400085449219
1683009548674399700,11.581399658203125,1.1842999458312988,-0.2230999916791916,9.7322998046875
1683009548694399700,11.601399658203125,1.177799940109253,-0.20170000195503235,9.733499526977539
1683009548714399700,11.621399658203124,1.1654999256134033,-0.1964000016450882,9.735099792480469
1683009548734399700,11.641399658203126,1.1473000049591064,-0.2134999930858612,9.736899375915527
1683009548754399700,11.661399658203125,1.1287999153137207,-0.24219998717308044,9.738399505615234
1683009548774399700,11.681399658203125,1.1323999166488647,-0.2718999981880188,9.737199783325195
1683009548794399700,11.701399658203124,1.1749999523162842,-0.29269999265670776,9.731499671936035
1683009548814399700,11.721399658203126,1.243899941444397,-0.305899977684021,9.722599983215332
1683009548834399700,11.741399658203125,1.299799919128418,-0.3190000057220459,9.714799880981445
1683009548854399700,11.761399658203125,1.3140000104904175,-0.33559998869895935,9.71239948272705
1683009548874399700,11.781399658203124,1.3020999431610107,-0.3563999831676483,9.713199615478516
1683009548894399700,11.801399658203126,1.2773000001907349,-0.373199999332428,9.715899467468262
1683009548914399700,11.821399658203125,1.2416999340057373,-0.38259997963905334,9.720099449157715
1683009548934399700,11.841399658203125,1.2077000141143799,-0.39579999446868896,9.723899841308594
1683009548954399700,11.861399658203124,1.1793999671936035,-0.4219000041484833,9.726299285888672
1683009548974399700,11.881399658203126,1.145900011062622,-0.4664999842643738,9.72819995880127
1683009548994399700,11.901399658203125,1.1026999950408936,-0.517300009727478,9.73069953918457
1683009549014399700,11.921399658203125,1.06059992313385,-0.5647000074386597,9.732699394226074
1683009549034399700,11.941399658203125,1.031499981880188,-0.6100000143051147,9.733099937438965
1683009549054399700,11.961399658203124,1.0335999727249146,-0.6572999954223633,9.7298002243042
1683009549074399700,11.981399658203125,1.0687999725341797,-0.6951999664306641,9.723400115966797
1683009549094399700,12.001399658203125,1.104699969291687,-0.7195000052452087,9.717599868774414
1683009549114399700,12.021399658203125,1.1180000305175781,-0.732699990272522,9.715099334716797
1683009549134399700,12.041399658203124,1.1136000156402588,-0.7421999573707581,9.714799880981445
1683009549154399700,12.061399658203126,1.0971999168395996,-0.7578999996185303,9.715499877929688
1683009549174399700,12.081399658203125,1.0743999481201172,-0.7757999897003174,9.716599464416504
1683009549194399700,12.101399658203125,1.049399971961975,-0.792199969291687,9.717999458312988
1683009549214401300,12.1214013671875,1.0189999341964722,-0.8077999949455261,9.719999313354492
1683009549234399700,12.141399658203126,0.981499969959259,-0.8136999607086182,9.723400115966797
1683009549254399700,12.161399658203125,0.9352999925613403,-0.8033999800682068,9.728799819946289
1683009549274401300,12.1814013671875,0.9013999700546265,-0.7833999991416931,9.733599662780762
1683009549294399700,12.201399658203124,0.8923999667167664,-0.758899986743927,9.73639965057373
1683009549314401300,12.2214013671875,0.8937000036239624,-0.7346000075340271,9.738100051879883
1683009549334399700,12.241399658203125,0.897599995136261,-0.7170000076293945,9.739099502563477
1683009549354399700,12.261399658203125,0.9081999659538269,-0.7124999761581421,9.738399505615234
1683009549374399700,12.281399658203124,0.9179999828338623,-0.7152999639511108,9.737299919128418
1683009549394399700,12.301399658203126,0.9200999736785889,-0.7218999862670898,9.736599922180176
1683009549414401300,12.3214013671875,0.9205999970436096,-0.7339999675750732,9.735699653625488
1683009549434399700,12.341399658203125,0.9129999876022339,-0.7457999587059021,9.735499382019043
1683009549454399700,12.361399658203124,0.8953999876976013,-0.7541999816894531,9.736499786376953
1683009549474399700,12.381399658203126,0.8828999996185303,-0.7634999752044678,9.736899375915527
1683009549494399700,12.401399658203125,0.9014999866485596,-0.7671999931335449,9.734899520874023
1683009549514399700,12.421399658203125,0.943399965763092,-0.7455999851226807,9.732600212097168
1683009549534399700,12.441399658203125,0.9977999925613403,-0.6966999769210815,9.730799674987793
1683009549554399700,12.461399658203124,1.0580999851226807,-0.6256999969482422,9.729199409484863
1683009549574401300,12.4814013671875,1.1053999662399292,-0.5453000068664551,9.728799819946289
1683009549594399700,12.501399658203125,1.1176999807357788,-0.4696999788284302,9.731399536132812
1683009549614399700,12.521399658203125,1.101599931716919,-0.39819997549057007,9.73639965057373
1683009549634401300,12.5414013671875,1.0773999691009521,-0.32359999418258667,9.741899490356445
1683009549654399700,12.561399658203126,1.0604000091552734,-0.24969999492168427,9.74590015411377
1683009549674399700,12.581399658203125,1.056399941444397,-0.1808999925851822,9.747900009155273
1683009549694399700,12.601399658203125,1.0583999156951904,-0.12379999458789825,9.748499870300293
1683009549714401300,12.6214013671875,1.0542999505996704,-0.07959999889135361,9.74940013885498
1683009549734399700,12.641399658203126,1.0465999841690063,-0.04470000043511391,9.750499725341797
1683009549754399700,12.661399658203125,1.0455999374389648,-0.022699998691678047,9.750699996948242
1683009549774401300,12.6814013671875,1.0551999807357788,-0.019700000062584877,9.74959945678711
1683009549794399700,12.701399658203124,1.0734000205993652,-0.02979999966919422,9.747599601745605
1683009549814399700,12.721399658203126,1.0842000246047974,-0.0543999969959259,9.746299743652344
1683009549834399700,12.741399658203125,1.0770999193191528,-0.08609999716281891,9.746899604797363
1683009549854399700,12.761399658203125,1.0539000034332275,-0.11639999598264694,9.749099731445312
1683009549874399700,12.781399658203124,1.027400016784668,-0.14429999887943268,9.751599311828613
1683009549894399700,12.801399658203126,1.0032999515533447,-0.16929998993873596,9.75369930267334
1683009549914401300,12.8214013671875,0.9858999848365784,-0.19179999828338623,9.755000114440918
1683009549934401300,12.8414013671875,0.9759999513626099,-0.21359999477863312,9.755599975585938
1683009549954399700,12.861399658203124,0.9680999517440796,-0.23909999430179596,9.755799293518066
1683009549974399700,12.881399658203126,0.95169997215271,-0.26649999618530273,9.756699562072754
1683009549994399700,12.901399658203125,0.927899956703186,-0.2976999878883362,9.758099555969238
1683009550014399700,12.921399658203125,0.9044999480247498,-0.33730000257492065,9.758999824523926
1683009550034399700,12.941399658203125,0.8896999955177307,-0.38169997930526733,9.758699417114258
1683009550054399700,12.961399658203124,0.8847000002861023,-0.4245999753475189,9.757399559020996
1683009550074401300,12.9814013671875,0.8913999795913696,-0.4593999981880188,9.755199432373047
1683009550094399700,13.001399658203125,0.9035999774932861,-0.47859999537467957,9.75309944152832
1683009550114399700,13.021399658203125,0.9136999845504761,-0.4795999825000763,9.752099990844727
1683009550134399700,13.041399658203124,0.9104999899864197,-0.47749999165534973,9.752599716186523
1683009550154399700,13.061399658203126,0.9070999622344971,-0.486299991607666,9.752399444580078
1683009550174399700,13.081399658203125,0.9193999767303467,-0.4964999854564667,9.750800132751465
1683009550194399700,13.101399658203125,0.9370999932289124,-0.49549999833106995,9.749099731445312
1683009550214401300,13.1214013671875,0.9699999690055847,-0.48319998383522034,9.746500015258789
1683009550234399700,13.141399658203126,1.0166000127792358,-0.4650999903678894,9.74269962310791
1683009550254399700,13.161399658203125,1.0759999752044678,-0.44179999828338623,9.73740005493164
1683009550274401300,13.1814013671875,1.1333999633789062,-0.41659998893737793,9.731999397277832
1683009550294399700,13.201399658203124,1.1833000183105469,-0.39469999074935913,9.726900100708008
1683009550314399700,13.221399658203126,1.2173999547958374,-0.3852999806404114,9.723099708557129
1683009550334399700,13.241399658203125,1.2311999797821045,-0.38119998574256897,9.7214994430542
1683009550354402800,13.26140283203125,1.223099946975708,-0.36649999022483826,9.723099708557129
1683009550374399700,13.281399658203124,1.2086999416351318,-0.3367999792098999,9.72599983215332
1683009550394399700,13.301399658203126,1.1948000192642212,-0.30300000309944153,9.728799819946289
1683009550414401300,13.3214013671875,1.1625999212265015,-0.271699994802475,9.733599662780762
1683009550434401300,13.3414013671875,1.122499942779541,-0.24789999425411224,9.738999366760254
1683009550454399700,13.361399658203124,1.091599941253662,-0.23019999265670776,9.742899894714355
1683009550474399700,13.381399658203126,1.0699999332427979,-0.2222999930381775,9.745499610900879
1683009550494401300,13.4014013671875,1.0478999614715576,-0.2239999920129776,9.747900009155273
1683009550514399700,13.421399658203125,1.0202000141143799,-0.23119999468326569,9.75059986114502
1683009550534399700,13.441399658203125,0.9767999649047852,-0.23959998786449432,9.754899978637695
1683009550554399700,13.461399658203124,0.9177999496459961,-0.2483000010251999,9.76039981842041
1683009550574401300,13.4814013671875,0.8575999736785889,-0.25519999861717224,9.76569938659668
1683009550594399700,13.501399658203125,0.8070999979972839,-0.2662999927997589,9.769700050354004
1683009550614399700,13.521399658203125,0.7780999541282654,-0.28360000252723694,9.771599769592285
1683009550634401300,13.5414013671875,0.7719999551773071,-0.3050000071525574,9.77139949798584
1683009550654399700,13.561399658203126,0.7835999727249146,-0.3280999958515167,9.769700050354004
1683009550674401300,13.5814013671875,0.8025999665260315,-0.35269999504089355,9.76729965209961
1683009550694399700,13.601399658203125,0.824999988079071,-0.37869998812675476,9.76449966430664
1683009550714401300,13.6214013671875,0.8473999500274658,-0.40459999442100525,9.761499404907227
1683009550734399700,13.641399658203126,0.8746999502182007,-0.4251999855041504,9.758299827575684
1683009550754399700,13.661399658203125,0.892799973487854,-0.43639999628067017,9.756099700927734
1683009550774401300,13.6814013671875,0.896399974822998,-0.4412999749183655,9.755599975585938
1683009550794399700,13.701399658203124,0.8876999616622925,-0.4461999833583832,9.756099700927734
1683009550814399700,13.721399658203126,0.8737999796867371,-0.4530999958515167,9.757100105285645
1683009550834399700,13.741399658203125,0.8526999950408936,-0.45579999685287476,9.75879955291748
1683009550854399700,13.761399658203125,0.8259999752044678,-0.44449999928474426,9.76159954071045
1683009550874399700,13.781399658203124,0.7906000018119812,-0.4147999882698059,9.765899658203125
1683009550894399700,13.801399658203126,0.7578999996185303,-0.3752000033855438,9.770099639892578
1683009550914399700,13.821399658203125,0.7498999834060669,-0.33079999685287476,9.772299766540527
1683009550934401300,13.8414013671875,0.7652999758720398,-0.28540000319480896,9.772500038146973
1683009550954399700,13.861399658203124,0.7965999841690063,-0.2467999905347824,9.771100044250488
1683009550974399700,13.881399658203126,0.8270999789237976,-0.21249999105930328,9.769299507141113
1683009550994399700,13.901399658203125,0.8472999930381775,-0.17870000004768372,9.76830005645752
1683009551014399700,13.921399658203125,0.8574000000953674,-0.14880000054836273,9.767899513244629
1683009551034399700,13.941399658203125,0.8574000000953674,-0.1266999989748001,9.768199920654297
1683009551054399700,13.961399658203124,0.854200005531311,-0.11589999496936798,9.768599510192871
1683009551074401300,13.9814013671875,0.8463999629020691,-0.10769999772310257,9.769399642944336
1683009551094399700,14.001399658203125,0.8348000049591064,-0.09139999747276306,9.770599365234375
1683009551114399700,14.021399658203125,0.825499951839447,-0.07069999724626541,9.771499633789062
1683009551134401300,14.0414013671875,0.8251999616622925,-0.052400000393390656,9.771699905395508
1683009551154399700,14.061399658203126,0.8222000002861023,-0.04149999842047691,9.77199935913086
1683009551174399700,14.081399658203125,0.8161999583244324,-0.03749999776482582,9.772500038146973
1683009551194399700,14.101399658203125,0.8086999654769897,-0.036399997770786285,9.773099899291992
1683009551214401300,14.1214013671875,0.8071999549865723,-0.034299999475479126,9.773300170898438
1683009551234399700,14.141399658203126,0.8149999976158142,-0.03359999880194664,9.772600173950195
1683009551254399700,14.161399658203125,0.8289999961853027,-0.0364999994635582,9.77139949798584
1683009551274401300,14.1814013671875,0.8450999855995178,-0.04919999837875366,9.769999504089355
1683009551294399700,14.201399658203124,0.849299967288971,-0.07109999656677246,9.769499778747559
1683009551314399700,14.221399658203126,0.8440999984741211,-0.09999999403953552,9.769700050354004
1683009551334399700,14.241399658203125,0.8324999809265137,-0.1314999908208847,9.770299911499023
1683009551354399700,14.261399658203125,0.8100999593734741,-0.16439999639987946,9.771699905395508
1683009551374399700,14.281399658203124,0.785099983215332,-0.19990000128746033,9.773099899291992
1683009551394399700,14.301399658203126,0.755899965763092,-0.2368999868631363,9.774499893188477
1683009551414401300,14.3214013671875,0.7236999869346619,-0.2802000045776367,9.775799751281738
1683009551434399700,14.341399658203125,0.6973999738693237,-0.3296000063419342,9.776199340820312
1683009551454399700,14.361399658203124,0.6850000023841858,-0.3791999816894531,9.775300025939941
1683009551474399700,14.381399658203126,0.6804999709129333,-0.42239999771118164,9.773799896240234
1683009551494399700,14.401399658203125,0.6787999868392944,-0.45619997382164,9.77239990234375
1683009551514399700,14.421399658203125,0.6848999857902527,-0.4787999987602234,9.770899772644043
1683009551534399700,14.441399658203125,0.6915000081062317,-0.49149999022483826,9.769800186157227
1683009551554399700,14.461399658203124,0.6978999972343445,-0.5001999735832214,9.768899917602539
1683009551574401300,14.4814013671875,0.7089999914169312,-0.5042999982833862,9.767899513244629
1683009551594399700,14.501399658203125,0.723800003528595,-0.5002999901771545,9.767000198364258
1683009551614399700,14.521399658203125,0.7328000068664551,-0.4903999865055084,9.766900062561035
1683009551634401300,14.5414013671875,0.7434999942779541,-0.4973999857902527,9.76569938659668
1683009551654399700,14.561399658203126,0.7572000026702881,-0.5238999724388123,9.763299942016602
1683009551674399700,14.581399658203125,0.767799973487854,-0.5550999641418457,9.760700225830078
1683009551694399700,14.601399658203125,0.7609999775886536,-0.5956999659538269,9.758899688720703
1683009551714401300,14.6214013671875,0.7443999648094177,-0.6520000100135803,9.756499290466309
1683009551734399700,14.641399658203126,0.7443000078201294,-0.7135999798774719,9.75220012664795
1683009551754399700,14.661399658203125,0.7829999923706055,-0.7529000043869019,9.746199607849121
1683009551774401300,14.6814013671875,0.8603000044822693,-0.7480999827384949,9.740099906921387
1683009551794399700,14.701399658203124,0.9578999876976013,-0.7062999606132507,9.734099388122559
1683009551814399700,14.721399658203126,1.0383999347686768,-0.6474999785423279,9.729899406433105
1683009551834399700,14.741399658203125,1.087499976158142,-0.5906000137329102,9.72819995880127
1683009551854399700,14.761399658203125,1.0993999242782593,-0.5529999732971191,9.729100227355957
1683009551874399700,14.781399658203124,1.0744999647140503,-0.5401999950408936,9.732600212097168
1683009551894399700,14.801399658203126,1.044700026512146,-0.5364999771118164,9.736000061035156
1683009551914401300,14.8214013671875,1.020799994468689,-0.5307999849319458,9.738900184631348
1683009551934401300,14.8414013671875,1.0015000104904175,-0.520799994468689,9.741399765014648
1683009551954399700,14.861399658203124,0.9848999977111816,-0.5112000107765198,9.743599891662598
1683009551974399700,14.881399658203126,0.9681999683380127,-0.5054999589920044,9.745599746704102
1683009551994399700,14.901399658203125,0.9553999900817871,-0.5004000067710876,9.747099876403809
1683009552014399700,14.921399658203125,0.948699951171875,-0.49729999899864197,9.747900009155273
1683009552034399700,14.941399658203125,0.9467999935150146,-0.49129998683929443,9.74839973449707
1683009552054399700,14.961399658203124,0.9484999775886536,-0.4819999933242798,9.748700141906738
1683009552074401300,14.9814013671875,0.9484999775886536,-0.4729999899864197,9.749099731445312
1683009552094399700,15.001399658203125,0.9438999891281128,-0.46889999508857727,9.749799728393555
1683009552114399700,15.021399658203125,0.9345999956130981,-0.46799999475479126,9.750699996948242
1683009552134401300,15.0414013671875,0.913100004196167,-0.4712999761104584,9.752599716186523
1683009552154399700,15.061399658203126,0.8932999968528748,-0.4779999852180481,9.75409984588623
1683009552174399700,15.081399658203125,0.8816999793052673,-0.48579999804496765,9.754799842834473
1683009552194399700,15.101399658203125,0.870199978351593,-0.5026000142097473,9.755000114440918
1683009552214399700,15.121399658203124,0.8537999987602234,-0.5173999667167664,9.755599975585938
1683009552234399700,15.141399658203126,0.8416000008583069,-0.5167999863624573,9.756699562072754
1683009552254399700,15.161399658203125,0.849399983882904,-0.5078999996185303,9.756499290466309
1683009552274401300,15.1814013671875,0.8732999563217163,-0.4991999864578247,9.754899978637695
1683009552294399700,15.201399658203124,0.9031999707221985,-0.49859997630119324,9.75220012664795
1683009552314399700,15.221399658203126,0.9154999852180481,-0.5040000081062317,9.750699996948242
1683009552334399700,15.241399658203125,0.9004999995231628,-0.5182999968528748,9.751399993896484
1683009552354399700,15.261399658203125,0.8795999884605408,-0.5360000133514404,9.752299308776855
1683009552374399700,15.281399658203124,0.8588999509811401,-0.545799970626831,9.753600120544434
1683009552394399700,15.301399658203126,0.8420000076293945,-0.5543000102043152,9.754599571228027
1683009552414401300,15.3214013671875,0.8273999691009521,-0.5685999989509583,9.755099296569824
1683009552434401300,15.3414013671875,0.8183000087738037,-0.5881999731063843,9.75469970703125
1683009552454399700,15.361399658203124,0.8190000057220459,-0.5956000089645386,9.754199981689453
1683009552474399700,15.381399658203126,0.8359999656677246,-0.5848000049591064,9.753399848937988
1683009552494399700,15.401399658203125,0.8698999881744385,-0.5496999621391296,9.7524995803833
1683009552514399700,15.421399658203125,0.9085999727249146,-0.4919999837875366,9.751999855041504
1683009552534399700,15.441399658203125,0.9192999601364136,-0.4438000023365021,9.753299713134766
1683009552554399700,15.461399658203124,0.9032999873161316,-0.4318999946117401,9.75529956817627
1683009552574401300,15.4814013671875,0.8605999946594238,-0.43799999356269836,9.758899688720703
1683009552594399700,15.501399658203125,0.8044999837875366,-0.43709999322891235,9.763799667358398
1683009552614399700,15.521399658203125,0.7495999932289124,-0.4196999967098236,9.768899917602539
1683009552634401300,15.5414013671875,0.722000002861023,-0.38509997725486755,9.77239990234375
1683009552654402800,15.56140283203125,0.7295999526977539,-0.3467999994754791,9.773300170898438
1683009552674399700,15.581399658203125,0.7518999576568604,-0.3127000033855438,9.772699356079102
1683009552694399700,15.601399658203125,0.774399995803833,-0.28509998321533203,9.77180004119873
1683009552714401300,15.6214013671875,0.7856000065803528,-0.25999999046325684,9.771599769592285
1683009552734399700,15.641399658203126,0.7888999581336975,-0.23349998891353607,9.77199935913086
1683009552754399700,15.661399658203125,0.7900999784469604,-0.2087000012397766,9.772500038146973
1683009552774401300,15.6814013671875,0.7889999747276306,-0.18809999525547028,9.77299976348877
1683009552794399700,15.701399658203124,0.7831000089645386,-0.1711999922990799,9.773799896240234
1683009552814399700,15.721399658203126,0.7692999839782715,-0.16030000150203705,9.775099754333496
1683009552834399700,15.741399658203125,0.7441999912261963,-0.15479999780654907,9.777099609375
1683009552854399700,15.761399658203125,0.7074999809265137,-0.15150000154972076,9.779899597167969
1683009552874399700,15.781399658203124,0.6604999899864197,-0.1516999900341034,9.783100128173828
1683009552894399700,15.801399658203126,0.6114999651908875,-0.15279999375343323,9.786299705505371
1683009552914401300,15.8214013671875,0.564300000667572,-0.15429998934268951,9.78909969329834
1683009552934399700,15.841399658203125,0.5235999822616577,-0.15809999406337738,9.791299819946289
1683009552954399700,15.861399658203124,0.49889999628067017,-0.1655000001192093,9.792499542236328
1683009552974399700,15.881399658203126,0.48240000009536743,-0.17719998955726624,9.793099403381348
1683009552994399700,15.901399658203125,0.4757999777793884,-0.19909998774528503,9.793000221252441
1683009553014399700,15.921399658203125,0.4756999909877777,-0.22869999706745148,9.792399406433105
1683009553034399700,15.941399658203125,0.48499998450279236,-0.25609999895095825,9.791199684143066
1683009553054399700,15.961399658203124,0.5092999935150146,-0.27570000290870667,9.789499282836914
1683009553074399700,15.981399658203125,0.5435999631881714,-0.2915000021457672,9.787199974060059
1683009553094399700,16.001399658203123,0.5794000029563904,-0.3132999837398529,9.784500122070312
1683009553114399700,16.021399658203126,0.5996999740600586,-0.35019999742507935,9.781999588012695
1683009553134401300,16.0414013671875,0.5870999693870544,-0.4080999791622162,9.780499458312988
1683009553154399700,16.061399658203126,0.561199963092804,-0.4852999746799469,9.778499603271484
1683009553174399700,16.081399658203125,0.5449000000953674,-0.5473999977111816,9.776100158691406
1683009553194399700,16.101399658203125,0.5516999959945679,-0.5845000147819519,9.773599624633789
1683009553214401300,16.1214013671875,0.5803999900817871,-0.613099992275238,9.7701997756958
1683009553234399700,16.141399658203124,0.6326000094413757,-0.640999972820282,9.765199661254883
1683009553254399700,16.161399658203123,0.6690999865531921,-0.6611999869346619,9.76140022277832
1683009553274401300,16.1814013671875,0.6890000104904175,-0.6747999787330627,9.759099960327148
1683009553294399700,16.201399658203126,0.7060999870300293,-0.6843000054359436,9.75719928741455
1683009553314399700,16.221399658203126,0.7317000031471252,-0.689799964427948,9.754899978637695
1683009553334399700,16.241399658203125,0.767799973487854,-0.6891999840736389,9.75220012664795
1683009553354399700,16.261399658203125,0.8021999597549438,-0.6887999773025513,9.74940013885498
1683009553374399700,16.281399658203124,0.825499951839447,-0.6918999552726746,9.747300148010254
1683009553394399700,16.301399658203124,0.8281999826431274,-0.7132999897003174,9.745499610900879
1683009553414399700,16.321399658203124,0.8017999529838562,-0.7602999806404114,9.744099617004395
1683009553434399700,16.341399658203127,0.7556999921798706,-0.8267999887466431,9.742400169372559
1683009553454399700,16.361399658203126,0.7006999850273132,-0.9004999995231628,9.739999771118164
1683009553474399700,16.381399658203126,0.6477999687194824,-0.9729999899864197,9.736700057983398
1683009553494399700,16.401399658203125,0.6098999977111816,-1.0354000329971313,9.732699394226074
1683009553514399700,16.421399658203125,0.5859000086784363,-1.0892999172210693,9.728300094604492
1683009553534399700,16.441399658203125,0.5597000122070312,-1.1435999870300293,9.723599433898926
1683009553554399700,16.461399658203124,0.5236999988555908,-1.19159996509552,9.719799995422363
1683009553574399700,16.481399658203124,0.4860000014305115,-1.2389999628067017,9.715899467468262
1683009553594399700,16.501399658203123,0.45229998230934143,-1.2897999286651611,9.710899353027344
1683009553614399700,16.521399658203126,0.41819998621940613,-1.3427000045776367,9.7052001953125
1683009553634399700,16.541399658203126,0.38359999656677246,-1.392199993133545,9.699699401855469
1683009553654399700,16.561399658203126,0.3546999990940094,-1.4322999715805054,9.694899559020996
1683009553674399700,16.581399658203125,0.3351999819278717,-1.4630999565124512,9.690999984741211
1683009553694399700,16.601399658203125,0.3285999894142151,-1.482100009918213,9.688399314880371
1683009553714399700,16.621399658203124,0.3294999897480011,-1.4880999326705933,9.687399864196777
1683009553734399700,16.641399658203124,0.32839998602867126,-1.4900999069213867,9.687199592590332
1683009553754399700,16.661399658203123,0.3287000060081482,-1.4930999279022217,9.686699867248535
1683009553774399700,16.681399658203127,0.3319000005722046,-1.4853999614715576,9.687799453735352
1683009553794399700,16.701399658203126,0.343999981880188,-1.4571999311447144,9.69159984588623
1683009553814399700,16.721399658203126,0.35979998111724854,-1.4067000150680542,9.69849967956543
1683009553834399700,16.741399658203125,0.3773999810218811,-1.3394999504089355,9.707300186157227
1683009553854399700,16.761399658203125,0.39069998264312744,-1.2619999647140503,9.717199325561523
1683009553874399700,16.781399658203124,0.4026999771595001,-1.1812000274658203,9.726900100708008
1683009553894399700,16.801399658203124,0.4104999899864197,-1.1014000177383423,9.735899925231934
1683009553914399700,16.821399658203124,0.41679999232292175,-1.0328999757766724,9.7431001663208
1683009553934399700,16.841399658203127,0.4229999780654907,-0.9804999828338623,9.748299598693848
1683009553954399700,16.861399658203126,0.42549997568130493,-0.9440999627113342,9.751799583435059
1683009553974399700,16.881399658203126,0.4262000024318695,-0.9199999570846558,9.753999710083008
1683009553994399700,16.901399658203125,0.42329999804496765,-0.9246000051498413,9.75369930267334
1683009554014399700,16.921399658203125,0.41439998149871826,-0.9542999863624573,9.751299858093262
1683009554034399700,16.941399658203125,0.4039999842643738,-0.9907999634742737,9.748000144958496
1683009554054399700,16.961399658203124,0.4242999851703644,-1.006500005722046,9.745599746704102
1683009554074399700,16.981399658203124,0.48909997940063477,-0.9777999520301819,9.745499610900879
1683009554094399700,17.001399658203123,0.5561999678611755,-0.9097999930381775,9.74839973449707
1683009554114399700,17.021399658203126,0.5837999582290649,-0.8294000029563904,9.753999710083008
1683009554134399700,17.041399658203126,0.5738999843597412,-0.7687000036239624,9.759599685668945
1683009554154399700,17.061399658203126,0.548799991607666,-0.7333999872207642,9.763699531555176
1683009554174399700,17.081399658203125,0.531499981880188,-0.7092999815940857,9.766499519348145
1683009554194399700,17.101399658203125,0.5435999631881714,-0.6920999884605408,9.767000198364258
1683009554214399700,17.121399658203124,0.5906000137329102,-0.6812999844551086,9.76509952545166
1683009554234399700,17.141399658203124,0.6402999758720398,-0.6757999658584595,9.762299537658691
1683009554254399700,17.161399658203123,0.6595999598503113,-0.6791999936103821,9.760799407958984
1683009554274399700,17.181399658203127,0.6394999623298645,-0.6962999701499939,9.760899543762207
1683009554294399700,17.201399658203126,0.5999000072479248,-0.7366999983787537,9.760499954223633
1683009554314399700,17.221399658203126,0.56659996509552,-0.7874000072479248,9.758500099182129
1683009554334399700,17.241399658203125,0.553600013256073,-0.8291999697685242,9.755799293518066
1683009554354399700,17.261399658203125,0.5532999634742737,-0.8551999926567078,9.753600120544434
1683009554374399700,17.281399658203124,0.5615999698638916,-0.8655999898910522,9.75220012664795
1683009554394399700,17.301399658203124,0.5715999603271484,-0.8659999966621399,9.751500129699707
1683009554414399700,17.321399658203124,0.5801999568939209,-0.8629999756813049,9.751299858093262
1683009554434399700,17.341399658203127,0.5830999612808228,-0.8621999621391296,9.751199722290039
1683009554454399700,17.361399658203126,0.5828999876976013,-0.8590999841690063,9.751500129699707
1683009554474399700,17.381399658203126,0.5827999711036682,-0.850600004196167,9.75220012664795
1683009554494399700,17.401399658203125,0.583299994468689,-0.8309999704360962,9.753899574279785
1683009554514399700,17.421399658203125,0.5816999673843384,-0.8001999855041504,9.756599426269531
1683009554534399700,17.441399658203125,0.5809999704360962,-0.765999972820282,9.7593994140625
1683009554554399700,17.461399658203124,0.5835999846458435,-0.7378999590873718,9.76140022277832
1683009554574399700,17.481399658203124,0.5906999707221985,-0.7228999733924866,9.762100219726562
1683009554594399700,17.501399658203123,0.5918999910354614,-0.7193999886512756,9.762199401855469
1683009554614399700,17.521399658203126,0.5767999887466431,-0.7204999923706055,9.763099670410156
1683009554634399700,17.541399658203126,0.5546999573707581,-0.7286999821662903,9.763699531555176
1683009554654399700,17.561399658203126,0.5347999930381775,-0.7425000071525574,9.763799667358398
1683009554674399700,17.581399658203125,0.5188999772071838,-0.764799952507019,9.762999534606934
1683009554694399700,17.601399658203125,0.5131999850273132,-0.792199969291687,9.761099815368652
1683009554714399700,17.621399658203124,0.5228999853134155,-0.8068000078201294,9.759299278259277
1683009554734399700,17.641399658203124,0.552899956703186,-0.800599992275238,9.758199691772461
1683009554754399700,17.661399658203123,0.6000999808311462,-0.7902999520301819,9.75629997253418
1683009554774399700,17.681399658203127,0.6439999938011169,-0.7817999720573425,9.75409984588623
1683009554794399700,17.701399658203126,0.682699978351593,-0.7720999717712402,9.752299308776855
1683009554814399700,17.721399658203126,0.7330999970436096,-0.7605999708175659,9.749499320983887
1683009554834399700,17.741399658203125,0.8125,-0.7477999925613403,9.744199752807617
1683009554854399700,17.761399658203125,0.9081999659538269,-0.7355999946594238,9.736700057983398
1683009554874399700,17.781399658203124,1.0026999711990356,-0.7373999953269958,9.727299690246582
1683009554894399700,17.801399658203124,1.0784000158309937,-0.7635999917984009,9.717199325561523
1683009554914399700,17.821399658203124,1.149999976158142,-0.8009999990463257,9.705900192260742
1683009554934399700,17.841399658203127,1.2437999248504639,-0.8118000030517578,9.693499565124512
1683009554954399700,17.861399658203126,1.3539999723434448,-0.776199996471405,9.681599617004395
1683009554974399700,17.881399658203126,1.4530999660491943,-0.7142999768257141,9.67199993133545
1683009554994399700,17.901399658203125,1.517899990081787,-0.6575999855995178,9.666099548339844
1683009555014399700,17.921399658203125,1.5478999614715576,-0.614300012588501,9.664199829101562
1683009555034399700,17.941399658203125,1.542799949645996,-0.5806999802589417,9.666999816894531
1683009555054399700,17.961399658203124,1.5175999402999878,-0.552299976348877,9.672699928283691
1683009555074399700,17.981399658203124,1.4976999759674072,-0.5210999846458435,9.677499771118164
1683009555094399700,18.001399658203123,1.489300012588501,-0.4908999800682068,9.680399894714355
1683009555114399700,18.021399658203126,1.4891999959945679,-0.46140000224113464,9.681900024414062
1683009555134399700,18.041399658203126,1.4889999628067017,-0.420199990272522,9.683799743652344
1683009555154399700,18.061399658203126,1.4797999858856201,-0.3766999840736389,9.686999320983887
1683009555174399700,18.081399658203125,1.46999990940094,-0.34540000557899475,9.689599990844727
1683009555194399700,18.101399658203125,1.455899953842163,-0.34039998054504395,9.691899299621582
1683009555214399700,18.121399658203124,1.4369999170303345,-0.3569999933242798,9.694199562072754
1683009555234399700,18.141399658203124,1.413599967956543,-0.3814999759197235,9.696700096130371
1683009555254399700,18.161399658203123,1.389699935913086,-0.4096999764442444,9.698999404907227
1683009555274399700,18.181399658203127,1.3698999881744385,-0.4415999948978424,9.700399398803711
1683009555294399700,18.201399658203126,1.3603999614715576,-0.4712999761104584,9.700300216674805
1683009555314399700,18.221399658203126,1.3560999631881714,-0.4968999922275543,9.699699401855469
1683009555334399700,18.241399658203125,1.3496999740600586,-0.5285999774932861,9.69890022277832
1683009555354399700,18.261399658203125,1.337999939918518,-0.5716999769210815,9.698100090026855
1683009555374399700,18.281399658203124,1.3241000175476074,-0.6168999671936035,9.697199821472168
1683009555394399700,18.301399658203124,1.3109999895095825,-0.6557999849319458,9.696399688720703
1683009555414399700,18.321399658203124,1.299799919128418,-0.6919999718666077,9.695399284362793
1683009555434399700,18.341399658203127,1.2936999797821045,-0.7307999730110168,9.693399429321289
1683009555454399700,18.361399658203126,1.294700026512146,-0.7723999619483948,9.6899995803833
1683009555474402800,18.38140283203125,1.294700026512146,-0.8118000030517578,9.686800003051758
1683009555494399700,18.401399658203125,1.2879999876022339,-0.8443999886512756,9.68489933013916
1683009555514399700,18.421399658203125,1.2797999382019043,-0.8702999949455261,9.683699607849121
1683009555534399700,18.441399658203125,1.2750999927520752,-0.8970999717712402,9.681900024414062
1683009555554399700,18.461399658203124,1.274899959564209,-0.9228999614715576,9.679499626159668
1683009555574401300,18.4814013671875,1.2699999809265137,-0.9459999799728394,9.677899360656738
1683009555594399700,18.501399658203123,1.2563999891281128,-0.9601999521255493,9.678299903869629
1683009555614399700,18.521399658203126,1.2379999160766602,-0.9626999497413635,9.680399894714355
1683009555634401300,18.5414013671875,1.2264999151229858,-0.9575999975204468,9.68239974975586
1683009555654399700,18.561399658203126,1.2250999212265015,-0.943399965763092,9.683899879455566
1683009555674399700,18.581399658203125,1.2271000146865845,-0.9133999943733215,9.68649959564209
1683009555694399700,18.601399658203125,1.225000023841858,-0.8805999755859375,9.689799308776855
1683009555714401300,18.6214013671875,1.2144999504089355,-0.8534999489784241,9.693599700927734
1683009555734399700,18.641399658203124,1.1941999197006226,-0.8399999737739563,9.69729995727539
1683009555754399700,18.661399658203123,1.1704999208450317,-0.8283999562263489,9.701199531555176
1683009555774401300,18.6814013671875,1.1619999408721924,-0.8003000020980835,9.704599380493164
1683009555794399700,18.701399658203126,1.1797999143600464,-0.7579999566078186,9.70580005645752
1683009555814399700,18.721399658203126,1.208799958229065,-0.7080999612808228,9.705999374389648
1683009555834399700,18.741399658203125,1.2199000120162964,-0.6696999669075012,9.707300186157227
1683009555854399700,18.761399658203125,1.191999912261963,-0.6635000109672546,9.711199760437012
1683009555874399700,18.781399658203124,1.1375999450683594,-0.6678000092506409,9.717499732971191
1683009555894399700,18.801399658203124,1.0792999267578125,-0.6589999794960022,9.724699974060059
1683009555914399700,18.821399658203124,1.0362999439239502,-0.6182999610900879,9.732099533081055
1683009555934401300,18.8414013671875,1.0205999612808228,-0.5605999827384949,9.737199783325195
1683009555954399700,18.861399658203126,1.0300999879837036,-0.5085999965667725,9.739099502563477
1683009555974399700,18.881399658203126,1.044700026512146,-0.4700999855995178,9.739500045776367
1683009555994399700,18.901399658203125,1.0551999807357788,-0.4439999759197235,9.739500045776367
1683009556014399700,18.921399658203125,1.0468999147415161,-0.4323999881744385,9.741000175476074
1683009556034399700,18.941399658203125,1.021399974822998,-0.44200000166893005,9.743199348449707
1683009556054399700,18.961399658203124,0.9864999651908875,-0.46639999747276306,9.745699882507324
1683009556074401300,18.9814013671875,0.9567999839782715,-0.5004000067710876,9.746999740600586
1683009556094399700,19.001399658203123,0.9352999925613403,-0.5389999747276306,9.746999740600586
1683009556114399700,19.021399658203126,0.920699954032898,-0.5776000022888184,9.746199607849121
1683009556134401300,19.0414013671875,0.9211999773979187,-0.6132000088691711,9.743999481201172
1683009556154399700,19.061399658203126,0.9269999861717224,-0.6406999826431274,9.741600036621094
1683009556174399700,19.081399658203125,0.9329999685287476,-0.6621999740600586,9.73960018157959
1683009556194399700,19.101399658203125,0.9409999847412109,-0.6787999868392944,9.737699508666992
1683009556214401300,19.1214013671875,0.9503999948501587,-0.6987000107765198,9.735400199890137
1683009556234399700,19.141399658203124,0.9648000001907349,-0.73089998960495,9.731599807739258
1683009556254399700,19.161399658203123,0.9794999957084656,-0.7709999680519104,9.726999282836914
1683009556274401300,19.1814013671875,0.9952999949455261,-0.8133999705314636,9.722000122070312
1683009556294399700,19.201399658203126,1.013800024986267,-0.8543999791145325,9.716499328613281
1683009556314399700,19.221399658203126,1.0339999198913574,-0.8883000016212463,9.711400032043457
1683009556334399700,19.241399658203125,1.0547000169754028,-0.9160999655723572,9.706600189208984
1683009556354399700,19.261399658203125,1.0727999210357666,-0.9404999613761902,9.702300071716309
1683009556374399700,19.281399658203124,1.0829999446868896,-0.9633999466896057,9.69890022277832
1683009556394399700,19.301399658203124,1.0885999202728271,-0.9818999767303467,9.696399688720703
1683009556414399700,19.321399658203124,1.075600028038025,-0.9991999864578247,9.696099281311035
1683009556434399700,19.341399658203127,1.0778999328613281,-1.0181000232696533,9.693900108337402
1683009556454399700,19.361399658203126,1.0865999460220337,-1.0088999271392822,9.69379997253418
1683009556474399700,19.381399658203126,1.0878000259399414,-0.9829999804496765,9.696399688720703
1683009556494399700,19.401399658203125,1.0981999635696411,-0.9585999846458435,9.697599411010742
1683009556514399700,19.421399658203125,1.1165999174118042,-0.9353999495506287,9.697799682617188
1683009556534399700,19.441399658203125,1.1461999416351318,-0.911300003528595,9.696599960327148
1683009556554399700,19.461399658203124,1.1823999881744385,-0.8779000043869019,9.695399284362793
1683009556574399700,19.481399658203124,1.2235000133514404,-0.8497999906539917,9.69279956817627
1683009556594399700,19.501399658203123,1.2613999843597412,-0.8312999606132507,9.689499855041504
1683009556614399700,19.521399658203126,1.2764999866485596,-0.8251000046730042,9.68809986114502
1683009556634399700,19.541399658203126,1.2702000141143799,-0.8360999822616577,9.687999725341797
1683009556654399700,19.561399658203126,1.2451000213623047,-0.8634999990463257,9.688799858093262
1683009556674399700,19.581399658203125,1.2151999473571777,-0.8913999795913696,9.690099716186523
1683009556694399700,19.601399658203125,1.1994999647140503,-0.9056999683380127,9.690699577331543
1683009556714399700,19.621399658203124,1.199199914932251,-0.9023000001907349,9.691100120544434
1683009556734399700,19.641399658203124,1.2092000246047974,-0.8931999802589417,9.690699577331543
1683009556754399700,19.661399658203123,1.2197999954223633,-0.8932999968528748,9.689299583435059
1683009556774399700,19.681399658203127,1.2206000089645386,-0.9091999530792236,9.687799453735352
1683009556794399700,19.701399658203126,1.1999999284744263,-0.9336999654769897,9.687999725341797
1683009556814399700,19.721399658203126,1.1613999605178833,-0.9562000036239624,9.690499305725098
1683009556834399700,19.741399658203125,1.114300012588501,-0.9726999998092651,9.6943998336792
1683009556854399700,19.761399658203125,1.0616999864578247,-0.982699990272522,9.699299812316895
1683009556874399700,19.781399658203124,1.003499984741211,-0.9866999983787537,9.705100059509277
1683009556894399700,19.801399658203124,0.949999988079071,-0.9793999791145325,9.711199760437012
1683009556914399700,19.821399658203124,0.9088999629020691,-0.9562999606132507,9.717399597167969
1683009556934399700,19.841399658203127,0.8734999895095825,-0.920799970626831,9.724100112915039
1683009556954399700,19.861399658203126,0.8445000052452087,-0.885699987411499,9.729899406433105
1683009556974399700,19.881399658203126,0.8270999789237976,-0.8672999739646912,9.733099937438965
1683009556994399700,19.901399658203125,0.8289999961853027,-0.8700999617576599,9.732699394226074
1683009557014399700,19.921399658203125,0.8346999883651733,-0.8859999775886536,9.73069953918457
1683009557034399700,19.941399658203125,0.8371999859809875,-0.9128999710083008,9.727999687194824
1683009557054399700,19.961399658203124,0.8420999646186829,-0.948699951171875,9.724199295043945
1683009557074399700,19.981399658203124,0.8454999923706055,-0.9810999631881714,9.720699310302734
1683009557094399700,20.001399658203123,0.8504999876022339,-1.0047999620437622,9.71780014038086
1683009557114399700,20.021399658203126,0.8456999659538269,-1.0196999311447144,9.716699600219727
1683009557134399700,20.041399658203126,0.839199960231781,-1.0250999927520752,9.716699600219727
1683009557154399700,20.061399658203126,0.8315999507904053,-1.0181999206542969,9.718099594116211
1683009557174399700,20.081399658203125,0.8136000037193298,-0.9979999661445618,9.721699714660645
1683009557194399700,20.101399658203125,0.7874999642372131,-0.9758999943733215,9.726099967956543
1683009557214399700,20.121399658203124,0.7708999514579773,-0.9560999870300293,9.729399681091309
1683009557234399700,20.141399658203124,0.7608000040054321,-0.9399999976158142,9.73169994354248
1683009557254399700,20.161399658203123,0.7616999745368958,-0.9312999844551086,9.732500076293945
1683009557274399700,20.181399658203127,0.7505999803543091,-0.9330999851226807,9.733200073242188
1683009557294399700,20.201399658203126,0.7191999554634094,-0.9432999491691589,9.734600067138672
1683009557314399700,20.221399658203126,0.6818000078201294,-0.9488999843597412,9.736700057983398
1683009557334399700,20.241399658203125,0.6420999765396118,-0.9430999755859375,9.739999771118164
1683009557354399700,20.261399658203125,0.6110000014305115,-0.935699999332428,9.74269962310791
1683009557374399700,20.281399658203124,0.5920000076293945,-0.930899977684021,9.74429988861084
1683009557394399700,20.301399658203124,0.5755999684333801,-0.9228000044822693,9.746099472045898
1683009557414399700,20.321399658203124,0.5587999820709229,-0.9086999893188477,9.74839973449707
1683009557434399700,20.341399658203127,0.5407999753952026,-0.8910999894142151,9.750999450683594
1683009557454399700,20.361399658203126,0.5281000137329102,-0.875,9.753199577331543
1683009557474399700,20.381399658203126,0.5239999890327454,-0.8646000027656555,9.754300117492676
1683009557494399700,20.401399658203125,0.5295999646186829,-0.8632999658584595,9.754199981689453
1683009557514399700,20.421399658203125,0.5320999622344971,-0.8664000034332275,9.75369930267334
1683009557534399700,20.441399658203125,0.5306999683380127,-0.8682999610900879,9.753600120544434
1683009557554399700,20.461399658203124,0.5259999632835388,-0.8715999722480774,9.753600120544434
1683009557574399700,20.481399658203124,0.5231999754905701,-0.8728999495506287,9.753600120544434
1683009557594399700,20.501399658203123,0.5194999575614929,-0.8730999827384949,9.753799438476562
1683009557614399700,20.521399658203126,0.5171999931335449,-0.873199999332428,9.753899574279785
1683009557634399700,20.541399658203126,0.513700008392334,-0.8805999755859375,9.753499984741211
1683009557654399700,20.561399658203126,0.5137999653816223,-0.8920999765396118,9.752399444580078
1683009557674399700,20.581399658203125,0.5101999640464783,-0.9047999978065491,9.751399993896484
1683009557694399700,20.601399658203125,0.508899986743927,-0.914900004863739,9.75059986114502
1683009557714399700,20.621399658203124,0.5121999979019165,-0.9213999509811401,9.749799728393555
1683009557734399700,20.641399658203124,0.5277999639511108,-0.9217000007629395,9.748899459838867
1683009557754399700,20.661399658203123,0.5564999580383301,-0.9194999933242798,9.747499465942383
1683009557774399700,20.681399658203127,0.5830000042915344,-0.9165999889373779,9.746199607849121
1683009557794399700,20.701399658203126,0.6054999828338623,-0.9228999614715576,9.74429988861084
1683009557814399700,20.721399658203126,0.6275999546051025,-0.9375999569892883,9.741499900817871
1683009557834399700,20.741399658203125,0.6466000080108643,-0.9594999551773071,9.738100051879883
1683009557854399700,20.761399658203125,0.6690999865531921,-0.9837999939918518,9.734199523925781
1683009557874399700,20.781399658203124,0.6947000026702881,-1.0017999410629272,9.730500221252441
1683009557894399700,20.801399658203124,0.7254999876022339,-1.013700008392334,9.726999282836914
1683009557914399700,20.821399658203124,0.7484999895095825,-1.0164999961853027,9.72499942779541
1683009557934399700,20.841399658203127,0.7558000087738037,-1.0267000198364258,9.723400115966797
1683009557954399700,20.861399658203126,0.774899959564209,-1.0504999160766602,9.71929931640625
1683009557974399700,20.881399658203126,0.7900999784469604,-1.0714999437332153,9.715799331665039
1683009557994399700,20.901399658203125,0.8057999610900879,-1.0877000093460083,9.712699890136719
1683009558014399700,20.921399658203125,0.8264999985694885,-1.0894999504089355,9.710800170898438
1683009558034399700,20.941399658203125,0.8547999858856201,-1.076799988746643,9.709699630737305
1683009558054399700,20.961399658203124,0.9074999690055847,-1.0478999614715576,9.708099365234375
1683009558074399700,20.981399658203124,0.979699969291687,-1.0023999214172363,9.705900192260742
1683009558094399700,21.001399658203123,1.0509999990463257,-0.9479999542236328,9.703899383544922
1683009558114399700,21.021399658203126,1.1038999557495117,-0.8981999754905701,9.702799797058105
1683009558134399700,21.041399658203126,1.1237999200820923,-0.8710999488830566,9.70300006866455
1683009558154399700,21.061399658203126,1.1157000064849854,-0.8675000071525574,9.70419979095459
1683009558174399700,21.081399658203125,1.0839999914169312,-0.8777999877929688,9.706899642944336
1683009558194399700,21.101399658203125,1.0504000186920166,-0.8855999708175659,9.70989990234375
1683009558214399700,21.121399658203124,1.0288000106811523,-0.884399950504303,9.712299346923828
1683009558234399700,21.141399658203124,1.0124000310897827,-0.8788999915122986,9.714499473571777
1683009558254399700,21.161399658203123,0.9911999702453613,-0.8700999617576599,9.717499732971191
1683009558274399700,21.181399658203127,0.9697999954223633,-0.8567999601364136,9.720799446105957
1683009558294399700,21.201399658203126,0.9508999586105347,-0.8402999639511108,9.724100112915039
1683009558314399700,21.221399658203126,0.9353999495506287,-0.8264999985694885,9.726799964904785
1683009558334399700,21.241399658203125,0.9204999804496765,-0.8180999755859375,9.729000091552734
1683009558354399700,21.261399658203125,0.9032999873161316,-0.814799964427948,9.730799674987793
1683009558374399700,21.281399658203124,0.8829999566078186,-0.8136999607086182,9.732799530029297
1683009558394399700,21.301399658203124,0.8604999780654907,-0.8116999864578247,9.734999656677246
1683009558414399700,21.321399658203124,0.8428999781608582,-0.807699978351593,9.736899375915527
1683009558434399700,21.341399658203127,0.8313999772071838,-0.8008999824523926,9.738399505615234
1683009558454399700,21.361399658203126,0.8233000040054321,-0.7954999804496765,9.739500045776367
1683009558474399700,21.381399658203126,0.8208999633789062,-0.7950999736785889,9.739799499511719
1683009558494399700,21.401399658203125,0.8237999677658081,-0.7985999584197998,9.7391996383667
1683009558514399700,21.421399658203125,0.8226999640464783,-0.8046999573707581,9.738800048828125
1683009558534399700,21.441399658203125,0.8154999613761902,-0.8161999583244324,9.738499641418457
1683009558554399700,21.461399658203124,0.7967000007629395,-0.8283999562263489,9.738999366760254
1683009558574399700,21.481399658203124,0.769599974155426,-0.8413999676704407,9.740099906921387
1683009558594399700,21.501399658203123,0.7494999766349792,-0.8556999564170837,9.740399360656738
1683009558614399700,21.521399658203126,0.733199954032898,-0.8695999979972839,9.740399360656738
1683009558634399700,21.541399658203126,0.7132999897003174,-0.8941999673843384,9.739699363708496
1683009558654399700,21.561399658203126,0.6937999725341797,-0.9296999573707581,9.737699508666992
1683009558674399700,21.581399658203125,0.6750999689102173,-0.9608999490737915,9.736000061035156
1683009558694399700,21.601399658203125,0.6487999558448792,-0.9795999526977539,9.735899925231934
1683009558714399700,21.621399658203124,0.6093999743461609,-0.9930999875068665,9.737099647521973
1683009558734399700,21.641399658203124,0.5827999711036682,-1.0104999542236328,9.73699951171875
1683009558754399700,21.661399658203123,0.5769000053405762,-1.0255999565124512,9.735699653625488
1683009558774399700,21.681399658203127,0.593999981880188,-1.039199948310852,9.73330020904541
1683009558794399700,21.701399658203126,0.6358999609947205,-1.0580999851226807,9.728599548339844
1683009558814399700,21.721399658203126,0.6976999640464783,-1.0643999576568604,9.723699569702148
1683009558834399700,21.741399658203125,0.7770999670028687,-1.0467000007629395,9.719599723815918
1683009558854399700,21.761399658203125,0.8621999621391296,-1.0022000074386597,9.717100143432617
1683009558874399700,21.781399658203124,0.9322999715805054,-0.9573999643325806,9.715099334716797
1683009558894399700,21.801399658203124,0.9602999687194824,-0.9317999482154846,9.714900016784668
1683009558914399700,21.821399658203124,0.9325000047683716,-0.9359999895095825,9.717199325561523
1683009558934399700,21.841399658203127,0.8751999735832214,-0.9502999782562256,9.721099853515625
1683009558954399700,21.861399658203126,0.805899977684021,-0.9519000053405762,9.726999282836914
1683009558974399700,21.881399658203126,0.7423999905586243,-0.9426999688148499,9.73289966583252
1683009558994399700,21.901399658203125,0.6958000063896179,-0.9325999617576599,9.737299919128418
1683009559014399700,21.921399658203125,0.6714000105857849,-0.924299955368042,9.739799499511719
1683009559034399700,21.941399658203125,0.6549999713897705,-0.9092999696731567,9.742300033569336
1683009559054399700,21.961399658203124,0.6491000056266785,-0.880899965763092,9.745399475097656
1683009559074399700,21.981399658203124,0.6545000076293945,-0.8418999910354614,9.74839973449707
1683009559094399700,22.001399658203123,0.6685999631881714,-0.8033999800682068,9.750699996948242
1683009559114399700,22.021399658203126,0.6855999827384949,-0.7764999866485596,9.751699447631836
1683009559134399700,22.041399658203126,0.6972000002861023,-0.762499988079071,9.751999855041504
1683009559154399700,22.061399658203126,0.7012999653816223,-0.758899986743927,9.751999855041504
1683009559174399700,22.081399658203125,0.7028999924659729,-0.7576999664306641,9.751999855041504
1683009559194399700,22.101399658203125,0.7094999551773071,-0.7508999705314636,9.751999855041504
1683009559214399700,22.121399658203124,0.718999981880188,-0.7379999756813049,9.752299308776855
1683009559234399700,22.141399658203124,0.7295999526977539,-0.7231000065803528,9.752599716186523
1683009559254399700,22.161399658203123,0.7428999543190002,-0.7148000001907349,9.752299308776855
1683009559274399700,22.181399658203127,0.7519999742507935,-0.7148000001907349,9.751599311828613
1683009559294399700,22.201399658203126,0.7603999972343445,-0.7182999849319458,9.750699996948242
1683009559314399700,22.221399658203126,0.7731999754905701,-0.7245000004768372,9.749199867248535
1683009559334399700,22.241399658203125,0.7917999625205994,-0.7358999848365784,9.74679946899414
1683009559354399700,22.261399658203125,0.8125,-0.7555999755859375,9.743599891662598
1683009559374399700,22.281399658203124,0.8352999687194824,-0.780299961566925,9.739699363708496
1683009559394399700,22.301399658203124,0.8625999689102173,-0.8039999604225159,9.735400199890137
1683009559414399700,22.321399658203124,0.8931999802589417,-0.8215999603271484,9.731200218200684
1683009559434399700,22.341399658203127,0.9243999719619751,-0.8356999754905701,9.727099418640137
1683009559454399700,22.361399658203126,0.958299994468689,-0.8460999727249146,9.722899436950684
1683009559474399700,22.381399658203126,0.9845999479293823,-0.8506999611854553,9.719900131225586
1683009559494399700,22.401399658203125,1.0068999528884888,-0.8515999913215637,9.717499732971191
1683009559514399700,22.421399658203125,1.037500023841858,-0.8471999764442444,9.714699745178223
1683009559534399700,22.441399658203125,1.0663999319076538,-0.8393999934196472,9.712200164794922
1683009559554399700,22.461399658203124,1.0888999700546265,-0.8371999859809875,9.70989990234375
1683009559574399700,22.481399658203124,1.1064000129699707,-0.8364999890327454,9.708000183105469
1683009559594399700,22.501399658203123,1.1334999799728394,-0.8280999660491943,9.705599784851074
1683009559614399700,22.521399658203126,1.1704999208450317,-0.8050999641418457,9.703100204467773
1683009559634399700,22.541399658203126,1.2323999404907227,-0.7773999571800232,9.697699546813965
1683009559654399700,22.561399658203126,1.3157999515533447,-0.7537999749183655,9.688599586486816
1683009559674399700,22.581399658203125,1.372499942779541,-0.746399998664856,9.68139934539795
1683009559694399700,22.601399658203125,1.3809999227523804,-0.7534999847412109,9.67959976196289
1683009559714399700,22.621399658203124,1.3637999296188354,-0.7567999958992004,9.68179988861084
1683009559734399700,22.641399658203124,1.3385999202728271,-0.7414999604225159,9.68649959564209
1683009559754399700,22.661399658203123,1.3370000123977661,-0.711899995803833,9.688899993896484
1683009559774399700,22.681399658203127,1.3544999361038208,-0.676800012588501,9.689000129699707
1683009559794399700,22.701399658203126,1.3691999912261963,-0.6499999761581421,9.688799858093262
1683009559814399700,22.721399658203126,1.3702999353408813,-0.6376000046730042,9.689399719238281
1683009559834399700,22.741399658203125,1.3580999374389648,-0.6371999979019165,9.69119930267334
1683009559854399700,22.761399658203125,1.3342000246047974,-0.6471999883651733,9.69379997253418
1683009559874399700,22.781399658203124,1.302799940109253,-0.6664999723434448,9.696799278259277
1683009559894399700,22.801399658203124,1.2755999565124512,-0.6904000043869019,9.698699951171875
1683009559914399700,22.821399658203124,1.2516000270843506,-0.7166999578475952,9.699999809265137
1683009559934399700,22.841399658203127,1.2264999151229858,-0.7419999837875366,9.701299667358398
1683009559954399700,22.861399658203126,1.1983000040054321,-0.7652999758720398,9.70300006866455
1683009559974399700,22.881399658203126,1.1669999361038208,-0.7871999740600586,9.704999923706055
1683009559994401300,22.9014013671875,1.1338999271392822,-0.8042999505996704,9.707599639892578
1683009560014399700,22.921399658203125,1.1055999994277954,-0.8161999583244324,9.709799766540527
1683009560034399700,22.941399658203125,1.0858999490737915,-0.8252999782562256,9.711299896240234
1683009560054399700,22.961399658203124,1.0691999197006226,-0.8355000019073486,9.712299346923828
1683009560074401300,22.9814013671875,1.0463999509811401,-0.8509999513626099,9.713399887084961
1683009560094399700,23.001399658203123,1.0196000337600708,-0.8743999600410461,9.714200019836426
1683009560114399700,23.021399658203126,0.9896000027656555,-0.9072999954223633,9.714300155639648
1683009560134399700,23.041399658203126,0.9595999717712402,-0.9454999566078186,9.713600158691406
1683009560154399700,23.061399658203126,0.927899956703186,-0.9817999601364136,9.713099479675293
1683009560174399700,23.081399658203125,0.8998000025749207,-1.0119999647140503,9.712599754333496
1683009560194399700,23.101399658203125,0.87909996509552,-1.0356999635696411,9.711999893188477
1683009560214401300,23.1214013671875,0.8553999662399292,-1.0591999292373657,9.711599349975586
1683009560234399700,23.141399658203124,0.8278999924659729,-1.0835000276565552,9.711299896240234
1683009560254399700,23.161399658203123,0.8130999803543091,-1.089900016784668,9.711899757385254
1683009560274401300,23.1814013671875,0.8161999583244324,-1.0643999576568604,9.714399337768555
1683009560294399700,23.201399658203126,0.842799961566925,-1.0092999935150146,9.717999458312988
1683009560314399700,23.221399658203126,0.8867999911308289,-0.9531999826431274,9.719799995422363
1683009560334399700,23.241399658203125,0.9369999766349792,-0.9060999751091003,9.719599723815918
1683009560354401300,23.2614013671875,0.98089998960495,-0.8527999520301819,9.720099449157715
1683009560374399700,23.281399658203124,1.000100016593933,-0.7896999716758728,9.723499298095703
1683009560394399700,23.301399658203124,0.9968999624252319,-0.7371000051498413,9.727899551391602
1683009560414399700,23.321399658203124,0.9835000038146973,-0.6997999548912048,9.731999397277832
1683009560434401300,23.3414013671875,0.9529999494552612,-0.6640999913215637,9.73759937286377
1683009560454399700,23.361399658203126,0.9221999645233154,-0.6179999709129333,9.743599891662598
1683009560474399700,23.381399658203126,0.8953999876976013,-0.5690000057220459,9.74899959564209
1683009560494401300,23.4014013671875,0.8740999698638916,-0.5218999981880188,9.753600120544434
1683009560514399700,23.421399658203125,0.8554999828338623,-0.47589999437332153,9.757599830627441
1683009560534399700,23.441399658203125,0.8468999862670898,-0.4311999976634979,9.76039981842041
1683009560554399700,23.461399658203124,0.8438000082969666,-0.39499998092651367,9.762199401855469
1683009560574399700,23.481399658203124,0.8385999798774719,-0.3644999861717224,9.763899803161621
1683009560594402800,23.50140283203125,0.8308999538421631,-0.3414999842643738,9.765399932861328
1683009560614399700,23.521399658203126,0.8240999579429626,-0.3296999931335449,9.766300201416016
1683009560634399700,23.541399658203126,0.8141999840736389,-0.32829999923706055,9.767199516296387
1683009560654401300,23.5614013671875,0.795799970626831,-0.3330000042915344,9.768599510192871
1683009560674399700,23.581399658203125,0.778499960899353,-0.33959999680519104,9.769700050354004
1683009560694399700,23.601399658203125,0.7615999579429626,-0.3479999899864197,9.77079963684082
1683009560714401300,23.6214013671875,0.7434999942779541,-0.36039999127388,9.771699905395508
1683009560734399700,23.641399658203124,0.7285999655723572,-0.3805999755859375,9.772099494934082
1683009560754399700,23.661399658203123,0.7160999774932861,-0.41509997844696045,9.771599769592285
1683009560774399700,23.681399658203127,0.6985999941825867,-0.461899995803833,9.77079963684082
1683009560794399700,23.701399658203126,0.6837999820709229,-0.5212999582290649,9.768799781799316
1683009560814399700,23.721399658203126,0.6723999977111816,-0.5870999693870544,9.765899658203125
1683009560834399700,23.741399658203125,0.6685000061988831,-0.6572999954223633,9.761699676513672
1683009560854399700,23.761399658203125,0.6732000112533569,-0.727400004863739,9.756400108337402
1683009560874399700,23.781399658203124,0.6809999942779541,-0.7910000085830688,9.750899314880371
1683009560894402800,23.80140283203125,0.6901999711990356,-0.8567000031471252,9.744699478149414
1683009560914402800,23.82140283203125,0.7015999555587769,-0.921999990940094,9.737899780273438
1683009560934401300,23.8414013671875,0.7111999988555908,-0.9807999730110168,9.731499671936035
1683009560954399700,23.861399658203126,0.724299967288971,-1.0211999416351318,9.726299285888672
1683009560974399700,23.881399658203126,0.7310999631881714,-1.0463999509811401,9.723199844360352
1683009560994399700,23.901399658203125,0.7432999610900879,-1.0784999132156372,9.71869945526123
1683009561014399700,23.921399658203125,0.7669000029563904,-1.108799934387207,9.713500022888184
1683009561034399700,23.941399658203125,0.7810999751091003,-1.1266999244689941,9.710299491882324
1683009561054399700,23.961399658203124,0.8070999979972839,-1.1370999813079834,9.706899642944336
1683009561074401300,23.9814013671875,0.8486999869346619,-1.1521999835968018,9.701600074768066
1683009561094399700,24.001399658203123,0.8974999785423279,-1.1848000288009644,9.693299293518066
1683009561114399700,24.021399658203126,0.9258999824523926,-1.2249000072479248,9.685599327087402
1683009561134402800,24.04140283203125,0.9181999564170837,-1.26829993724823,9.68079948425293
1683009561154402800,24.06140283203125,0.9004999995231628,-1.319000005722046,9.675700187683105
1683009561174399700,24.081399658203125,0.8920999765396118,-1.3729000091552734,9.668899536132812
1683009561194399700,24.101399658203125,0.8871999979019165,-1.4175000190734863,9.663000106811523
1683009561214401300,24.1214013671875,0.873199999332428,-1.4424999952316284,9.660499572753906
1683009561234399700,24.141399658203124,0.8570999503135681,-1.4534000158309937,9.660299301147461
1683009561254399700,24.161399658203123,0.8555999994277954,-1.4535999298095703,9.660399436950684
1683009561274399700,24.181399658203127,0.8675999641418457,-1.448699951171875,9.660099983215332
1683009561294399700,24.201399658203126,0.8841999769210815,-1.4448000192642212,9.659199714660645
1683009561314399700,24.221399658203126,0.8982999920845032,-1.449199914932251,9.65719985961914
1683009561334399700,24.241399658203125,0.9070000052452087,-1.4607999324798584,9.654699325561523
1683009561354399700,24.261399658203125,0.9110999703407288,-1.4763000011444092,9.651899337768555
1683009561374399700,24.281399658203124,0.9113999605178833,-1.4946999549865723,9.649099349975586
1683009561394399700,24.301399658203124,0.911899983882904,-1.5099999904632568,9.646599769592285
1683009561414399700,24.321399658203124,0.9150999784469604,-1.5164999961853027,9.645299911499023
1683009561434401300,24.3414013671875,0.920699954032898,-1.5123000144958496,9.645400047302246
1683009561454399700,24.361399658203126,0.9233999848365784,-1.4988999366760254,9.647299766540527
1683009561474399700,24.381399658203126,0.9170999526977539,-1.4769999980926514,9.651199340820312
1683009561494399700,24.401399658203125,0.9024999737739563,-1.4491000175476074,9.656899452209473
1683009561514399700,24.421399658203125,0.8809999823570251,-1.4190999269485474,9.663299560546875
1683009561534399700,24.441399658203125,0.8547999858856201,-1.3880999088287354,9.670100212097168
1683009561554399700,24.461399658203124,0.8262999653816223,-1.3601999282836914,9.676599502563477
1683009561574401300,24.4814013671875,0.7996999621391296,-1.3394999504089355,9.681699752807617
1683009561594399700,24.501399658203123,0.7775999903678894,-1.3293999433517456,9.68489933013916
1683009561614399700,24.521399658203126,0.752299964427948,-1.3291999101638794,9.68690013885498
1683009561634401300,24.5414013671875,0.724399983882904,-1.3320000171661377,9.688699722290039
1683009561654401300,24.5614013671875,0.7102000117301941,-1.3287999629974365,9.690199851989746
1683009561674399700,24.581399658203125,0.687999963760376,-1.3525999784469604,9.688499450683594
1683009561694399700,24.601399658203125,0.6764999628067017,-1.3840999603271484,9.684800148010254
1683009561714401300,24.6214013671875,0.666700005531311,-1.4172999858856201,9.680699348449707
1683009561734399700,24.641399658203124,0.6613999605178833,-1.4452999830245972,9.676899909973145
1683009561754399700,24.661399658203123,0.6431999802589417,-1.465499997138977,9.67509937286377
1683009561774399700,24.681399658203127,0.6164000034332275,-1.4817999601364136,9.674399375915527
1683009561794399700,24.701399658203126,0.6105999946594238,-1.493899941444397,9.672900199890137
1683009561814399700,24.721399658203126,0.6306999921798706,-1.4800000190734863,9.673699378967285
1683009561834399700,24.741399658203125,0.6603999733924866,-1.4528999328613281,9.675799369812012
1683009561854399700,24.761399658203125,0.6980999708175659,-1.43559992313385,9.675799369812012
1683009561874399700,24.781399658203124,0.7368999719619751,-1.4392999410629272,9.672399520874023
1683009561894399700,24.801399658203124,0.7554000020027161,-1.4404000043869019,9.67080020904541
1683009561914399700,24.821399658203124,0.7235999703407288,-1.4275000095367432,9.67509937286377
1683009561934399700,24.841399658203127,0.6771000027656555,-1.4223999977111816,9.679200172424316
1683009561954399700,24.861399658203126,0.6358999609947205,-1.4312999248504639,9.680699348449707
1683009561974399700,24.881399658203126,0.6107000112533569,-1.4441999197006226,9.680399894714355
1683009561994399700,24.901399658203125,0.5953999757766724,-1.4358999729156494,9.682600021362305
1683009562014399700,24.921399658203125,0.599399983882904,-1.4043999910354614,9.686999320983887
1683009562034399700,24.941399658203125,0.6251999735832214,-1.3624999523162842,9.691299438476562
1683009562054399700,24.961399658203124,0.6559000015258789,-1.3141999244689941,9.696000099182129
1683009562074399700,24.981399658203124,0.6762999892234802,-1.2569999694824219,9.702199935913086
1683009562094399700,25.001399658203123,0.6888999938964844,-1.197700023651123,9.708799362182617
1683009562114399700,25.021399658203126,0.6940000057220459,-1.1560999155044556,9.713399887084961
1683009562134399700,25.041399658203126,0.6904000043869019,-1.1445999145507812,9.715099334716797
1683009562154399700,25.061399658203126,0.6764000058174133,-1.1452999114990234,9.715999603271484
1683009562174399700,25.081399658203125,0.6625999808311462,-1.1431999206542969,9.717199325561523
1683009562194399700,25.101399658203125,0.6504999995231628,-1.1358000040054321,9.718899726867676
1683009562214399700,25.121399658203124,0.6399999856948853,-1.1370999813079834,9.719399452209473
1683009562234399700,25.141399658203124,0.6226999759674072,-1.1452000141143799,9.719599723815918
1683009562254399700,25.161399658203123,0.6010000109672546,-1.1582000255584717,9.719399452209473
1683009562274399700,25.181399658203127,0.5823000073432922,-1.1770999431610107,9.718299865722656
1683009562294399700,25.201399658203126,0.5680999755859375,-1.1966999769210815,9.716699600219727
