time,seconds_elapsed,z,y,x,,,z,y,x,,t,z,y,x
1.68301E+18,0.041399658,-0.203899994,-0.079899997,-0.965900004,,,2.106400013,-0.174999997,9.576099396,,1,1.902500018,-0.254899994,8.610199392
1.68301E+18,0.061406006,-0.203899994,-0.079899997,-0.965900004,,,2.106400013,-0.174999997,9.576099396,,2,1.902500018,-0.254899994,8.610199392
1.68301E+18,0.081399658,0.019299999,-0.011899999,0.146200001,,,1.284799933,-0.792099953,9.689700127,,3,1.304099932,-0.803999952,9.835900128
1.68301E+18,0.101399658,0.0004,0.0069,0.1461,,,1.284199953,-0.791499972,9.689899445,,4,1.284599953,-0.784599972,9.835999444
1.68301E+18,0.121399658,-0.045599997,-0.145400003,0.283399999,,,1.281199932,-0.795899987,9.689899445,,5,1.235599935,-0.94129999,9.973299444
1.68301E+18,0.141399658,0.075300001,-0.052499998,0.117899999,,,1.287699938,-0.800599992,9.688699722,,6,1.362999938,-0.853099991,9.806599721
1.68301E+18,0.161399658,-0.0083,0.0242,0.0048,,,1.273299932,-0.7597,9.693799973,,7,1.264999933,-0.7355,9.698599972
1.68301E+18,0.181399658,-0.236999989,0.051799998,-0.0129,,,1.217700005,-0.748099983,9.701899529,,8,0.980700016,-0.696299985,9.688999529
1.68301E+18,0.201399658,-0.164499998,0.0107,0.230299994,,,1.203999996,-0.746199965,9.703800201,,9,1.039499998,-0.735499966,9.934100196
1.68301E+18,0.221399658,0.0132,-0.0276,0.230199993,,,1.202700019,-0.746999979,9.703800201,,10,1.215900019,-0.774599979,9.934000194
1.68301E+18,0.241399658,-0.0006,-0.059599999,0.291799992,,,1.226400018,-0.744399965,9.701099396,,11,1.225800018,-0.803999964,9.992899388
1.68301E+18,0.261399658,0.1558,-0.024899999,0.005,,,1.373899937,-0.710500002,9.683799744,,12,1.529699937,-0.735400001,9.688799744
1.68301E+18,0.281399658,-0.044099998,0.0471,-0.315400004,,,1.42689991,-0.645399988,9.680699348,,13,1.382799912,-0.598299988,9.365299344
1.68301E+18,0.301399658,-0.169200003,0.206999987,-0.463200003,,,1.45389998,-0.56979996,9.681499481,,14,1.284699976,-0.362799972,9.218299478
1.68301E+18,0.321399658,-0.169799998,0.124399997,-0.270500004,,,1.45449996,-0.506799996,9.68489933,,15,1.284699962,-0.382399999,9.414399326
1.68301E+18,0.341399658,-0.207399994,0.125200003,0.0788,,,1.443099976,-0.468499988,9.688499451,,16,1.235699981,-0.343299985,9.767299451
1.68301E+18,0.361399658,-0.253299981,0.094700001,0.561500013,,,1.400699973,-0.437899977,9.696199417,,17,1.147399992,-0.343199976,10.25769943
1.68301E+18,0.381399658,-0.170900002,0.363999993,0.675700009,,,1.328099966,-0.363999993,9.709400177,,18,1.157199964,0,10.38510019
1.68301E+18,0.401399658,0.182099998,0.27609998,0.332800001,,,1.337799907,-0.334899992,9.70909977,,19,1.519899905,-0.058800012,10.04189977
1.68301E+18,0.421399658,-0.1074,0.221199989,-0.088199995,,,1.352899909,-0.289799988,9.708499908,,20,1.245499909,-0.068599999,9.620299913
1.68301E+18,0.441399658,-0.37439999,0.202600002,-0.210299999,,,1.335500002,-0.212499991,9.712900162,,21,0.961100012,-0.009899989,9.502600163
1.68301E+18,0.461399658,-0.148399994,0.015299999,0.229899988,,,1.334999919,-0.162399992,9.713899612,,22,1.186599925,-0.147099993,9.9437996
1.68301E+18,0.481399658,0.1998,-0.156899989,0.924999952,,,1.329899907,-0.127399996,9.715199471,,23,1.529699907,-0.284299985,10.64019942
1.68301E+18,0.501399658,0.454400003,-0.097599998,1.186800003,,,1.31069994,-0.098399997,9.718099594,,24,1.765099943,-0.195999995,10.9048996
1.68301E+18,0.521399658,0.572600007,0.108999997,1.077299953,,,1.300400019,-0.069799997,9.71969986,,25,1.873000026,0.0392,10.79699981
1.68301E+18,0.541399658,0.374899983,0.317599982,0.616400003,,,1.30189991,-0.033199999,9.71969986,,26,1.676799893,0.284399983,10.33609986
1.68301E+18,0.561399658,-0.046499997,0.368099988,0.232499987,,,1.29189992,0.0143,9.721099854,,27,1.245399922,0.382399987,9.95359984
1.68301E+18,0.581399658,-0.082899995,0.122999996,-0.181999996,,,1.269500017,0.063299999,9.723899841,,28,1.186600022,0.186299995,9.541899845
1.68301E+18,0.601399658,0.142299995,-0.089999996,-0.552899957,,,1.279500008,0.1096,9.722099304,,29,1.421800002,0.019600004,9.169199347
1.68301E+18,0.621399658,0.033299997,-0.0222,-0.796099961,,,1.290499926,0.149700001,9.720199585,,30,1.323799923,0.127500001,8.924099624
1.68301E+18,0.641399658,0.029399998,0.237799987,-0.932500005,,,1.294399977,0.173999995,9.719200134,,31,1.323799975,0.411799982,8.78670013
1.68301E+18,0.661399658,0.164399996,0.408199996,-0.608399987,,,1.296700001,0.180099994,9.718799591,,32,1.461099997,0.58829999,9.110399604
1.68301E+18,0.681399658,0.130999997,0.239799991,-0.226899996,,,1.290799975,0.171999991,9.71969986,,33,1.421799973,0.411799982,9.492799863
1.68301E+18,0.701399658,0.12529999,0.338499993,0.0273,,,1.286800027,0.161499992,9.720499992,,34,1.412100017,0.499999985,9.747799993
1.68301E+18,0.721399658,0.041499998,0.587599993,0.007,,,1.282299995,0.157600001,9.721099854,,35,1.323799994,0.745199993,9.728099853
1.68301E+18,0.741399658,-0.040399998,0.620199978,0.064899996,,,1.276000023,0.154399991,9.722000122,,36,1.235600024,0.774599969,9.786900118
1.68301E+18,0.761399658,-0.114099994,0.659500003,-0.0044,,,1.271199942,0.144599989,9.722799301,,37,1.157099947,0.804099992,9.718399301
1.68301E+18,0.781399658,-0.045299999,0.665799975,-0.130799994,,,1.280900002,0.128399998,9.721699715,,38,1.235600002,0.794199973,9.590899721
1.68301E+18,0.801399658,-0.228699997,0.697399974,-0.364099979,,,1.297599912,0.116499998,9.71969986,,39,1.068899915,0.813899972,9.35559988
1.68301E+18,0.821399658,-0.509899974,0.792999983,-0.658699989,,,1.294399977,0.118899994,9.720099449,,40,0.784500003,0.911899976,9.06139946
1.68301E+18,0.841399658,-0.532400012,1.180499911,-0.612199962,,,1.277699947,0.094299994,9.722499847,,41,0.745299935,1.274799906,9.110299885
1.68301E+18,0.861399658,-0.523299992,1.18719995,-0.850399971,,,1.258799911,0.038599998,9.725399971,,42,0.735499918,1.225799948,8.875
1.68301E+18,0.881399658,-0.540099978,0.707199991,0.067199998,,,1.226599932,-0.030599998,9.729499817,,43,0.686499953,0.676599992,9.796699814
1.68301E+18,0.901399658,-0.425399989,0.352599978,1.034099936,,,1.190400004,-0.107499994,9.733499527,,44,0.765000015,0.245099984,10.76759946
1.68301E+18,0.921399658,-0.090499997,0.413299978,1.456799984,,,1.188799977,-0.18779999,9.732500076,,45,1.09829998,0.225499988,11.18930006
1.68301E+18,0.941399658,0.165699989,0.557799995,1.694999933,,,1.207099915,-0.214599997,9.729700089,,46,1.372799903,0.343199998,11.42470002
1.68301E+18,0.961399658,-0.01,0.823300004,1.6171,,,1.216199994,-0.185900003,9.729100227,,47,1.206199994,0.637400001,11.34620023
1.68301E+18,0.981399658,-0.131599993,0.800399959,1.213400006,,,1.210399985,-0.133599997,9.730699539,,48,1.078799993,0.666799963,10.94409955
1.68301E+18,1.001399658,-0.063000001,0.464999974,1.065799952,,,1.210399985,-0.082499996,9.7312994,,49,1.147399984,0.382499978,10.79709935
1.68301E+18,1.021399658,0.077599995,-0.022299999,1.126299977,,,1.226599932,-0.026699999,9.729499817,,50,1.304199927,-0.048999999,10.85579979
1.68301E+18,1.041399658,0.345599979,-0.472000003,1.412799954,,,1.242999911,0.0307,9.727499962,,51,1.58859989,-0.441300003,11.14029992
1.68301E+18,1.061399658,0.593400002,-0.815099955,2.149399996,,,1.250199914,0.069799997,9.726299286,,52,1.843599916,-0.745299958,11.87569928
1.68301E+18,1.081399658,0.691699982,-1.224499941,3.07130003,,,1.249899983,0.077100001,9.726299286,,53,1.941599965,-1.14739994,12.79759932
1.68301E+18,1.101399658,0.939399958,-1.438699961,3.873799801,,,1.237599969,0.065799996,9.727999687,,54,2.176999927,-1.372899964,13.60179949
1.68301E+18,1.121399658,1.383099914,-1.425599933,4.508299828,,,1.215600014,0.0429,9.730899811,,55,2.598699927,-1.382699933,14.23919964
1.68301E+18,1.141399658,1.515399933,-1.415300012,4.984499931,,,1.181399941,0.0032,9.735199928,,56,2.696799874,-1.412100012,14.71969986
1.68301E+18,1.161399658,1.329699993,-0.790199995,4.24669981,,,1.16110003,-0.043299999,9.737500191,,57,2.490800023,-0.833499994,13.9842
1.68301E+18,1.181399658,0.556699991,-0.092699997,2.257099867,,,1.169099927,-0.074000001,9.736399651,,58,1.725799918,-0.166699998,11.99349952
1.68301E+18,1.201399658,-0.188500002,0.155499995,-0.0034,,,1.208400011,-0.077100001,9.731599808,,59,1.019900009,0.078399993,9.728199808
1.68301E+18,1.221399658,-0.396299988,-0.304100007,-1.103999972,,,1.269099951,-0.048799999,9.723999977,,60,0.872799963,-0.352900006,8.620000005
1.68301E+18,1.241399658,-0.239199996,-0.949899971,-1.011999965,,,1.298299909,-0.0012,9.720299721,,61,1.059099913,-0.951099971,8.708299756
1.68301E+18,1.261399658,0.081699997,-1.175099969,-0.209999993,,,1.281299949,0.0277,9.722499847,,62,1.362999946,-1.147399969,9.512499854
1.68301E+18,1.281399658,0.197099999,-0.981099963,0.567099988,,,1.224699974,0.020099999,9.729800224,,63,1.421799973,-0.960999964,10.29690021
1.68301E+18,1.301399658,0.226099998,-0.703799963,0.588099957,,,1.156499982,-0.012,9.738200188,,64,1.38259998,-0.715799963,10.32630014
1.68301E+18,1.321399658,0.152400002,-0.401600003,-0.594699979,,,1.102800012,-0.0298,9.744299889,,65,1.255200014,-0.431400003,9.14959991
1.68301E+18,1.341399658,-0.084100001,-0.220499992,-2.419800043,,,1.094099998,-0.024499999,9.745299339,,66,1.009999998,-0.244999992,7.325499296
1.68301E+18,1.361399658,-0.421199977,-0.175699994,-3.788899899,,,1.127300024,-0.0105,9.741600037,,67,0.706100047,-0.186199994,5.952700138
1.68301E+18,1.381399658,-0.555400014,-0.144899994,-4.548399925,,,1.173200011,-0.0021,9.736199379,,68,0.617799997,-0.146999994,5.187799454
1.68301E+18,1.401399658,-0.699699998,-0.009099999,-4.791599751,,,1.190099955,-0.0007,9.734099388,,69,0.490399957,-0.009799999,4.942499638
1.68301E+18,1.421399658,-0.77579999,0.1514,-4.762399673,,,1.187600017,-0.0043,9.734399796,,70,0.411800027,0.1471,4.972000122
1.68301E+18,1.441399658,-0.639299989,0.28459999,-4.233999729,,,1.17869997,-0.0198,9.735499382,,71,0.539399981,0.26479999,5.501499653
1.68301E+18,1.461399658,-0.067499995,0.242499992,-3.128399849,,,1.156099916,-0.046399999,9.738100052,,72,1.08859992,0.196099993,6.609700203
1.68301E+18,1.481399658,0.675399959,0.0889,-1.495899916,,,1.109300017,-0.079099998,9.743299484,,73,1.784699976,0.009800002,8.247399569
1.68301E+18,1.501399658,1.217000008,0.050999999,0.183200002,,,1.038399935,-0.109799996,9.750800133,,74,2.255399942,-0.058799997,9.934000134
1.68301E+18,1.521399658,1.356400013,0.12529999,1.361699939,,,0.957899988,-0.12529999,9.758899689,,75,2.314300001,0,11.12059963
1.68301E+18,1.541399658,1.175499916,0.078099996,2.138299942,,,0.873999953,-0.117299996,9.766900063,,76,2.049499869,-0.0392,11.9052
1.68301E+18,1.561399658,0.97179997,-0.101899996,2.162099838,,,0.812900007,-0.084299996,9.772500038,,77,1.784699976,-0.186199993,11.93459988
1.68301E+18,1.581399658,0.806699991,-0.317099988,1.668900013,,,0.781899989,-0.026099999,9.775300026,,78,1.58859998,-0.343199987,11.44420004
1.68301E+18,1.601399658,0.778799951,-0.460299999,0.96359998,,,0.790199995,0.038599998,9.774600029,,79,1.568999946,-0.421700001,10.73820001
1.68301E+18,1.621402832,0.784699976,-0.623600006,0.683099985,,,0.833299994,0.094099998,9.770699501,,80,1.617999971,-0.529500008,10.45379949
1.68301E+18,1.641399658,0.8477,-0.81979996,0.824799955,,,0.878199995,0.133299991,9.766300201,,81,1.725899994,-0.686499968,10.59110016
1.68301E+18,1.661399658,1.028399944,-1.025200009,2.092399836,,,0.903400004,0.152400002,9.763699532,,82,1.931799948,-0.872800007,11.85609937
1.68301E+18,1.681401367,0.806400001,-1.186499953,4.287799835,,,0.889999986,0.147,9.76499939,,83,1.696399987,-1.039499953,14.05279922
1.68301E+18,1.701399658,0.326999992,-1.022099972,5.911799908,,,0.849699974,0.119799994,9.769000053,,84,1.176699966,-0.902299978,15.68079996
1.68301E+18,1.721399658,-0.273200005,-0.986199975,6.10529995,,,0.822299957,0.093800001,9.77159977,,85,0.549099952,-0.892399974,15.87689972
1.68301E+18,1.741399658,-0.188699991,-1.222499967,5.73210001,,,0.816399992,0.094700001,9.772099495,,86,0.627700001,-1.127799965,15.5041995
1.68301E+18,1.761399658,0.118699998,-1.033800006,4.877899647,,,0.802999973,0.102199994,9.773099899,,87,0.921699971,-0.931600012,14.65099955
1.68301E+18,1.781399658,-0.0218,-0.382699996,2.750099897,,,0.806299984,0.098299995,9.772899628,,88,0.784499984,-0.284400001,12.52299953
1.68301E+18,1.801399658,-0.576799989,-0.076799996,-0.022799999,,,0.831799984,0.115999997,9.770599365,,89,0.254999995,0.0392,9.747799367
1.68301E+18,1.821401367,-0.832099974,-0.36589998,-1.81400001,,,0.861599982,0.169799998,9.767199516,,90,0.029500008,-0.196099982,7.953199506
1.68301E+18,1.841399658,-0.738900006,-0.884599984,-2.448499918,,,0.876199961,0.247199997,9.764200211,,91,0.137299955,-0.637399986,7.315700293
1.68301E+18,1.861399658,-0.544099987,-1.20449996,-2.485399961,,,0.877499998,0.32189998,9.762000084,,92,0.333400011,-0.88259998,7.276600122
1.68301E+18,1.881399658,-0.178399995,-1.32919991,-2.062299967,,,0.87469995,0.368099988,9.76060009,,93,0.696299955,-0.961099923,7.698300123
1.68301E+18,1.901399658,0.0035,-1.26730001,-1.611099958,,,0.869199991,0.3847,9.760399818,,94,0.872699991,-0.882600009,8.14929986
1.68301E+18,1.921399658,0.0211,-1.003299952,-1.513700008,,,0.861399949,0.385499984,9.761099815,,95,0.882499948,-0.617799968,8.247399807
1.68301E+18,1.941399658,-0.254799992,-0.695299983,-1.593400002,,,0.852999985,0.371600002,9.762399673,,96,0.598199993,-0.323699981,8.168999672
1.68301E+18,1.961401367,-0.644199967,-0.387699991,-1.957399964,,,0.850099981,0.348499984,9.763500214,,97,0.205900013,-0.039200008,7.806100249
1.68301E+18,1.981399658,-0.90169996,-0.158199996,-2.409100056,,,0.852599978,0.324900001,9.764100075,,98,-0.049099982,0.166700006,7.355000019
1.68301E+18,2.001399658,-0.858399987,-0.0583,-2.605399847,,,0.858399987,0.303499997,9.764200211,,99,0,0.245199997,7.158800364
1.68301E+18,2.021399658,-0.774399996,0.122299999,-2.371199846,,,0.852799952,0.279699981,9.765399933,,100,0.078399956,0.40199998,7.394200087
1.68301E+18,2.041401367,-0.601899981,0.36469999,-2.069299936,,,0.837300003,0.252999991,9.767499924,,101,0.235400021,0.617699981,7.698199987
1.68301E+18,2.061399658,-0.594399989,0.413899988,-1.767199993,,,0.819899976,0.2333,9.769499779,,102,0.225499988,0.647199988,8.002299786
1.68301E+18,2.081399658,-0.439199984,0.24499999,-1.513899922,,,0.801999986,0.225699991,9.771100044,,103,0.362800002,0.470699981,8.257200122
1.68301E+18,2.101401367,-0.199199989,0.0123,-1.25999999,,,0.787599981,0.232799992,9.772099495,,104,0.588399991,0.245099992,8.512099504
1.68301E+18,2.121399658,0.122699998,-0.248799995,-1.034699917,,,0.779399991,0.248799995,9.772399902,,105,0.902099989,0,8.737699986
1.68301E+18,2.141399658,0.3838,-0.469899982,-0.691500008,,,0.773299992,0.263999999,9.772500038,,106,1.157099992,-0.205899984,9.08100003
1.68301E+18,2.161399658,0.360599995,-0.59009999,-0.241299987,,,0.75729996,0.276299983,9.773399353,,107,1.117899954,-0.313800007,9.532099366
1.68301E+18,2.181401367,0.217299998,-0.504099965,-0.300899982,,,0.743699968,0.288399994,9.77409935,,108,0.960999966,-0.215699971,9.473199368
1.68301E+18,2.201399658,0.158999994,-0.422799975,-0.457599998,,,0.743099988,0.295300007,9.773900032,,109,0.902099982,-0.127499968,9.316300035
1.68301E+18,2.221399658,0.213499993,-0.323899984,-0.378899992,,,0.747399986,0.294499993,9.773599625,,110,0.960899979,-0.029399991,9.394699633
1.68301E+18,2.241399658,0.228,-0.095899999,-0.113299996,,,0.762399971,0.282199979,9.772799492,,111,0.990399972,0.18629998,9.659499496
1.68301E+18,2.261399658,0.101199999,0.217500001,0.211199999,,,0.781300008,0.262999982,9.771900177,,112,0.882500008,0.480499983,9.983100176
1.68301E+18,2.281399658,0.0592,0.497999996,0.437899977,,,0.80369997,0.237399995,9.770699501,,113,0.86289997,0.735399991,10.20859948
1.68301E+18,2.301399658,-0.158199996,0.590799987,0.61649996,,,0.834899962,0.213199988,9.768699646,,114,0.676699966,0.803999975,10.38519961
1.68301E+18,2.321401367,-0.2597,0.429199994,0.796399951,,,0.877499998,0.198399991,9.765199661,,115,0.617799997,0.627599984,10.56159961
1.68301E+18,2.341399658,-0.335599989,0.090700001,1.261500001,,,0.923999965,0.193599999,9.76099968,,116,0.588399976,0.284299999,11.02249968
1.68301E+18,2.361399658,-0.185399994,-0.085999995,2.297699928,,,0.989600003,0.193899989,9.754599571,,117,0.804200009,0.107899994,12.0522995
1.68301E+18,2.381399658,0.17019999,-0.4745,3.6947999,,,1.035899997,0.180299997,9.750100136,,118,1.206099987,-0.294200003,13.44490004
1.68301E+18,2.401399658,0.280200005,-0.192299992,4.618000031,,,1.05339992,0.153099999,9.748700142,,119,1.333599925,-0.039199993,14.36670017
1.68301E+18,2.421399658,0.59829998,-0.44599998,4.67689991,,,1.058899999,0.112499997,9.748600006,,120,1.657199979,-0.333499983,14.42549992
1.68301E+18,2.441399658,1.047199965,-0.705799997,4.531899929,,,1.080699921,0.088,9.746500015,,121,2.127899885,-0.617799997,14.27839994
1.68301E+18,2.461401367,1.139099956,-0.944599986,4.05189991,,,1.086899996,0.071800001,9.745900154,,122,2.225999951,-0.872799985,13.79780006
1.68301E+18,2.481399658,1.109300017,-0.770799994,3.258599997,,,1.097100019,0.045199998,9.74489975,,123,2.206400037,-0.725599997,13.00349975
1.68301E+18,2.501399658,0.4111,-0.437399983,1.819399953,,,1.118600011,0.015699999,9.742599487,,124,1.529700011,-0.421699984,11.56199944
1.68301E+18,2.521399658,-0.441699982,-0.39319998,-0.039299998,,,1.157500029,0.0009,9.737999916,,125,0.715800047,-0.39229998,9.698699918
1.68301E+18,2.541399658,-0.834699988,-0.654199958,-1.191599965,,,1.19749999,0.007,9.733200073,,126,0.362800002,-0.647199958,8.541600108
1.68301E+18,2.561399658,-0.609200001,-0.869399965,-1.08130002,,,1.217199922,0.0162,9.730799675,,127,0.607999921,-0.853199964,8.649499655
1.68301E+18,2.581399658,-0.18249999,-0.842099965,-0.47389999,,,1.212199926,-0.0011,9.731399536,,128,1.029699937,-0.843199965,9.257499546
1.68301E+18,2.601401367,-0.0691,-0.758699954,-0.1435,,,1.187099934,-0.035499997,9.734399796,,129,1.117999934,-0.794199951,9.590899795
1.68301E+18,2.621401367,-0.20189999,-0.665799975,-0.314099997,,,1.153100014,-0.069600001,9.73829937,,130,0.951200023,-0.735399976,9.424199373
1.68301E+18,2.641399658,-0.340599984,-0.429499984,-0.885899961,,,1.125100017,-0.099999994,9.741299629,,131,0.784500033,-0.529499978,8.855399668
1.68301E+18,2.661399658,-0.467799991,-0.280299991,-1.710599899,,,1.11500001,-0.121699996,9.742199898,,132,0.647200018,-0.401999988,8.031599998
1.68301E+18,2.681401367,-0.592400014,-0.253600001,-2.395999908,,,1.121899962,-0.138599992,9.741199493,,133,0.529499948,-0.392199993,7.345199585
1.68301E+18,2.701399658,-0.555000007,-0.230799988,-2.865200043,,,1.133599997,-0.151600003,9.739699364,,134,0.578599989,-0.382399991,6.874499321
1.68301E+18,2.721399658,-0.327099979,-0.099299997,-3.129999876,,,1.131199956,-0.165399998,9.739699364,,135,0.804099977,-0.264699996,6.609699488
1.68301E+18,2.741402832,-0.031999998,0.105099998,-3.3270998,,,1.120599985,-0.183499992,9.740599632,,136,1.088599987,-0.078399993,6.413499832
1.68301E+18,2.761399658,0.078099996,0.170099989,-3.377199888,,,1.108399987,-0.199499995,9.741700172,,137,1.186499983,-0.029400006,6.364500284
1.68301E+18,2.781399658,-0.031199999,0.0801,-3.026000023,,,1.090399981,-0.207599998,9.743599892,,138,1.059199981,-0.127499998,6.717599869
1.68301E+18,2.801399658,-0.1043,-0.075300001,-2.353199959,,,1.055599928,-0.208999991,9.74739933,,139,0.951299928,-0.284299992,7.394199371
1.68301E+18,2.821401367,-0.102899998,-0.224199995,-1.387699962,,,1.005100012,-0.207199991,9.752799988,,140,0.902200013,-0.431399986,8.365100026
1.68301E+18,2.841399658,0.034899998,-0.355299979,-0.324799985,,,0.94569999,-0.203599989,9.758799553,,141,0.980599988,-0.558899969,9.433999568
1.68301E+18,2.861399658,0.345699996,-0.344099998,0.572799981,,,0.899699986,-0.195199996,9.763299942,,142,1.245399982,-0.539299995,10.33609992
1.68301E+18,2.881399658,0.368099988,-0.231299996,0.912399948,,,0.857599974,-0.199999988,9.767000198,,143,1.225699961,-0.431299984,10.67940015
1.68301E+18,2.901399658,0.532899976,-0.073699996,0.988699973,,,0.830199957,-0.210599989,9.769100189,,144,1.363099933,-0.284299985,10.75780016
1.68301E+18,2.921399658,0.520900011,0.0069,0.849999964,,,0.812699974,-0.212899998,9.770500183,,145,1.333599985,-0.205999998,10.62050015
1.68301E+18,2.941399658,0.466899991,0.070799999,0.485799998,,,0.798099995,-0.208099991,9.771900177,,146,1.264999986,-0.137299992,10.25770018
1.68301E+18,2.961401367,0.406999975,0.127999991,-0.23089999,,,0.789299965,-0.19659999,9.772799492,,147,1.19629994,-0.068599999,9.541899502
1.68301E+18,2.981399658,0.371699989,0.182300001,-0.731700003,,,0.785399973,-0.182300001,9.773399353,,148,1.157099962,0,9.04169935
1.68301E+18,3.001399658,0.478199989,0.174999997,-0.849399984,,,0.786799967,-0.174999997,9.773399353,,149,1.264999956,0,8.923999369
1.68301E+18,3.021402832,0.59709996,0.238299996,-0.5546,,,0.795399964,-0.169599995,9.772799492,,150,1.392499924,0.068700001,9.218199492
1.68301E+18,3.041401367,0.680799961,0.387699991,0.211499989,,,0.809699953,-0.171999991,9.77159977,,151,1.490499914,0.215700001,9.983099759
1.68301E+18,3.061399658,0.910699964,0.380699992,1.362200022,,,0.844599962,-0.194399998,9.768199921,,152,1.755299926,0.186299995,11.13039994
1.68301E+18,3.081399658,1.212800026,0.142499998,2.683699846,,,0.915199995,-0.240499988,9.760799408,,153,2.128000021,-0.09799999,12.44449925
1.68301E+18,3.101399658,1.300999999,0.207099989,3.031999826,,,1.042699933,-0.314999998,9.745900154,,154,2.343699932,-0.107900009,12.77789998
1.68301E+18,3.121399658,1.52609992,-0.212899998,2.924000025,,,1.180400014,-0.414599985,9.726499557,,155,2.706499934,-0.627499983,12.65049958
1.68301E+18,3.141399658,1.194299936,0.472499996,3.774699926,,,1.218099952,-0.472499996,9.719200134,,156,2.412399888,0,13.49390006
1.68301E+18,3.161399658,0.301999986,-0.336199999,4.161200047,,,1.168900013,-0.477699995,9.724999428,,157,1.470899999,-0.813899994,13.88619947
1.68301E+18,3.181399658,0.0137,-0.663899958,4.523099899,,,1.094399929,-0.434299976,9.735699654,,158,1.108099929,-1.098199934,14.25879955
1.68301E+18,3.201399658,0.26819998,-0.654899955,5.202300072,,,1.036000013,-0.413899988,9.742899895,,159,1.304199994,-1.068799943,14.94519997
1.68301E+18,3.221399658,0.144400001,-0.428900003,4.844399929,,,0.993099988,-0.404599994,9.747799873,,160,1.137499988,-0.833499998,14.5921998
1.68301E+18,3.241399658,-0.172299996,-0.154100001,2.9296,,,0.976399958,-0.385099977,9.750299454,,161,0.804099962,-0.539199978,12.67989945
1.68301E+18,3.261399658,-0.583700001,-0.088299997,0.406699985,,,0.966199994,-0.343099982,9.752799988,,162,0.382499993,-0.431399979,10.15949997
1.68301E+18,3.281399658,-0.639800012,-0.368799984,-1.51759994,,,0.963399947,-0.278299987,9.755199432,,163,0.323599935,-0.647099972,8.237599492
1.68301E+18,3.301399658,-0.328500003,-0.931199968,-2.226199865,,,0.956099987,-0.20629999,9.757699966,,164,0.627599984,-1.137499958,7.531500101
1.68301E+18,3.321399658,0.251899987,-0.990699947,-1.856699944,,,0.934599996,-0.146699995,9.760899544,,165,1.186499983,-1.137399942,7.9041996
1.68301E+18,3.341399658,0.5801,-0.645599961,-1.183599949,,,0.900599957,-0.119199999,9.764399529,,166,1.480699956,-0.76479996,8.58079958
1.68301E+18,3.361399658,0.621100008,-0.494499981,-0.608799994,,,0.859600008,-0.113399997,9.768199921,,167,1.480700016,-0.607899979,9.159399927
1.68301E+18,3.381399658,0.338999987,-0.385199994,-0.640999973,,,0.827899992,-0.104999997,9.770999908,,168,1.166899979,-0.490199991,9.129999936
1.68301E+18,3.401399658,0.078400001,-0.455499977,-0.93659997,,,0.813899994,-0.083799995,9.772399902,,169,0.892299995,-0.539299972,8.835799932
1.68301E+18,3.421399658,-0.430999994,-0.383599997,-1.730399966,,,0.823199987,-0.057599999,9.771800041,,170,0.392199993,-0.441199996,8.041400075
1.68301E+18,3.441399658,-0.87349999,-0.245999992,-2.464099884,,,0.843999982,-0.048099998,9.77009964,,171,-0.029500008,-0.29409999,7.305999756
1.68301E+18,3.461399658,-1.101400018,-0.082599998,-2.961400032,,,0.875799954,-0.054499999,9.767299652,,172,-0.225600064,-0.137099996,6.80589962
1.68301E+18,3.481399658,-1.187699914,0.056299999,-3.223599911,,,0.903299987,-0.066100001,9.764699936,,173,-0.284399927,-0.009800002,6.541100025
1.68301E+18,3.501399658,-1.036399961,0.111099996,-2.819999933,,,0.91869998,-0.081699997,9.76309967,,174,-0.117699981,0.029399998,6.943099737
1.68301E+18,3.521399658,-0.791299999,0.210099995,-2.349099874,,,0.918799996,-0.102199994,9.762899399,,175,0.127499998,0.107900001,7.413799524
1.68301E+18,3.541399658,-0.409699976,0.236499995,-1.671999931,,,0.91959995,-0.128700003,9.762499809,,176,0.509899974,0.107799992,8.090499878
1.68301E+18,3.561399658,-0.213599995,0.162699997,-0.623299956,,,0.90989995,-0.152899995,9.76309967,,177,0.696299955,0.009800002,9.139799714
1.68301E+18,3.581399658,-0.004,0.180299997,0.306199998,,,0.886599958,-0.160699993,9.765099525,,178,0.882599958,0.019600004,10.07129952
1.68301E+18,3.601399658,0.036599997,0.194299996,0.774999976,,,0.865499973,-0.155100003,9.76709938,,179,0.902099971,0.039199993,10.54209936
1.68301E+18,3.621399658,-0.103199996,0.204399988,0.607499957,,,0.858299971,-0.145599991,9.767899513,,180,0.755099975,0.058799997,10.37539947
1.68301E+18,3.641399658,-0.162699997,0.138599992,0.216799989,,,0.878499985,-0.12879999,9.766300201,,181,0.715799987,0.009800002,9.983100191
1.68301E+18,3.661399658,-0.0374,0.054199997,-0.417099983,,,0.919999957,-0.103199996,9.762800217,,182,0.882599957,-0.048999999,9.345700234
1.68301E+18,3.681399658,0.261000007,-0.070299998,-0.913100004,,,0.9648,-0.076699995,9.758699417,,183,1.225800008,-0.146999992,8.845599413
1.68301E+18,3.701399658,0.42049998,-0.131200001,-0.958599985,,,1.001299977,-0.055099998,9.755199432,,184,1.421799958,-0.186299998,8.796599448
1.68301E+18,3.721399658,0.213499993,-0.112999998,-0.770199955,,,1.021999955,-0.0438,9.753099442,,185,1.235499948,-0.156799998,8.982899487
1.68301E+18,3.741399658,0.0123,-0.0137,-0.289099991,,,1.027099967,-0.044999998,9.752599716,,186,1.039399967,-0.058699998,9.463499725
1.68301E+18,3.761399658,-0.158999994,0.105799995,0.3477,,,1.021999955,-0.0568,9.752999306,,187,0.862999961,0.048999995,10.10069931
1.68301E+18,3.781399658,-0.203499988,0.367899984,1.073099971,,,1.017499924,-0.073699996,9.753399849,,188,0.813999936,0.294199988,10.82649982
1.68301E+18,3.801399658,-0.385699987,0.530699968,1.699399948,,,1.003499985,-0.089400001,9.754699707,,189,0.617799997,0.441299967,11.45409966
1.68301E+18,3.821399658,-0.760899961,0.323100001,2.667500019,,,0.976599991,-0.087699994,9.757499695,,190,0.21570003,0.235400006,12.42499971
1.68301E+18,3.841399658,-0.841899991,0.255099982,3.52579999,,,0.930199981,-0.068700001,9.76210022,,191,0.08829999,0.186399981,13.28790021
1.68301E+18,3.861399658,-0.717000008,0.120999999,3.472299814,,,0.88379997,-0.0425,9.766599655,,192,0.166799963,0.078499999,13.23889947
1.68301E+18,3.881399658,0.093800001,-0.407299995,3.303999901,,,0.8671,-0.0045,9.768199921,,193,0.960900001,-0.411799995,13.07219982
1.68301E+18,3.901399658,1.039600015,-0.879700005,3.7645998,,,0.862800002,0.036399998,9.768499374,,194,1.902400017,-0.843300007,13.53309917
1.68301E+18,3.921399658,1.879099965,-0.88259995,4.234899998,,,0.85679996,0.058799997,9.768899918,,195,2.735899925,-0.823799953,14.00379992
1.68301E+18,3.941399658,1.173300028,-0.477499992,3.755199909,,,0.866400003,0.0656,9.767999649,,196,2.039700031,-0.411899991,13.52319956
1.68301E+18,3.961399658,0.032600001,-0.213799998,2.003799915,,,0.908699989,0.0766,9.764100075,,197,0.94129999,-0.137199998,11.76789999
1.68301E+18,3.981399658,-0.864899993,-0.174400002,-0.0206,,,0.962899983,0.105799995,9.758599281,,198,0.09799999,-0.068600006,9.737999281
1.68301E+18,4.001399658,-1.136899948,-0.509000003,-1.634499907,,,0.99969995,0.146200001,9.7543993,,199,-0.137199998,-0.362800002,8.119899392
1.68301E+18,4.021399658,-0.634899974,-1.019699931,-2.404700041,,,1.036999941,0.186199993,9.749799728,,200,0.402099967,-0.833499938,7.345099688
1.68301E+18,4.041399658,0.216399997,-1.36439991,-1.58799994,,,1.058399916,0.207199991,9.747099876,,201,1.274799913,-1.157199919,8.159099936
1.68301E+18,4.061399658,0.898799956,-1.200699925,-0.286799997,,,1.032999992,0.190599993,9.750199318,,202,1.931799948,-1.010099933,9.463399321
1.68301E+18,4.081399658,1.169700027,-0.888899982,0.501999974,,,0.987699986,0.143600002,9.755700111,,203,2.157400012,-0.74529998,10.25770009
1.68301E+18,4.101399658,0.974399984,-0.495999992,0.508099973,,,0.957399964,0.084100001,9.759399414,,204,1.931799948,-0.411899991,10.26749939
1.68301E+18,4.121399658,0.502699971,-0.321099997,-0.100999996,,,0.948599994,0.036800001,9.760499954,,205,1.451299965,-0.284299996,9.659499958
1.68301E+18,4.141399658,0.040199999,-0.343999982,-0.943299949,,,0.959999979,0.0106,9.75949955,,206,1.000199977,-0.333399982,8.816199601
1.68301E+18,4.161402832,-0.166199997,-0.380599976,-1.822899938,,,0.98999995,-0.0017,9.75649929,,207,0.823799953,-0.382299975,7.933599353
1.68301E+18,4.181401367,-0.34739998,-0.41079998,-2.525499821,,,1.024099946,-0.010799999,9.752999306,,208,0.676699966,-0.42159998,7.227499485
1.68301E+18,4.201399658,-0.434100002,-0.382399976,-2.847199917,,,1.042099953,-0.0196,9.751099586,,209,0.607999951,-0.401999976,6.90389967
1.68301E+18,4.221399658,-0.273599982,-0.348800004,-2.906399965,,,1.038499951,-0.033500001,9.751399994,,210,0.764899969,-0.382300004,6.845000029
1.68301E+18,4.241399658,-0.085299999,-0.32099998,-2.584899902,,,1.016899943,-0.051599998,9.753600121,,211,0.931599945,-0.372599978,7.168700218
1.68301E+18,4.261399658,0.171800002,-0.288800001,-1.999599934,,,0.985199988,-0.074000001,9.756699562,,212,1.15699999,-0.362800002,7.757099628
1.68301E+18,4.281399658,0.336099982,-0.204399988,-1.501999974,,,0.958299994,-0.0995,9.759200096,,213,1.294399977,-0.303899989,8.257200122
1.68301E+18,4.301399658,0.313299984,-0.155499995,-0.896099985,,,0.932099998,-0.12879999,9.761300087,,214,1.245399982,-0.284299985,8.865200102
1.68301E+18,4.321401367,0.144599989,-0.1162,-0.388300002,,,0.904599965,-0.158199996,9.763500214,,215,1.049199954,-0.274399996,9.375200212
1.68301E+18,4.341399658,-0.054299999,-0.091499999,-0.243199989,,,0.877999961,-0.182999998,9.765500069,,216,0.823699962,-0.274499997,9.522300079
1.68301E+18,4.361399658,-0.0177,0.051199999,-0.0187,,,0.861099958,-0.208099991,9.766499519,,217,0.843399959,-0.156899992,9.747799519
1.68301E+18,4.381399658,0.147,0.271200001,0.382499993,,,0.843400002,-0.241799995,9.767299652,,218,0.990400001,0.029400006,10.14979964
1.68301E+18,4.401399658,0.401600003,0.633399963,0.627099991,,,0.824099958,-0.280399978,9.767899513,,219,1.225699961,0.352999985,10.3949995
1.68301E+18,4.421399658,0.354699999,0.751100004,0.50849998,,,0.802399993,-0.309799999,9.768799782,,220,1.157099992,0.441300005,10.27729976
1.68301E+18,4.441399658,0.278899997,0.745399952,0.292199999,,,0.789999962,-0.323699981,9.769399643,,221,1.068899959,0.421699971,10.06159964
1.68301E+18,4.461401367,0.297600001,0.667800009,0.428799987,,,0.781099975,-0.324599981,9.769999504,,222,1.078699976,0.343200028,10.19879949
1.68301E+18,4.481399658,0.478299975,0.528199971,0.546000004,,,0.776899993,-0.322299987,9.770500183,,223,1.255199969,0.205899984,10.31650019
1.68301E+18,4.501399658,0.639699996,0.495799989,0.898599982,,,0.772399962,-0.319299996,9.770899773,,224,1.412099957,0.176499993,10.66949975
1.68301E+18,4.521399658,0.965399981,0.515599966,1.838400006,,,0.750699997,-0.319499999,9.772600174,,225,1.716099977,0.196099967,11.61100018
1.68301E+18,4.541401367,1.206099987,0.62349999,2.385699987,,,0.725699961,-0.319499999,9.774499893,,226,1.931799948,0.30399999,12.16019988
1.68301E+18,4.561399658,1.23879993,0.736599982,2.736899853,,,0.702799976,-0.314999998,9.776299477,,227,1.941599905,0.421599984,12.51319933
1.68301E+18,4.581399658,1.104699969,0.69690001,2.872900009,,,0.689799964,-0.3046,9.777599335,,228,1.794499934,0.39230001,12.65049934
1.68301E+18,4.601401367,0.705899954,0.354799986,2.78429985,,,0.69629997,-0.2764,9.777899742,,229,1.402199924,0.078399986,12.56219959
1.68301E+18,4.621401367,0.429899991,-0.158999994,3.293900013,,,0.707599998,-0.233199999,9.778299332,,230,1.137499988,-0.392199993,13.07219934
1.68301E+18,4.641399658,0.241299987,-0.478599995,4.429999828,,,0.700100005,-0.188099995,9.779799461,,231,0.941399992,-0.666699991,14.20979929
1.68301E+18,4.661399658,-0.021699999,-0.499299973,4.955999851,,,0.659099996,-0.147799999,9.783299446,,232,0.637399998,-0.647099972,14.7392993
1.68301E+18,4.681401367,-0.552699983,-0.315599978,3.706899881,,,0.611599982,-0.105999999,9.786899567,,233,0.058899999,-0.421599977,13.49379945
1.68301E+18,4.701399658,-0.675000012,-0.329400003,1.41079998,,,0.596599996,-0.052999999,9.788299561,,234,-0.078400016,-0.382400002,11.19909954
1.68301E+18,4.721399658,-0.628499985,-0.579899967,-0.912,,,0.618699968,0.0209,9.786999702,,235,-0.009800017,-0.558999967,8.874999702
1.68301E+18,4.741399658,-0.470499992,-0.934899986,-2.761799812,,,0.666599989,0.101300001,9.783399582,,236,0.196099997,-0.833599985,7.02159977
1.68301E+18,4.761399658,-0.151799992,-1.2421,-3.227699995,,,0.720600009,0.173199996,9.778499603,,237,0.568800017,-1.068900004,6.550799608
1.68301E+18,4.781399658,0.030299999,-1.098699927,-2.392199993,,,0.734600008,0.216099992,9.77670002,,238,0.764900006,-0.882599935,7.384500027
1.68301E+18,4.801399658,-0.107599996,-0.730199993,-0.914199948,,,0.69599998,0.220199987,9.779399872,,239,0.588399984,-0.510000005,8.865199924
1.68301E+18,4.821401367,-0.344300002,-0.432499975,0.218400002,,,0.628600001,0.206900001,9.784199715,,240,0.284299999,-0.225599974,10.00259972
1.68301E+18,4.841399658,-0.593699992,-0.38259998,0.626399994,,,0.564300001,0.206100002,9.788199425,,241,-0.029399991,-0.176499978,10.41459942
1.68301E+18,4.861399658,-0.735199988,-0.565899968,0.271999985,,,0.529299974,0.2324,9.789499283,,242,-0.205900013,-0.333499968,10.06149927
1.68301E+18,4.881399658,-0.677899957,-0.873199999,-0.432300001,,,0.540600002,0.275000006,9.787799835,,243,-0.137299955,-0.598199993,9.355499834
1.68301E+18,4.901399658,-0.334499985,-0.969099998,-1.113600016,,,0.609099984,0.312000006,9.782699585,,244,0.274599999,-0.657099992,8.669099569
1.68301E+18,4.921399658,-0.233999997,-0.960999966,-1.617799997,,,0.685099959,0.333399981,9.776999474,,245,0.451099962,-0.627599984,8.159199476
1.68301E+18,4.941399658,-0.353399992,-0.755299985,-1.859999895,,,0.726000011,0.333599985,9.774000168,,246,0.372600019,-0.421700001,7.914000273
1.68301E+18,4.961401367,-0.536399961,-0.55309999,-2.271899939,,,0.732499957,0.317799985,9.774000168,,247,0.196099997,-0.235300004,7.502100229
1.68301E+18,4.981399658,-0.640500009,-0.262199998,-2.626099825,,,0.728799999,0.291599989,9.775099754,,248,0.08829999,0.029399991,7.148999929
1.68301E+18,5.001399658,-0.47389999,-0.028999999,-2.833099842,,,0.728799999,0.254500002,9.776199341,,249,0.254900008,0.225500003,6.943099499
1.68301E+18,5.021399658,-0.132499993,0.101499997,-2.686100006,,,0.740499973,0.212200001,9.776299477,,250,0.60799998,0.313699998,7.090199471
1.68301E+18,5.041401367,0.146899998,0.153699994,-2.450399876,,,0.755299985,0.1699,9.776000023,,251,0.902199984,0.323599994,7.325600147
1.68301E+18,5.061399658,0.288399994,0.235599995,-1.988999963,,,0.770699978,0.127199993,9.775400162,,252,1.059099972,0.362799987,7.786400199
1.68301E+18,5.081399658,0.290399998,0.317999989,-1.224699974,,,0.768599987,0.083899997,9.776100159,,253,1.058999985,0.401899986,8.551400185
1.68301E+18,5.101399658,0.458899975,0.412699997,-0.540099978,,,0.747199953,0.0383,9.777999878,,254,1.206099927,0.450999998,9.237899899
1.68301E+18,5.121401367,0.560699999,0.521099985,-0.090899996,,,0.723899961,-0.0013,9.779799461,,255,1.28459996,0.519799985,9.688899465
1.68301E+18,5.141399658,0.56099999,0.618499994,0.143700004,,,0.713799953,-0.030099999,9.780499458,,256,1.274799943,0.588399995,9.924199462
1.68301E+18,5.161399658,0.275700003,0.648400009,0.447799981,,,0.714699984,-0.0502,9.780399323,,257,0.990399987,0.598200008,10.2281993
1.68301E+18,5.181401367,-0.050899997,0.626999974,0.703099966,,,0.717799962,-0.058199998,9.780099869,,258,0.666899964,0.568799976,10.48319983
1.68301E+18,5.201399658,-0.350299984,0.62650001,0.889799953,,,0.722899973,-0.057699997,9.779699326,,259,0.372599989,0.568800014,10.66949928
1.68301E+18,5.221399658,-0.589399993,0.638199985,0.684799969,,,0.736499965,-0.049799997,9.778800011,,260,0.147099972,0.588399988,10.46359998
1.68301E+18,5.241399658,-0.486699998,0.518700004,0.648199975,,,0.771099985,-0.038199998,9.776199341,,261,0.284399986,0.480500005,10.42439932
1.68301E+18,5.261399658,-0.326299995,0.408699989,0.906799972,,,0.816699982,-0.0262,9.772500038,,262,0.490399987,0.382499989,10.67930001
1.68301E+18,5.281399658,-0.204099998,0.336499989,1.420599937,,,0.861199975,-0.022599999,9.768699646,,263,0.657099977,0.31389999,11.18929958
1.68301E+18,5.301399658,-0.326199979,0.166999996,2.825999975,,,0.894999981,-0.0297,9.765600204,,264,0.568800002,0.137299996,12.59160018
1.68301E+18,5.321401367,-0.422999978,0.026799999,4.1802001,,,0.903499961,-0.046399999,9.764800072,,265,0.480499983,-0.0196,13.94500017
1.68301E+18,5.341399658,-0.236000001,-0.113799997,3.984099865,,,0.902899981,-0.062600002,9.764699936,,266,0.666899979,-0.176399998,13.7487998
1.68301E+18,5.361399658,-0.188199997,-0.53459996,3.221999884,,,0.933499992,-0.063500002,9.761899948,,267,0.745299995,-0.598099962,12.98389983
1.68301E+18,5.381399658,-0.204799995,-1.035300016,2.903899908,,,0.98939997,-0.053099997,9.756400108,,268,0.784599975,-1.088400014,12.66030002
1.68301E+18,5.401399658,0.0854,-1.169799924,3.280999899,,,1.032500029,-0.0559,9.751899719,,269,1.117900029,-1.225699924,13.03289962
1.68301E+18,5.421399658,0.211599991,-0.869099975,3.341199875,,,1.043499947,-0.082099997,9.750599861,,270,1.255099937,-0.951199971,13.09179974
1.68301E+18,5.441399658,0.248399988,-0.409099996,2.223899841,,,1.045899987,-0.120399997,9.749899864,,271,1.294299975,-0.529499993,11.97379971
1.68301E+18,5.461401367,0.263300002,-0.112999998,0.344099998,,,1.070299983,-0.15169999,9.746799469,,272,1.333599985,-0.264699988,10.09089947
1.68301E+18,5.481401367,0.241999999,-0.230999991,-1.129400015,,,1.130800009,-0.170999989,9.739699364,,273,1.372800007,-0.40199998,8.610299349
1.68301E+18,5.501399658,0.326399982,-0.414899975,-1.179399967,,,1.203299999,-0.183200002,9.730799675,,274,1.529699981,-0.598099977,8.551399708
1.68301E+18,5.521399658,0.039099999,-0.432699978,-0.792400002,,,1.235700011,-0.204599991,9.726299286,,275,1.27480001,-0.63729997,8.933899283
1.68301E+18,5.541399658,-0.232599989,-0.181999996,-0.32249999,,,1.22299993,-0.239599988,9.727099419,,276,0.990399942,-0.421599984,9.404599428
1.68301E+18,5.561399658,-0.430899978,0.085299999,-0.070999995,,,1.18599999,-0.281399995,9.730500221,,277,0.755100012,-0.196099997,9.659500226
1.68301E+18,5.581399658,-0.335899979,0.202500001,0.063099995,,,1.149799943,-0.320199996,9.733699799,,278,0.813899964,-0.117699996,9.796799794
1.68301E+18,5.601401367,-0.053599998,0.125699997,-0.162199989,,,1.142099977,-0.351300001,9.733499527,,279,1.088499978,-0.225600004,9.571299538
1.68301E+18,5.621401367,0.229399994,0.095299996,-0.709399998,,,1.15320003,-0.369899988,9.731499672,,280,1.382600024,-0.274599992,9.022099674
1.68301E+18,5.641399658,0.414099991,0.159099996,-1.402599931,,,1.174499989,-0.3847,9.72840023,,281,1.58859998,-0.225600004,8.3258003
1.68301E+18,5.661399658,0.281299978,0.251599997,-1.899099946,,,1.199399948,-0.398699999,9.72480011,,282,1.480699927,-0.147100002,7.825700164
1.68301E+18,5.681401367,0.0008,0.213199988,-2.307299852,,,1.224900007,-0.409299999,9.721199989,,283,1.225700007,-0.196100011,7.413900137
1.68301E+18,5.701399658,-0.203699991,0.32069999,-3.020499945,,,1.243299961,-0.418799996,9.718400002,,284,1.03959997,-0.098100007,6.697900057
1.68301E+18,5.721399658,-0.113799997,0.654399991,-3.350299835,,,1.261099935,-0.448499978,9.714799881,,285,1.147299938,0.205900013,6.364500046
1.68301E+18,5.741399658,-0.298099995,1.151600003,-2.956099987,,,1.25909996,-0.494599998,9.712800026,,286,0.960999966,0.657000005,6.756700039
1.68301E+18,5.761399658,-0.620099962,1.335799932,-2.163199902,,,1.228099942,-0.541499972,9.714300156,,287,0.60799998,0.79429996,7.551100254
1.68301E+18,5.781399658,-0.619399965,1.281700015,-1.224799991,,,1.188199997,-0.575699985,9.717299461,,288,0.568800032,0.70600003,8.492499471
1.68301E+18,5.801399658,-0.675599992,0.843800008,-0.620400012,,,1.156099916,-0.578999996,9.720999718,,289,0.480499923,0.264800012,9.100599706
1.68301E+18,5.821401367,-0.262899995,0.515900016,0.140599996,,,1.135699987,-0.555099964,9.72480011,,290,0.872799993,-0.039199948,9.865400106
1.68301E+18,5.841399658,0.063000001,-0.107299998,0.370499998,,,1.113699913,-0.50059998,9.73029995,,291,1.176699914,-0.607899979,10.10079995
1.68301E+18,5.861399658,0.641099989,-0.56159997,0.063500002,,,1.114099979,-0.438600004,9.733200073,,292,1.755199969,-1.000199974,9.796700075
1.68301E+18,5.881399658,0.883699954,-0.878499985,-0.075999998,,,1.116699934,-0.376599997,9.735499382,,293,2.000399888,-1.255099982,9.659499384
1.68301E+18,5.901399658,0.604099989,-1.172799945,-0.198499992,,,1.092299938,-0.317699999,9.740399361,,294,1.696399927,-1.490499943,9.541899368
1.68301E+18,5.921399658,0.270099998,-1.07159996,-0.20629999,,,1.034099936,-0.271799982,9.748099327,,295,1.304199934,-1.343399942,9.541799337
1.68301E+18,5.941399658,0.155000001,-0.769899964,0.23709999,,,0.962799966,-0.2597,9.755799294,,296,1.117799968,-1.029599965,9.992899284
1.68301E+18,5.961401367,0.034600001,-0.4366,1.094399929,,,0.896899998,-0.279199988,9.761499405,,297,0.931499999,-0.715799987,10.85589933
1.68301E+18,5.981401367,0.255699992,-0.0093,1.956200004,,,0.871999979,-0.314199984,9.762700081,,298,1.127699971,-0.323499984,11.71890008
1.68301E+18,6.001399658,0.441299975,0.204099998,2.546399832,,,0.882499993,-0.341399997,9.760799408,,299,1.323799968,-0.1373,12.30719924
1.68301E+18,6.021399658,0.900399983,0.083999999,3.498999834,,,0.894099951,-0.348800004,9.75949955,,300,1.794499934,-0.264800005,13.25849938
1.68301E+18,6.041399658,1.193199992,-0.061299998,3.940099955,,,0.895500004,-0.340700001,9.759699821,,301,2.088699996,-0.401999999,13.69979978
1.68301E+18,6.061399658,1.194999933,-0.221599996,4.126399994,,,0.903499961,-0.317699999,9.759699821,,302,2.098499894,-0.539299995,13.88609982
1.68301E+18,6.081399658,1.11559999,-0.602499962,4.342299938,,,0.914199948,-0.289799988,9.759599686,,303,2.029799938,-0.89229995,14.10189962
1.68301E+18,6.101399658,1.269999981,-0.801400006,4.460499763,,,0.926599979,-0.267399997,9.75909996,,304,2.19659996,-1.068800002,14.21959972
1.68301E+18,6.121401367,1.202899933,-0.859899998,4.225699902,,,0.934799969,-0.2579,9.758500099,,305,2.137699902,-1.117799997,13.9842
1.68301E+18,6.141399658,0.79399997,-0.54429996,3.27609992,,,0.951499999,-0.2597,9.756899834,,306,1.745499969,-0.80399996,13.03299975
1.68301E+18,6.161399658,0.168699995,-0.104699999,1.876599908,,,0.978599966,-0.26789999,9.75399971,,307,1.14729996,-0.372599989,11.63059962
1.68301E+18,6.181401367,-0.593100011,0.182099998,0.251499981,,,1.004899979,-0.270399988,9.751199722,,308,0.411799967,-0.08829999,10.0026997
1.68301E+18,6.201399658,-1.110100031,0.189999998,-1.453400016,,,1.021799922,-0.258699983,9.749799728,,309,-0.088300109,-0.068699986,8.296399713
1.68301E+18,6.221399658,-1.278399944,-0.061499998,-2.679699898,,,1.023399949,-0.232599989,9.750299454,,310,-0.254999995,-0.294099987,7.070599556
1.68301E+18,6.241399658,-0.99149996,-0.298799992,-2.848399878,,,1.011099935,-0.201199993,9.752299309,,311,0.019599974,-0.499999985,6.903899431
1.68301E+18,6.261399658,-0.581699967,-0.377199978,-2.086600065,,,0.983799994,-0.18159999,9.755399704,,312,0.402100027,-0.558799967,7.668799639
1.68301E+18,6.281399658,-0.305199981,-0.262400001,-1.414099932,,,0.942599952,-0.178800002,9.759599686,,313,0.637399971,-0.441200003,8.345499754
1.68301E+18,6.301399658,-0.129199997,-0.049599998,-0.946899951,,,0.903899968,-0.185699999,9.76309967,,314,0.774699971,-0.235299997,8.81619972
1.68301E+18,6.321401367,-0.0308,0.041899998,-0.733799994,,,0.874199986,-0.188999996,9.765699387,,315,0.843399987,-0.147099998,9.031899393
1.68301E+18,6.341399658,0.0051,0.037699997,-0.950199962,,,0.867599964,-0.184799999,9.766399384,,316,0.872699964,-0.147100002,8.816199422
1.68301E+18,6.361399658,-0.077699997,0.0149,-1.410099983,,,0.881899953,-0.171800002,9.765399933,,317,0.804199956,-0.156900003,8.35529995
1.68301E+18,6.381399658,-0.2597,-0.0722,-1.654199958,,,0.897099972,-0.153300002,9.764299393,,318,0.637399971,-0.225500003,8.110099435
1.68301E+18,6.401402832,-0.447599977,-0.140599996,-1.810299993,,,0.908499956,-0.133900002,9.763500214,,319,0.460899979,-0.274499997,7.953200221
1.68301E+18,6.421399658,-0.523599982,-0.217799991,-1.809899926,,,0.915799975,-0.115599997,9.76309967,,320,0.392199993,-0.333399989,7.953199744
1.68301E+18,6.441399658,-0.544099987,-0.260899991,-1.809899926,,,0.916799963,-0.101799995,9.76309967,,321,0.372699976,-0.362699986,7.953199744
1.68301E+18,6.461401367,-0.526499987,-0.229199991,-1.907899976,,,0.918799996,-0.094299994,9.762999535,,322,0.39230001,-0.323499985,7.855099559
1.68301E+18,6.481401367,-0.385299981,-0.138899997,-1.663100004,,,0.914900005,-0.096299998,9.763400078,,323,0.529600024,-0.235199995,8.100300074
1.68301E+18,6.501399658,-0.217500001,-0.0298,-1.40899992,,,0.903899968,-0.1074,9.764299393,,324,0.686399966,-0.1372,8.355299473
1.68301E+18,6.521399658,-0.089499995,0.0572,-1.164499998,,,0.893700004,-0.1259,9.76499939,,325,0.804200009,-0.068700001,8.600499392
1.68301E+18,6.541401367,-0.0084,0.149399996,-1.057500005,,,0.881199956,-0.149399996,9.765799522,,326,0.872799956,0,8.708299518
1.68301E+18,6.561399658,-0.079499997,0.224699989,-0.813399971,,,0.863999963,-0.175599992,9.766900063,,327,0.784499966,0.049099997,8.953500092
1.68301E+18,6.581399658,-0.217099994,0.290299982,-0.726300001,,,0.844799995,-0.201999992,9.768099785,,328,0.627700001,0.08829999,9.041799784
1.68301E+18,6.601399658,-0.292799979,0.434399992,-0.609099984,,,0.832199991,-0.228399992,9.76859951,,329,0.539400011,0.206,9.159499526
1.68301E+18,6.621401367,-0.368999988,0.477399975,-0.531099975,,,0.82009995,-0.251800001,9.769000053,,330,0.451099962,0.225599974,9.237900078
1.68301E+18,6.641399658,-0.404799998,0.516299963,-0.404199988,,,0.806800008,-0.271099985,9.769599915,,331,0.40200001,0.245199978,9.365399927
1.68301E+18,6.661399658,-0.174999997,0.576099992,-0.209399998,,,0.782999992,-0.291700006,9.770899773,,332,0.607999995,0.284399986,9.561499774
1.68301E+18,6.681401367,0.089999996,0.549799979,0.191699997,,,0.763099968,-0.314399987,9.771800041,,333,0.853099965,0.235399991,9.963500038
1.68301E+18,6.701399658,0.466499984,0.565499961,0.662899971,,,0.759299994,-0.339899987,9.77120018,,334,1.225799978,0.225599974,10.43410015
1.68301E+18,6.721399658,0.825800002,0.694499969,1.174999952,,,0.772599995,-0.370900005,9.769100189,,335,1.598399997,0.323599964,10.94410014
1.68301E+18,6.741399658,0.836499989,0.915699959,1.658499956,,,0.791299999,-0.405699998,9.766200066,,336,1.627799988,0.509999961,11.42470002
1.68301E+18,6.761399658,0.547100008,1.082499981,2.062999964,,,0.806199968,-0.435299993,9.763699532,,337,1.353299975,0.647199988,11.8266995
1.68301E+18,6.781399658,0.301400006,1.228099942,2.173399925,,,0.826299965,-0.453399986,9.761199951,,338,1.127699971,0.774699956,11.93459988
1.68301E+18,6.801399658,-0.061899997,1.182699919,2.204699993,,,0.846399963,-0.457099974,9.759299278,,339,0.784499966,0.725599945,11.96399927
1.68301E+18,6.821401367,-0.200199991,0.969599962,2.617199898,,,0.857199967,-0.449900001,9.758699417,,340,0.656999975,0.519699961,12.37589931
1.68301E+18,6.841399658,0.0999,0.779799998,3.057799816,,,0.851300001,-0.446399987,9.759399414,,341,0.951200001,0.333400011,12.81719923
1.68301E+18,6.861399658,0.481399983,0.231099993,3.781899929,,,0.832599998,-0.446799994,9.76099968,,342,1.313999981,-0.215700001,13.54289961
1.68301E+18,6.881399658,0.988599956,-0.070199996,4.946799755,,,0.805899978,-0.449399978,9.76309967,,343,1.794499934,-0.519599974,14.70989943
1.68301E+18,6.901399658,1.307199955,0.049599998,5.738599777,,,0.761900008,-0.471299976,9.765600204,,344,2.069099963,-0.421699978,15.50419998
1.68301E+18,6.921402832,1.523000002,0.6875,5.150000095,,,0.732499957,-0.510899961,9.765799522,,345,2.255499959,0.176600039,14.91579962
1.68301E+18,6.941402832,0.935599983,0.972000003,2.740799904,,,0.760800004,-0.530699968,9.762599945,,346,1.696399987,0.441300035,12.50339985
1.68301E+18,6.961401367,0.188500002,1.018000007,0.108899996,,,0.831299961,-0.537400007,9.75649929,,347,1.019799963,0.480599999,9.865399286
1.68301E+18,6.981401367,-0.672499955,0.661599994,-1.323799968,,,0.947099984,-0.504700005,9.747699738,,348,0.274600029,0.156899989,8.42389977
1.68301E+18,7.001399658,-1.347000003,-0.144999996,-1.474900007,,,1.033200026,-0.443299979,9.74189949,,349,-0.313799977,-0.588299975,8.266999483
1.68301E+18,7.021399658,-1.258700013,-0.499599993,-1.327600002,,,1.062600017,-0.373099983,9.741700172,,350,-0.196099997,-0.872699976,8.41410017
1.68301E+18,7.041401367,-0.471399993,-0.494299978,-0.548099995,,,1.030399919,-0.329400003,9.746699333,,351,0.558999926,-0.823699981,9.198599339
1.68301E+18,7.061399658,0.754899979,-0.414599985,0.150199994,,,0.961199999,-0.31099999,9.7543993,,352,1.716099977,-0.725599974,9.904599294
1.68301E+18,7.081399658,1.633999944,-0.471699983,0.1417,,,0.876399994,-0.293099999,9.762999535,,353,2.510399938,-0.764799982,9.904699534
1.68301E+18,7.101399658,2.08769989,-0.537599981,-0.737399995,,,0.814999998,-0.256599993,9.769299507,,354,2.902699888,-0.794199973,9.031899512
1.68301E+18,7.121401367,1.98029995,-0.610599995,-1.857999921,,,0.7949,-0.213100001,9.771999359,,355,2.77519995,-0.823699996,7.913999438
1.68301E+18,7.141399658,1.57099998,-0.648299992,-2.769399881,,,0.81189996,-0.175399989,9.771399498,,356,2.38289994,-0.823699981,7.001999617
1.68301E+18,7.161399658,1.000999928,-0.592799962,-3.326999903,,,0.832699955,-0.152400002,9.769999504,,357,1.833699882,-0.745199963,6.442999601
1.68301E+18,7.181401367,0.584500015,-0.451599985,-3.689599991,,,0.83739996,-0.146499991,9.76970005,,358,1.421899974,-0.598099977,6.08010006
1.68301E+18,7.201399658,0.279500008,-0.266200006,-3.808699846,,,0.818699956,-0.155399993,9.771100044,,359,1.098199964,-0.421599999,5.962400198
1.68301E+18,7.221399658,0.136799991,-0.090399995,-3.585599899,,,0.78490001,-0.1743,9.773599625,,360,0.921700001,-0.264699996,6.187999725
1.68301E+18,7.241399658,0.159699991,0.0973,-3.019500017,,,0.742399991,-0.205200002,9.776299477,,361,0.902099982,-0.107900001,6.756799459
1.68301E+18,7.261399658,0.255699992,0.245699987,-2.149199963,,,0.695499957,-0.245699987,9.778800011,,362,0.951199949,0,7.629600048
1.68301E+18,7.281399658,0.346399993,0.290399998,-1.151299953,,,0.643999994,-0.290399998,9.781099319,,363,0.990399987,0,8.629799366
1.68301E+18,7.301399658,0.490699977,0.412200004,-0.143899992,,,0.578199983,-0.333700001,9.783800125,,364,1.068899959,0.078500003,9.639900133
1.68301E+18,7.321401367,0.746699989,0.570100009,0.755299985,,,0.498599976,-0.373999983,9.786799431,,365,1.245299965,0.196100026,10.54209942
1.68301E+18,7.341399658,0.953999996,0.805899978,0.978299975,,,0.418899983,-0.403799981,9.789299965,,366,1.372899979,0.402099997,10.76759994
1.68301E+18,7.361399658,1.069700003,0.794099987,0.525200009,,,0.361999989,-0.411599994,9.79129982,,367,1.431699991,0.382499993,10.31649983
1.68301E+18,7.381399658,1.296000004,0.642099977,0.170499995,,,0.331799984,-0.396899998,9.792900085,,368,1.627799988,0.245199978,9.963400081
1.68301E+18,7.401399658,1.652499914,0.466099977,-0.135299996,,,0.308799982,-0.368099988,9.794799805,,369,1.961299896,0.09799999,9.659499809
1.68301E+18,7.421399658,1.986400008,0.359400004,-0.430799991,,,0.298399985,-0.3398,9.796199799,,370,2.284799993,0.019600004,9.365399808
1.68301E+18,7.441399658,2.020699978,0.395099998,-0.726199985,,,0.283800006,-0.316699982,9.797399521,,371,2.304499984,0.078400016,9.071199536
1.68301E+18,7.461401367,2.027099848,0.520399988,-0.580199957,,,0.257799983,-0.3046,9.798500061,,372,2.284899831,0.215799987,9.218300104
1.68301E+18,7.481399658,1.984499931,0.646600008,-0.129999995,,,0.221900001,-0.30339998,9.799399376,,373,2.206399933,0.343200028,9.669399381
1.68301E+18,7.501399658,1.960099936,0.736999989,0.143999994,,,0.1972,-0.305500001,9.799900055,,374,2.157299936,0.431499988,9.943900049
1.68301E+18,7.521399658,1.843400002,0.796899974,0.594699979,,,0.176599994,-0.306600004,9.800199509,,375,2.019999996,0.49029997,10.39489949
1.68301E+18,7.541401367,1.757099986,0.705799997,1.14349997,,,0.155100003,-0.3037,9.800700188,,376,1.912199989,0.402099997,10.94420016
1.68301E+18,7.561399658,1.747499943,0.291099995,1.858699918,,,0.135299996,-0.291099995,9.801300049,,377,1.882799938,0,11.65999997
1.68301E+18,7.581399658,1.853099942,-0.438600004,2.691299915,,,0.117899999,-0.26729998,9.802199364,,378,1.970999941,-0.705899984,12.49349928
1.68301E+18,7.601399658,1.967599988,-0.916199982,2.759199858,,,0.111299999,-0.240799993,9.802999496,,379,2.078899987,-1.156999975,12.56219935
1.68301E+18,7.621401367,1.798099995,-0.708099961,1.504099965,,,0.133699998,-0.2333,9.802899361,,380,1.931799993,-0.941399962,11.30699933
1.68301E+18,7.641399658,1.388099909,-0.329600006,0.3486,,,0.200499997,-0.258699983,9.801099777,,381,1.588599905,-0.58829999,10.14969978
1.68301E+18,7.661399658,0.843899965,-0.0029,-0.168499991,,,0.254299998,-0.300999999,9.798699379,,382,1.098199964,-0.303899999,9.630199388
1.68301E+18,7.681401367,0.39379999,0.463799983,-0.499899983,,,0.263099998,-0.35589999,9.796599388,,383,0.656899989,0.107899994,9.296699405
1.68301E+18,7.701399658,0.015,0.670699954,-1.165199995,,,0.249699995,-0.405900002,9.795000076,,384,0.264699995,0.264799953,8.629800081
1.68301E+18,7.721399658,-0.160599992,0.428900003,-1.399999976,,,0.229299992,-0.428900003,9.794499397,,385,0.068700001,0,8.394499421
1.68301E+18,7.741399658,0.171299994,0.060599998,-0.763700008,,,0.191499993,-0.423399985,9.795599937,,386,0.362799987,-0.362799987,9.031899929
1.68301E+18,7.761399658,0.81189996,-0.27609998,0.558699965,,,0.139300004,-0.410299987,9.796999931,,387,0.951199964,-0.686399966,10.3556999
1.68301E+18,7.781399658,1.422699928,-0.3495,1.862100005,,,0.077699997,-0.405499995,9.7979002,,388,1.500399925,-0.754999995,11.66000021
1.68301E+18,7.801399658,1.851699948,-0.300699979,2.048099995,,,0.0115,-0.405299991,9.798199654,,389,1.863199948,-0.70599997,11.84629965
1.68301E+18,7.821401367,2.267199993,-0.189699993,1.125999928,,,-0.021399999,-0.398599982,9.798500061,,390,2.245799994,-0.588299975,10.92449999
1.68301E+18,7.841401367,2.309399843,-0.160799995,0.262199998,,,-0.014599999,-0.378499985,9.799300194,,391,2.294799844,-0.53929998,10.06150019
1.68301E+18,7.861399658,2.202899933,-0.146799996,-0.27759999,,,0.0133,-0.363099992,9.799900055,,392,2.216199933,-0.509899989,9.522300065
1.68301E+18,7.881399658,1.764699936,-0.103399999,-0.454299986,,,0.0396,-0.3574,9.800000191,,393,1.804299936,-0.4608,9.345700204
1.68301E+18,7.901399658,1.118000031,-0.123599999,-0.699499965,,,0.039099999,-0.356899977,9.800000191,,394,1.157100029,-0.480499975,9.100500226
1.68301E+18,7.921399658,0.75,-0.143399999,-0.983899951,,,0.0148,-0.356700003,9.800099373,,395,0.7648,-0.500100002,8.816199422
1.68301E+18,7.941399658,0.972199976,-0.122499995,-1.05250001,,,-0.021,-0.357899994,9.800000191,,396,0.951199977,-0.480399989,8.747500181
1.68301E+18,7.961401367,1.448199987,-0.074999996,-0.748099983,,,-0.055599999,-0.3662,9.799599648,,397,1.392599989,-0.441199996,9.051499665
1.68301E+18,7.981399658,1.860999942,0.034499999,-0.423299998,,,-0.095799997,-0.387600005,9.798500061,,398,1.765199944,-0.353100006,9.375200063
1.68301E+18,8.001399658,2.213999987,0.30429998,-0.088,,,-0.134900004,-0.421999991,9.796599388,,399,2.079099983,-0.117700011,9.708599389
1.68301E+18,8.021399658,2.352699995,0.482499987,0.316499978,,,-0.175599992,-0.462899983,9.794099808,,400,2.177100003,0.019600004,10.11059979
1.68301E+18,8.041401367,2.341500044,0.566900015,0.328799993,,,-0.213399991,-0.498199999,9.791600227,,401,2.128100052,0.068700016,10.12040022
1.68301E+18,8.061399658,2.093899965,0.50849998,0.153899997,,,-0.240499988,-0.518299997,9.789899826,,402,1.853399977,-0.009800017,9.943799824
1.68301E+18,8.081399658,1.632799983,0.409099996,0.046999998,,,-0.259900004,-0.526799977,9.788999557,,403,1.372899979,-0.117699981,9.835999556
1.68301E+18,8.101399658,1.227699995,0.350199997,-0.0407,,,-0.276499987,-0.52669996,9.788499832,,404,0.951200008,-0.176499963,9.747799832
1.68301E+18,8.121401367,0.949099958,0.307899982,-0.37439999,,,-0.291999996,-0.513899982,9.788799286,,405,0.657099962,-0.206,9.414399296
1.68301E+18,8.141402832,0.929199994,0.14199999,-0.905099988,,,-0.301599979,-0.485199988,9.789899826,,406,0.627600014,-0.343199998,8.884799838
1.68301E+18,8.161399658,0.966099977,-0.067999996,-1.319100022,,,-0.299199998,-0.441899985,9.792099953,,407,0.666899979,-0.509899981,8.47299993
1.68301E+18,8.181401367,0.913100004,-0.2421,-1.458799958,,,-0.28549999,-0.395199984,9.794499397,,408,0.627600014,-0.637299985,8.335699439
1.68301E+18,8.201399658,0.781300008,-0.291700006,-1.264599919,,,-0.271400005,-0.355499983,9.79640007,,409,0.509900004,-0.647199988,8.531800151
1.68301E+18,8.221399658,0.75059998,-0.248899996,-0.755599976,,,-0.270099998,-0.329600006,9.797299385,,410,0.480499983,-0.578500003,9.041699409
1.68301E+18,8.241399658,0.772899985,-0.197899997,-0.38319999,,,-0.282599986,-0.31189999,9.797599792,,411,0.4903,-0.509799987,9.414399803
1.68301E+18,8.261401367,0.838400006,-0.185499996,-0.432499975,,,-0.289299995,-0.294999987,9.7979002,,412,0.549100012,-0.480499983,9.365400225
1.68301E+18,8.281399658,0.797599971,-0.269499987,-0.531399965,,,-0.277899981,-0.279599994,9.798699379,,413,0.519699991,-0.549099982,9.267299414
1.68301E+18,8.301399658,0.782700002,-0.180099994,-0.159400001,,,-0.262899995,-0.270899981,9.799300194,,414,0.519800007,-0.450999975,9.639900193
1.68301E+18,8.321401367,0.743799984,-0.0103,0.507200003,,,-0.253399998,-0.273999989,9.799499512,,415,0.490399987,-0.284299989,10.30669951
1.68301E+18,8.341399658,0.786799967,0.042799998,1.203400016,,,-0.247400001,-0.278200001,9.799499512,,416,0.539399967,-0.235400002,11.00289953
1.68301E+18,8.361399658,0.783599973,-0.109499998,1.575599909,,,-0.234499991,-0.272799999,9.800000191,,417,0.549099982,-0.382299997,11.3756001
1.68301E+18,8.381399658,0.98179996,-0.441499978,2.133499861,,,-0.207099989,-0.254700005,9.801099777,,418,0.774699971,-0.696199983,11.93459964
1.68301E+18,8.401399658,1.305499911,-0.852499962,3.368099928,,,-0.177699998,-0.2359,9.802199364,,419,1.127799913,-1.088399962,13.17029929
1.68301E+18,8.421399658,1.573899984,-0.872599959,4.122499943,,,-0.151999995,-0.225599989,9.802800179,,420,1.421899989,-1.098199949,13.92530012
1.68301E+18,8.441399658,1.596199989,-0.625999987,3.700399876,,,-0.115399994,-0.2271,9.803299904,,421,1.480799995,-0.853099987,13.50369978
1.68301E+18,8.461399658,1.541499972,-0.592899978,2.032599926,,,-0.050899997,-0.221000001,9.803999901,,422,1.490599975,-0.813899979,11.83659983
1.68301E+18,8.481399658,1.457499981,-0.886799991,0.148999989,,,0.0232,-0.1919,9.804699898,,423,1.480699981,-1.078699991,9.953699887
1.68301E+18,8.501399658,1.584599972,-1.336199999,-0.821999967,,,0.1021,-0.154299989,9.804900169,,424,1.686699972,-1.490499988,8.982900202
1.68301E+18,8.521399658,1.485000014,-1.754199982,-0.723499954,,,0.162399992,-0.128600001,9.80439949,,425,1.647400007,-1.882799983,9.080899537
1.68301E+18,8.541399658,1.330799937,-1.795599937,-0.075899996,,,0.179299995,-0.126399994,9.804100037,,426,1.510099933,-1.921999931,9.728200041
1.68301E+18,8.561399658,1.307199955,-1.405300021,-0.115099996,,,0.163699999,-0.153899997,9.803999901,,427,1.470899954,-1.559200019,9.688899904
1.68301E+18,8.581399658,1.590899944,-1.198300004,-0.644199967,,,0.144699991,-0.194099993,9.803599358,,428,1.735599935,-1.392399997,9.15939939
1.68301E+18,8.601399658,1.918899894,-1.281700015,-0.967099965,,,0.140399992,-0.228399992,9.802899361,,429,2.059299886,-1.510100007,8.835799396
1.68301E+18,8.621399658,2.155099869,-1.37650001,-0.907399952,,,0.149399996,-0.261199981,9.802000046,,430,2.304499865,-1.637699991,8.894600093
1.68301E+18,8.641399658,2.067499876,-1.337299943,-0.444899976,,,0.158500001,-0.310099989,9.80039978,,431,2.225999877,-1.647399932,9.355499804
1.68301E+18,8.661399658,1.714699984,-1.281499982,-0.167999998,,,0.158199996,-0.375699997,9.798099518,,432,1.872899979,-1.657199979,9.63009952
1.68301E+18,8.681401367,1.341899991,-1.098999977,-0.037999999,,,0.148599997,-0.440499991,9.795599937,,433,1.490499988,-1.539499968,9.757599939
1.68301E+18,8.701399658,1.013299942,-0.905200005,0.033099998,,,0.134000003,-0.497099996,9.793099403,,434,1.147299945,-1.4023,9.826199401
1.68301E+18,8.721399658,0.886399984,-0.725600004,0.192599997,,,0.123499997,-0.549199998,9.790399551,,435,1.009899981,-1.274800003,9.982999548
1.68301E+18,8.741399658,0.922399998,-0.632099986,0.332499981,,,0.116999999,-0.593699992,9.787899971,,436,1.039399996,-1.225799978,10.12039995
1.68301E+18,8.761399658,1.007399917,-0.581799984,0.324499995,,,0.110399999,-0.624300003,9.786099434,,437,1.117799915,-1.206099987,10.11059943
1.68301E+18,8.781399658,1.182299972,-0.574099958,0.168699995,,,0.111999996,-0.641900003,9.784899712,,438,1.294299968,-1.215999961,9.953599706
1.68301E+18,8.801399658,1.386199951,-0.614799976,-0.075800002,,,0.114099994,-0.650200009,9.784399986,,439,1.500299945,-1.264999986,9.708599985
1.68301E+18,8.821401367,1.616899967,-0.65259999,-0.350199997,,,0.118799999,-0.651600003,9.784199715,,440,1.735699967,-1.304199994,9.433999717
1.68301E+18,8.841399658,1.624799967,-0.620199978,-0.546000004,,,0.130500004,-0.654599965,9.783899307,,441,1.755299971,-1.274799943,9.237899303
1.68301E+18,8.861399658,1.425499916,-0.416500002,-0.4472,,,0.1435,-0.662199974,9.78319931,,442,1.568999916,-1.078699976,9.33599931
1.68301E+18,8.881399658,1.059000015,-0.262800008,-0.367499977,,,0.15699999,-0.678499997,9.781799316,,443,1.216000006,-0.941300005,9.414299339
1.68301E+18,8.901399658,0.794200003,-0.113600001,-0.493900001,,,0.166699991,-0.690499961,9.780799866,,444,0.960899994,-0.804099962,9.286899865
1.68301E+18,8.921399658,0.713400006,0.068300001,-0.630800009,,,0.169100001,-0.695899963,9.780399323,,445,0.882500008,-0.627599962,9.149599314
1.68301E+18,8.941399658,0.923299968,0.350299984,-0.581099987,,,0.174999997,-0.703399956,9.779799461,,446,1.098299965,-0.353099972,9.198699474
1.68301E+18,8.961401367,1.240700006,0.587599993,-0.550599992,,,0.191,-0.71509999,9.778599739,,447,1.431700006,-0.127499998,9.227999747
1.68301E+18,8.981401367,1.231099963,0.666799963,-0.647199988,,,0.220199987,-0.725699961,9.777199745,,448,1.45129995,-0.058899999,9.129999757
1.68301E+18,9.001399658,1.150200009,0.682399988,-0.773499966,,,0.252000004,-0.73149997,9.776000023,,449,1.402200013,-0.049099982,9.002500057
1.68301E+18,9.021399658,1.132300019,0.682699978,-0.390100002,,,0.260100007,-0.741599977,9.775099754,,450,1.392400026,-0.058899999,9.384999752
1.68301E+18,9.041401367,1.171800017,0.782599986,0.228799999,,,0.2403,-0.762999952,9.773900032,,451,1.412100017,0.019600034,10.00270003
1.68301E+18,9.061402832,1.155900002,0.953699946,0.64199996,,,0.216999993,-0.787,9.772600174,,452,1.372899994,0.166699946,10.41460013
1.68301E+18,9.081402832,1.186499953,1.125800014,0.869399965,,,0.206,-0.811999977,9.770799637,,453,1.392499954,0.313800037,10.6401996
1.68301E+18,9.101399658,1.134299994,1.230499983,0.851199985,,,0.209099993,-0.828399956,9.769299507,,454,1.343399987,0.402100027,10.62049949
1.68301E+18,9.121401367,1.055299997,0.878299952,0.850699961,,,0.21949999,-0.819399953,9.769800186,,455,1.274799988,0.058899999,10.62050015
1.68301E+18,9.141399658,0.981999993,0.516499996,1.054399967,,,0.224099994,-0.791099966,9.772099495,,456,1.206099987,-0.274599969,10.82649946
1.68301E+18,9.161399658,1.056399941,0.247299999,1.287899971,,,0.228199989,-0.767099977,9.773900032,,457,1.28459993,-0.519799978,11.0618
1.68301E+18,9.181401367,1.15899992,-0.065899998,1.512099981,,,0.233499989,-0.747999966,9.77519989,,458,1.392499909,-0.813899964,11.28729987
1.68301E+18,9.201399658,1.487100005,-0.309899986,2.021299839,,,0.2289,-0.739299953,9.776000023,,459,1.716000006,-1.049199939,11.79729986
1.68301E+18,9.221399658,1.810199976,-0.451700002,2.47329998,,,0.219599992,-0.754399955,9.775099754,,460,2.029799968,-1.206099957,12.24839973
1.68301E+18,9.241399658,1.726999998,-0.573799968,2.789799929,,,0.214699998,-0.789299965,9.772399902,,461,1.941699997,-1.363099933,12.56219983
1.68301E+18,9.261399658,1.533199906,-0.892099977,2.823099852,,,0.22209999,-0.833799958,9.76859951,,462,1.755299896,-1.725899935,12.59169936
1.68301E+18,9.281399658,1.179700017,-1.093999982,2.867499828,,,0.242199987,-0.886799991,9.763400078,,463,1.421900004,-1.980799973,12.63089991
1.68301E+18,9.301399658,0.561100006,-1.126299977,2.825199842,,,0.262499988,-0.952699959,9.756699562,,464,0.823599994,-2.078999937,12.5818994
1.68301E+18,9.321401367,-0.145099998,-1.095999956,2.685400009,,,0.272599995,-1.022199988,9.749400139,,465,0.127499998,-2.118199944,12.43480015
1.68301E+18,9.341399658,-0.493799984,-0.904199958,1.622999907,,,0.258399993,-1.086400032,9.742799759,,466,-0.235399991,-1.99059999,11.36579967
1.68301E+18,9.361399658,-0.220299989,-0.753799975,0.254700005,,,0.249799997,-1.128999949,9.738200188,,467,0.029500008,-1.882799923,9.992900193
1.68301E+18,9.381399658,0.373999983,-0.699799955,-0.379399985,,,0.263300002,-1.153499961,9.734999657,,468,0.637299985,-1.853299916,9.355599672
1.68301E+18,9.401399658,0.909399986,-0.595499992,-0.022599999,,,0.286899984,-1.179399967,9.731200218,,469,1.19629997,-1.77489996,9.708600219
1.68301E+18,9.421399658,0.975699961,-0.533100009,0.480599999,,,0.298999995,-1.202600002,9.727999687,,470,1.274699956,-1.735700011,10.20859969
1.68301E+18,9.441399658,0.567499995,-0.669799984,0.823799968,,,0.295399994,-1.203099966,9.727999687,,471,0.862899989,-1.87289995,10.55179965
1.68301E+18,9.461401367,0.092399999,-0.714299977,0.869699955,,,0.289999992,-1.178300023,9.731200218,,472,0.382399991,-1.8926,10.60090017
1.68301E+18,9.481401367,-0.13849999,-0.739099979,0.844899952,,,0.295399994,-1.13380003,9.736299515,,473,0.156900004,-1.872900009,10.58119947
1.68301E+18,9.501399658,-0.145499989,-0.890899956,0.495399982,,,0.321999997,-1.0704,9.742699623,,474,0.176500008,-1.961299956,10.2380996
1.68301E+18,9.521399658,-0.13499999,-1.136099935,-0.071499996,,,0.360499978,-0.981999993,9.750599861,,475,0.225499988,-2.118099928,9.679099865
1.68301E+18,9.541399658,-0.137500003,-1.36589992,-0.834699988,,,0.402199984,-0.879700005,9.758799553,,476,0.264699981,-2.245599926,8.924099565
1.68301E+18,9.561399658,-0.199399993,-1.438599944,-1.586899996,,,0.444499999,-0.77759999,9.765600204,,477,0.245100006,-2.216199934,8.178700209
1.68301E+18,9.581399658,-0.221699998,-1.438199997,-1.758700013,,,0.476699978,-0.689700007,9.770699501,,478,0.25499998,-2.127900004,8.011999488
1.68301E+18,9.601399658,-0.249899998,-1.455799937,-1.546499968,,,0.495099992,-0.623099983,9.774199486,,479,0.245199993,-2.07889992,8.227699518
1.68301E+18,9.621401367,-0.256399989,-1.458599925,-1.343400002,,,0.50150001,-0.57129997,9.777099609,,480,0.245100021,-2.029899895,8.433699608
1.68301E+18,9.641399658,-0.362800002,-1.305400014,-1.237999916,,,0.500100017,-0.528299987,9.779600143,,481,0.137300014,-1.833700001,8.541600227
1.68301E+18,9.661399658,-0.482299984,-1.130999923,-1.102699995,,,0.4921,-0.496799976,9.781599998,,482,0.009800017,-1.627799898,8.678900003
1.68301E+18,9.681401367,-0.447599977,-0.929699957,-1.113999963,,,0.486799985,-0.472499996,9.783100128,,483,0.039200008,-1.402199954,8.669100165
1.68301E+18,9.701399658,-0.263899982,-0.866999984,-0.967999995,,,0.489499986,-0.446999997,9.784199715,,484,0.225600004,-1.313999981,8.81619972
1.68301E+18,9.721399658,0.045499999,-0.916399956,-0.802399993,,,0.493699998,-0.417199999,9.785299301,,485,0.539199997,-1.333599955,8.982899308
1.68301E+18,9.741399658,0.253899992,-0.848899961,-0.881699979,,,0.501199961,-0.386700004,9.786099434,,486,0.755099952,-1.235599965,8.904399455
1.68301E+18,9.761399658,0.264400005,-0.684399962,-1.224799991,,,0.519999981,-0.364799976,9.785999298,,487,0.784399986,-1.049199939,8.561199307
1.68301E+18,9.781399658,0.125599995,-0.442199975,-1.635399938,,,0.550999999,-0.352099985,9.784799576,,488,0.676599994,-0.79429996,8.149399638
1.68301E+18,9.801399658,-0.021199999,-0.199199989,-1.60439992,,,0.5801,-0.349899977,9.78319931,,489,0.558900001,-0.549099967,8.178799391
1.68301E+18,9.821401367,-0.12969999,0.015199999,-1.113199949,,,0.590600014,-0.358399987,9.78219986,,490,0.460900024,-0.343199988,8.66899991
1.68301E+18,9.841399658,-0.316300005,0.258899987,-0.808399975,,,0.590900004,-0.376599997,9.781499863,,491,0.274599999,-0.117700011,8.973099887
1.68301E+18,9.861399658,-0.522799969,0.464699984,-0.758599997,,,0.591399968,-0.395999998,9.78069973,,492,0.068599999,0.068699986,9.022099733
1.68301E+18,9.881399658,-0.595699966,0.719899952,-0.600600004,,,0.595699966,-0.415899992,9.779600143,,493,0,0.30399996,9.179000139
1.68301E+18,9.901399658,-0.533299983,0.76849997,-0.314999998,,,0.601999998,-0.435099989,9.778399467,,494,0.068700016,0.333399981,9.46339947
1.68301E+18,9.921399658,-0.279599994,0.706499994,0.215899989,,,0.612999976,-0.451599985,9.776999474,,495,0.333399981,0.254900008,9.992899463
1.68301E+18,9.941399658,-0.0339,0.589899957,0.855499983,,,0.632099986,-0.472199976,9.774799347,,496,0.598199986,0.117699981,10.63029933
1.68301E+18,9.961401367,0.258399993,0.509199977,1.476699948,,,0.663299978,-0.49939999,9.771399498,,497,0.921699971,0.009799987,11.24809945
1.68301E+18,9.981401367,0.518899977,0.464699984,2.353699923,,,0.697099984,-0.533299983,9.767199516,,498,1.215999961,-0.068599999,12.12089944
1.68301E+18,10.00139966,0.725099981,0.212899998,3.592599869,,,0.716399968,-0.565899968,9.763999939,,499,1.441499949,-0.35299997,13.35659981
1.68301E+18,10.02139966,0.837300003,0.288399994,4.428100109,,,0.721899986,-0.592400014,9.762000084,,500,1.559199989,-0.30400002,14.19010019
1.68301E+18,10.04140137,0.556800008,0.553900003,3.851199865,,,0.727799952,-0.612699986,9.760299683,,501,1.28459996,-0.058799982,13.61149955
1.68301E+18,10.06139966,0.377499998,0.359999985,2.345099926,,,0.779599965,-0.614899993,9.756199837,,502,1.157099962,-0.254900008,12.10129976
1.68301E+18,10.08140283,0.3838,-0.325899988,1.878899932,,,0.861499965,-0.576200008,9.751699448,,503,1.245299965,-0.902099997,11.63059938
1.68301E+18,10.10139966,0.639299989,-0.764899969,2.086999893,,,0.919799984,-0.519599974,9.749499321,,504,1.559099972,-1.284499943,11.83649921
1.68301E+18,10.12140137,0.656199992,-0.764400005,1.9993999,,,0.951999962,-0.471100003,9.74889946,,505,1.608199954,-1.235500008,11.74829936
1.68301E+18,10.14139966,0.650200009,-0.600199997,1.078199983,,,0.977599978,-0.429399997,9.748299599,,506,1.627799988,-1.029599994,10.82649958
1.68301E+18,10.16139966,0.680499971,-0.628499985,-0.156499997,,,1.006099939,-0.381499976,9.74739933,,507,1.68659991,-1.009999961,9.590899333
1.68301E+18,10.18139966,0.628499985,-0.841499984,-1.03670001,,,1.048300028,-0.325399995,9.744999886,,508,1.676800013,-1.166899979,8.708299875
1.68301E+18,10.20139966,0.642099977,-1.059299946,-1.374300003,,,1.113199949,-0.274299979,9.739299774,,509,1.755299926,-1.333599925,8.364999771
1.68301E+18,10.22139966,0.477999985,-1.12559998,-1.33920002,,,1.169399977,-0.237399995,9.733699799,,510,1.647399962,-1.362999976,8.394499779
1.68301E+18,10.24139966,0.284399986,-1.119199991,-1.161199927,,,1.186499953,-0.214399993,9.732199669,,511,1.47089994,-1.333599985,8.570999742
1.68301E+18,10.26139966,0.066299997,-1.114799976,-0.908599973,,,1.169199944,-0.199199989,9.734600067,,512,1.235499941,-1.313999966,8.826000094
1.68301E+18,10.28139966,-0.115599997,-1.136099935,-0.667699993,,,1.135499954,-0.187699988,9.738800049,,513,1.019899957,-1.323799923,9.071100056
1.68301E+18,10.30139966,-0.071199998,-0.992699981,-0.593299985,,,1.100899935,-0.184,9.742899895,,514,1.029699937,-1.176699981,9.14959991
1.68301E+18,10.32139966,0.172199994,-0.841099977,-0.801099956,,,1.082999945,-0.188500002,9.744799614,,515,1.255199939,-1.02959998,8.943699658
1.68301E+18,10.34139966,0.366899997,-0.777799964,-1.320599914,,,1.084399939,-0.192999989,9.74450016,,516,1.451299936,-0.970799953,8.423900247
1.68301E+18,10.36139966,0.56129998,-0.799600005,-1.819499969,,,1.09589994,-0.190799996,9.743299484,,517,1.657199919,-0.990400001,7.923799515
1.68301E+18,10.38139966,0.769599974,-0.896499991,-1.944999933,,,1.113199949,-0.192000002,9.741299629,,518,1.882799923,-1.088499993,7.796299696
1.68301E+18,10.40139966,0.966099977,-0.907000005,-1.981899977,,,1.132399917,-0.201099992,9.738900185,,519,2.098499894,-1.108099997,7.757000208
1.68301E+18,10.42139966,1.007499933,-0.889400005,-1.832299948,,,1.149799943,-0.218699992,9.736499786,,520,2.157299876,-1.108099997,7.904199839
1.68301E+18,10.44139966,0.752099991,-0.703399956,-1.673499942,,,1.160099983,-0.247699991,9.734600067,,521,1.912199974,-0.951099947,8.061100125
1.68301E+18,10.46139966,0.45539999,-0.486499995,-1.366899967,,,1.172399998,-0.288100004,9.731999397,,522,1.627799988,-0.774599999,8.36509943
1.68301E+18,10.48139966,0.067000002,-0.402899981,-0.972499967,,,1.178300023,-0.332499981,9.729899406,,523,1.245300025,-0.735399961,8.75739944
1.68301E+18,10.50139966,-0.037,-0.333399981,-0.442000002,,,1.174499989,-0.372599989,9.728899956,,524,1.137499988,-0.70599997,9.286899954
1.68301E+18,10.52139966,0.029299999,-0.316100001,0.057499997,,,1.157199979,-0.409500003,9.729499817,,525,1.186499977,-0.725600004,9.786999814
1.68301E+18,10.54139966,0.352099985,-0.2509,0.32159999,,,1.138399959,-0.445199996,9.730099678,,526,1.490499943,-0.696099997,10.05169967
1.68301E+18,10.56139966,0.694499969,-0.149299994,0.204399988,,,1.129400015,-0.478199989,9.729599953,,527,1.823899984,-0.627499983,9.933999941
1.68301E+18,10.58139966,0.896999955,-0.0414,0.010199999,,,1.1329,-0.507699966,9.72769928,,528,2.029899955,-0.549099967,9.737899279
1.68301E+18,10.60139966,0.784999967,-0.0006,-0.096000001,,,1.136999965,-0.528899968,9.726099968,,529,1.921999931,-0.529499968,9.630099967
1.68301E+18,10.62139966,0.594599962,0.121199995,-0.076200001,,,1.131299973,-0.542899966,9.725999832,,530,1.725899935,-0.421699971,9.649799831
1.68301E+18,10.64139966,0.360599995,0.217999995,0.020299999,,,1.110299945,-0.561199963,9.727399826,,531,1.47089994,-0.343199968,9.747699825
1.68301E+18,10.66139966,0.164399996,0.395099998,0.509199977,,,1.080899954,-0.591199994,9.728899956,,532,1.24529995,-0.196099997,10.23809993
1.68301E+18,10.68139966,0.169100001,0.497099996,1.400599957,,,1.046800017,-0.63440001,9.729899406,,533,1.215900019,-0.137300014,11.13049936
1.68301E+18,10.70139966,0.311499983,0.555999994,2.21420002,,,1.012300014,-0.683499992,9.730199814,,534,1.323799998,-0.127499998,11.94439983
1.68301E+18,10.72139966,0.518700004,0.703499973,2.733399868,,,0.97179997,-0.73299998,9.730799675,,535,1.490499973,-0.029500008,12.46419954
1.68301E+18,10.74139966,0.763999999,0.4833,3.233099937,,,0.932399988,-0.777499974,9.731200218,,536,1.696399987,-0.294199973,12.96430016
1.68301E+18,10.76139966,0.839899957,0.20979999,3.83039999,,,0.895799994,-0.807999969,9.732099533,,537,1.735699952,-0.598199978,13.56249952
1.68301E+18,10.78139966,0.978699982,0.0352,3.760799885,,,0.864899993,-0.829599977,9.733099937,,538,1.843599975,-0.794399977,13.49389982
1.68301E+18,10.80139966,1.205799937,-0.426499993,3.692699909,,,0.853499949,-0.84829998,9.732500076,,539,2.059299886,-1.274799973,13.42519999
1.68301E+18,10.82140283,1.516600013,-0.810099959,3.947899818,,,0.846699953,-0.856899977,9.732299805,,540,2.363299966,-1.666999936,13.68019962
1.68301E+18,10.84140283,1.602100015,-0.756699979,3.898599863,,,0.82979995,-0.871099949,9.732500076,,541,2.431899965,-1.627799928,13.63109994
1.68301E+18,10.86140283,0.924199998,-0.297199994,3.263000011,,,0.82129997,-0.899100006,9.730699539,,542,1.745499969,-1.1963,12.99369955
1.68301E+18,10.88140283,-0.049999997,0.246999994,1.951499939,,,0.824699998,-0.923599958,9.728099823,,543,0.774700001,-0.676599964,11.67959976
1.68301E+18,10.90139966,-0.933099985,0.288399994,0.010799999,,,0.844899952,-0.915999949,9.727099419,,544,-0.088200033,-0.627599955,9.737899418
1.68301E+18,10.92139966,-1.086799979,-0.120699994,-1.824000001,,,0.890599966,-0.859799981,9.728099823,,545,-0.196200013,-0.980499975,7.904099822
1.68301E+18,10.94139966,-0.629499972,-0.823399961,-2.776399851,,,0.953099966,-0.774999976,9.729299545,,546,0.323599994,-1.598399937,6.952899694
1.68301E+18,10.96140137,0.0284,-1.145299911,-2.688099861,,,1.010999918,-0.698199987,9.729299545,,547,1.039399918,-1.843499899,7.041199684
1.68301E+18,10.98140283,0.46419999,-0.95569998,-1.452399969,,,1.03610003,-0.662299991,9.729199409,,548,1.50030002,-1.617999971,8.27679944
1.68301E+18,11.00139966,0.218400002,-0.542599976,0.046699997,,,1.017099977,-0.673299968,9.730400085,,549,1.235499978,-1.215899944,9.777100082
1.68301E+18,11.02139966,-0.212499991,-0.122199997,0.623199999,,,0.977400005,-0.701499999,9.732500076,,550,0.764900014,-0.823699996,10.35570008
1.68301E+18,11.04140283,-0.717299998,-0.032299999,-0.0263,,,0.952699959,-0.703099966,9.734899521,,551,0.235399961,-0.735399965,9.708599521
1.68301E+18,11.06140283,-0.797399998,-0.156299993,-1.018100023,,,0.964100003,-0.667400002,9.736199379,,552,0.166700006,-0.823699996,8.718099356
1.68301E+18,11.08139966,-0.660899997,-0.217099994,-1.585600019,,,1.004099965,-0.626199961,9.734899521,,553,0.343199968,-0.843299955,8.149299502
1.68301E+18,11.10139966,-0.781199992,-0.160300002,-1.926399946,,,1.046000004,-0.594699979,9.732500076,,554,0.264800012,-0.75499998,7.80610013
1.68301E+18,11.12139966,-1.108399987,-0.0071,-2.199899912,,,1.06919992,-0.571399987,9.731399536,,555,-0.039200068,-0.578499987,7.531499624
1.68301E+18,11.14140283,-1.308699965,0.094399996,-2.43569994,,,1.073400021,-0.555299997,9.731800079,,556,-0.235299945,-0.460900001,7.29610014
1.68301E+18,11.16139966,-1.175099969,0.162,-2.593899965,,,1.067299962,-0.544499993,9.733099937,,557,-0.107800007,-0.382499993,7.139199972
1.68301E+18,11.18140137,-0.858299971,0.256799996,-2.291499853,,,1.054399967,-0.541199982,9.734700203,,558,0.196099997,-0.284399986,7.44320035
1.68301E+18,11.20139966,-0.52759999,0.312000006,-1.900699973,,,1.037500024,-0.547299981,9.736199379,,559,0.509900033,-0.235299975,7.835499406
1.68301E+18,11.22139966,-0.334699988,0.360699981,-1.450799942,,,1.021199942,-0.556899965,9.737400055,,560,0.686499953,-0.196199983,8.286600113
1.68301E+18,11.24139966,-0.164800003,0.4384,-1.069100022,,,1.00819993,-0.565899968,9.738200188,,561,0.843399927,-0.127499968,8.669100165
1.68301E+18,11.26139966,-0.192399994,0.385499984,-0.746399999,,,0.996599972,-0.571799994,9.739099503,,562,0.804199979,-0.186300009,8.992699504
1.68301E+18,11.28139966,-0.1558,0.342899978,-0.658999979,,,0.98939997,-0.568499982,9.739999771,,563,0.83359997,-0.225600004,9.080999792
1.68301E+18,11.30139966,-0.176499993,0.271899998,-0.590999961,,,0.990499973,-0.556299984,9.740599632,,564,0.813999981,-0.284399986,9.149599671
1.68301E+18,11.32139966,-0.166299999,0.226099998,-0.581099987,,,0.999799967,-0.539900005,9.740499496,,565,0.833499968,-0.313800007,9.159399509
1.68301E+18,11.34139966,-0.21329999,0.2183,-0.550799966,,,1.017499924,-0.522300005,9.739699364,,566,0.804199934,-0.304000005,9.188899398
1.68301E+18,11.36139966,-0.288800001,0.153999999,-0.313499987,,,1.043900013,-0.507099986,9.737699509,,567,0.755100012,-0.353099987,9.424199522
1.68301E+18,11.38139966,-0.318299979,0.150600001,0.208700001,,,1.073400021,-0.493900001,9.735099792,,568,0.755100042,-0.3433,9.943799794
1.68301E+18,11.40139966,-0.31219998,0.239399999,0.887499988,,,1.096699953,-0.484599978,9.732999802,,569,0.784499973,-0.245199978,10.62049979
1.68301E+18,11.42139966,-0.416199982,0.373899996,1.194299936,,,1.122300029,-0.48179999,9.730199814,,570,0.706100047,-0.107899994,10.92449975
1.68301E+18,11.44139966,-0.436199993,0.41839999,1.549399972,,,1.142199993,-0.477299988,9.728099823,,571,0.706,-0.058899999,11.27749979
1.68301E+18,11.46139966,-0.487599999,0.325100005,1.844299912,,,1.154500008,-0.462399989,9.727399826,,572,0.666900009,-0.137299985,11.57169974
1.68301E+18,11.48139966,-0.311699986,0.131099999,1.805099964,,,1.164899945,-0.435099989,9.727399826,,573,0.853199959,-0.30399999,11.53249979
1.68301E+18,11.50139966,0.372399986,-0.327999979,1.611199975,,,1.19659996,-0.397599995,9.725199699,,574,1.568999946,-0.725599974,11.33639967
1.68301E+18,11.52139966,0.302300006,-0.566900015,1.680400014,,,1.217599988,-0.344999999,9.724599838,,575,1.519899994,-0.911900014,11.40499985
1.68301E+18,11.54139966,-0.181699991,-0.594399989,1.785699964,,,1.211399913,-0.288100004,9.727199554,,576,1.029699922,-0.882499993,11.51289952
1.68301E+18,11.56139966,-0.605799973,-0.445899993,1.762899995,,,1.19419992,-0.250200003,9.730400085,,577,0.588399947,-0.696099997,11.49330008
1.68301E+18,11.58139966,-0.840999961,-0.620199978,1.770799994,,,1.184299946,-0.223099992,9.732299805,,578,0.343299985,-0.84329997,11.5030998
1.68301E+18,11.60139966,-0.579599977,-0.906399965,2.191299915,,,1.17779994,-0.201700002,9.733499527,,579,0.598199964,-1.108099967,11.92479944
1.68301E+18,11.62139966,-0.106399998,-0.999899983,2.670199871,,,1.165499926,-0.196400002,9.735099792,,580,1.059099928,-1.196299985,12.40529966
1.68301E+18,11.64139966,0.333399981,-0.923999965,3.031299829,,,1.147300005,-0.213499993,9.736899376,,581,1.480699986,-1.137499958,12.76819921
1.68301E+18,11.66139966,0.50879997,-0.650099993,2.774799824,,,1.128799915,-0.242199987,9.738399506,,582,1.637599885,-0.89229998,12.51319933
1.68301E+18,11.68139966,0.55430001,-0.247799993,1.373600006,,,1.132399917,-0.271899998,9.737199783,,583,1.686699927,-0.519699991,11.11079979
1.68301E+18,11.70139966,0.384199977,-0.0308,-0.326999992,,,1.174999952,-0.292699993,9.731499672,,584,1.559199929,-0.323499992,9.40449968
1.68301E+18,11.72139966,0.197599992,-0.0078,-1.151600003,,,1.243899941,-0.305899978,9.722599983,,585,1.441499934,-0.313699977,8.57099998
1.68301E+18,11.74139966,-0.083700001,-0.102600001,-1.114400029,,,1.299799919,-0.319000006,9.714799881,,586,1.216099918,-0.421600007,8.600399852
1.68301E+18,11.76139966,-0.68629998,-0.076099999,-0.719699979,,,1.31400001,-0.335599989,9.712399483,,587,0.627700031,-0.411699988,8.992699504
1.68301E+18,11.78139966,-1.164899945,0.072099999,-0.700899959,,,1.302099943,-0.356399983,9.713199615,,588,0.137199998,-0.284299985,9.012299657
1.68301E+18,11.80139966,-1.267499924,0.0986,-1.036999941,,,1.2773,-0.373199999,9.715899467,,589,0.009800076,-0.274599999,8.678899527
1.68301E+18,11.82139966,-0.819999993,-0.019399999,-1.07069993,,,1.241699934,-0.38259998,9.720099449,,590,0.421699941,-0.401999978,8.649399519
1.68301E+18,11.84139966,-0.070099995,-0.182599992,-0.956699967,,,1.207700014,-0.395799994,9.723899841,,591,1.13760002,-0.578399986,8.767199874
1.68301E+18,11.86139966,0.575899959,-0.058499999,-0.684499979,,,1.179399967,-0.421900004,9.726299286,,592,1.755299926,-0.480400003,9.041799307
1.68301E+18,11.88139966,0.756500006,0.083999999,-0.382499993,,,1.145900011,-0.466499984,9.728199959,,593,1.902400017,-0.382499985,9.345699966
1.68301E+18,11.90139966,0.770299971,0.252499998,-0.375099987,,,1.102699995,-0.51730001,9.730699539,,594,1.872999966,-0.264800012,9.355599552
1.68301E+18,11.92139966,0.733900011,0.407799989,-0.563499987,,,1.060599923,-0.564700007,9.732699394,,595,1.794499934,-0.156900018,9.169199407
1.68301E+18,11.94139966,0.635499954,0.610000014,-0.750199974,,,1.031499982,-0.610000014,9.733099937,,596,1.666999936,0,8.982899964
1.68301E+18,11.96139966,0.584399998,0.529799998,-0.776299953,,,1.033599973,-0.657299995,9.729800224,,597,1.617999971,-0.127499998,8.953500271
1.68301E+18,11.98139966,0.60799998,0.430399984,-0.84829998,,,1.068799973,-0.695199966,9.723400116,,598,1.676799953,-0.264799982,8.875100136
1.68301E+18,12.00139966,0.748699963,0.346899986,-1.254400015,,,1.104699969,-0.719500005,9.717599869,,599,1.853399932,-0.372600019,8.463199854
1.68301E+18,12.02139966,0.754999995,0.2227,-1.51669991,,,1.118000031,-0.73269999,9.715099335,,600,1.873000026,-0.50999999,8.198399425
1.68301E+18,12.04139966,0.847599983,0.251899987,-1.555699944,,,1.113600016,-0.742199957,9.714799881,,601,1.961199999,-0.49029997,8.159099936
1.68301E+18,12.06139966,0.903299987,0.287200004,-1.301399946,,,1.097199917,-0.7579,9.715499878,,602,2.000499904,-0.470699996,8.414099932
1.68301E+18,12.08139966,0.867199957,0.383599997,-0.831799984,,,1.074399948,-0.77579999,9.716599464,,603,1.941599905,-0.392199993,8.88479948
1.68301E+18,12.10139966,0.921599984,0.507799983,-0.18599999,,,1.049399972,-0.792199969,9.717999458,,604,1.970999956,-0.284399986,9.531999469
1.68301E+18,12.12140137,0.902999997,0.631299973,0.527899981,,,1.018999934,-0.807799995,9.719999313,,605,1.921999931,-0.176500022,10.24789929
1.68301E+18,12.14139966,0.871899962,0.656799972,1.014799953,,,0.98149997,-0.813699961,9.723400116,,606,1.853399932,-0.156899989,10.73820007
1.68301E+18,12.16139966,0.702299953,0.548500001,1.185899973,,,0.935299993,-0.80339998,9.72879982,,607,1.637599945,-0.254899979,10.91469979
1.68301E+18,12.18140137,0.628300011,0.361799985,0.896699965,,,0.90139997,-0.783399999,9.733599663,,608,1.529699981,-0.421600014,10.63029963
1.68301E+18,12.20139966,0.637299955,0.229299992,0.697799981,,,0.892399967,-0.758899987,9.736399651,,609,1.529699922,-0.529599994,10.43419963
1.68301E+18,12.22140137,0.665499985,0.048099998,0.843199968,,,0.893700004,-0.734600008,9.738100052,,610,1.559199989,-0.686500009,10.58130002
1.68301E+18,12.24139966,0.602699995,0.0207,1.224699974,,,0.897599995,-0.717000008,9.739099503,,611,1.50029999,-0.696300007,10.96379948
1.68301E+18,12.26139966,0.464699984,0.075099997,1.646999955,,,0.908199966,-0.712499976,9.738399506,,612,1.37289995,-0.637399979,11.38539946
1.68301E+18,12.28139966,0.248899996,0.1171,2.079599857,,,0.917999983,-0.715299964,9.737299919,,613,1.166899979,-0.598199964,11.81689978
1.68301E+18,12.30139966,0.256599993,0.094299994,2.727499962,,,0.920099974,-0.721899986,9.736599922,,614,1.176699966,-0.627599992,12.46409988
1.68301E+18,12.32140137,0.57980001,0.047499999,3.562099934,,,0.920599997,-0.733999968,9.735699654,,615,1.500400007,-0.686499968,13.29779959
1.68301E+18,12.34139966,0.881599963,-0.077799998,4.474299908,,,0.912999988,-0.745799959,9.735499382,,616,1.79459995,-0.823599957,14.20979929
1.68301E+18,12.36139966,0.908899963,-0.069399998,5.14989996,,,0.895399988,-0.754199982,9.736499786,,617,1.804299951,-0.823599979,14.88639975
1.68301E+18,12.38139966,0.460500002,0.263399988,4.678800106,,,0.8829,-0.763499975,9.736899376,,618,1.343400002,-0.500099987,14.41569948
1.68301E+18,12.40139966,-0.116899997,0.57099998,3.023499966,,,0.901499987,-0.767199993,9.734899521,,619,0.78459999,-0.196200013,12.75839949
1.68301E+18,12.42139966,-0.717899978,0.726000011,0.897699952,,,0.943399966,-0.745599985,9.732600212,,620,0.225499988,-0.019599974,10.63030016
1.68301E+18,12.44139966,-0.938999951,0.441699982,-0.894999981,,,0.997799993,-0.696699977,9.730799675,,621,0.058800042,-0.254999995,8.835799694
1.68301E+18,12.46139966,-1.00909996,0.037299998,-2.099699974,,,1.058099985,-0.625699997,9.729199409,,622,0.049000025,-0.588399999,7.629499435
1.68301E+18,12.48140137,-0.977899969,-0.239099994,-2.471899986,,,1.105399966,-0.545300007,9.72879982,,623,0.127499998,-0.784400001,7.256899834
1.68301E+18,12.50139966,-0.852899969,-0.344099998,-2.258699894,,,1.117699981,-0.469699979,9.731399536,,624,0.264800012,-0.813799977,7.472699642
1.68301E+18,12.52139966,-0.866299987,-0.464699984,-1.979299903,,,1.101599932,-0.398199975,9.736399651,,625,0.235299945,-0.862899959,7.757099748
1.68301E+18,12.54140137,-0.724299967,-0.666799963,-1.808299899,,,1.077399969,-0.323599994,9.74189949,,626,0.353100002,-0.990399957,7.933599591
1.68301E+18,12.56139966,-0.403299987,-0.84859997,-1.743699908,,,1.060400009,-0.249699995,9.745900154,,627,0.657100022,-1.098299965,8.002200246
1.68301E+18,12.58139966,-0.046299998,-1.005699992,-1.57889998,,,1.056399941,-0.180899993,9.747900009,,628,1.010099944,-1.186599985,8.16900003
1.68301E+18,12.60139966,0.167400002,-1.033299923,-1.432500005,,,1.058399916,-0.123799995,9.74849987,,629,1.225799918,-1.157099918,8.315999866
1.68301E+18,12.62140137,-0.053999998,-1.077399969,-1.36469996,,,1.054299951,-0.079599999,9.749400139,,630,1.000299953,-1.156999968,8.384700179
1.68301E+18,12.64139966,-0.320899993,-0.925999999,-1.503099918,,,1.046599984,-0.0447,9.750499725,,631,0.725699991,-0.970699999,8.247399807
1.68301E+18,12.66139966,-0.4278,-0.791199982,-1.405200005,,,1.045599937,-0.022699999,9.750699997,,632,0.617799938,-0.813899981,8.345499992
1.68301E+18,12.68140137,-0.42749998,-0.617599964,-1.15899992,,,1.055199981,-0.0197,9.749599457,,633,0.627700001,-0.637299964,8.590599537
1.68301E+18,12.70139966,-0.484999985,-0.391799986,-0.941299975,,,1.073400021,-0.0298,9.747599602,,634,0.588400036,-0.421599986,8.806299627
1.68301E+18,12.72139966,-0.613499999,-0.171099991,-0.665399969,,,1.084200025,-0.054399997,9.746299744,,635,0.470700026,-0.225499988,9.080899775
1.68301E+18,12.74139966,-0.675000012,0.027199998,-0.40109998,,,1.077099919,-0.086099997,9.746899605,,636,0.402099907,-0.058899999,9.345799625
1.68301E+18,12.76139966,-0.720499992,0.135999992,-0.275900006,,,1.053900003,-0.116399996,9.749099731,,637,0.333400011,0.019599997,9.473199725
1.68301E+18,12.78139966,-0.62529999,0.242399991,-0.21949999,,,1.027400017,-0.144299999,9.751599312,,638,0.402100027,0.098099992,9.532099321
1.68301E+18,12.80139966,-0.405099988,0.277199984,-0.19219999,,,1.003299952,-0.16929999,9.753699303,,639,0.598199964,0.107899994,9.561499313
1.68301E+18,12.82140137,-0.191599995,0.25059998,-0.213199988,,,0.985899985,-0.191799998,9.755000114,,640,0.79429999,0.058799982,9.541800126
1.68301E+18,12.84140137,-0.162,0.272399992,-0.341199994,,,0.975999951,-0.213599995,9.755599976,,641,0.813999951,0.058799997,9.414399981
1.68301E+18,12.86139966,-0.154100001,0.307699978,-0.51789999,,,0.968099952,-0.239099994,9.755799294,,642,0.813999951,0.068599984,9.237899303
1.68301E+18,12.88139966,-0.206399992,0.266499996,-0.597299993,,,0.951699972,-0.266499996,9.756699562,,643,0.74529998,0,9.159399569
1.68301E+18,12.90139966,-0.231600001,0.297699988,-0.50059998,,,0.927899957,-0.297699988,9.758099556,,644,0.696299955,0,9.257499576
1.68301E+18,12.92139966,-0.28669998,0.445199996,-0.021,,,0.904499948,-0.337300003,9.758999825,,645,0.617799968,0.107899994,9.737999825
1.68301E+18,12.94139966,-0.32099998,0.656199992,0.391099989,,,0.889699996,-0.381699979,9.758699417,,646,0.568700016,0.274500012,10.14979941
1.68301E+18,12.96139966,-0.394299984,0.875699997,0.676800013,,,0.8847,-0.424599975,9.757399559,,647,0.490400016,0.451100022,10.43419957
1.68301E+18,12.98140137,-0.371699989,0.930099964,0.973199964,,,0.89139998,-0.459399998,9.755199432,,648,0.519699991,0.470699966,10.7283994
1.68301E+18,13.00139966,-0.266099989,0.635499954,1.593099952,,,0.903599977,-0.478599995,9.753099442,,649,0.637499988,0.156899959,11.34619939
1.68301E+18,13.02139966,0.047199998,0.136399999,2.751199961,,,0.913699985,-0.479599983,9.752099991,,650,0.960899983,-0.343199983,12.50329995
1.68301E+18,13.04139966,0.2368,-0.0128,3.545199871,,,0.91049999,-0.477499992,9.752599716,,651,1.14729999,-0.490299991,13.29779959
1.68301E+18,13.06139966,0.426499993,-0.033399999,3.957199812,,,0.907099962,-0.486299992,9.752399445,,652,1.333599955,-0.519699991,13.70959926
1.68301E+18,13.08139966,0.56129998,-0.0035,3.674399853,,,0.919399977,-0.496499985,9.750800133,,653,1.480699956,-0.499999985,13.42519999
1.68301E+18,13.10139966,0.651499987,0.0052,2.891499996,,,0.937099993,-0.495499998,9.749099731,,654,1.58859998,-0.490299998,12.64059973
1.68301E+18,13.12140137,0.726499975,0.0517,1.825199962,,,0.969999969,-0.483199984,9.746500015,,655,1.696499944,-0.431499984,11.57169998
1.68301E+18,13.14139966,0.542499959,0.121799998,0.583599985,,,1.016600013,-0.46509999,9.742699623,,656,1.559099972,-0.343299992,10.32629961
1.68301E+18,13.16139966,0.228199989,0.029899999,-0.283800006,,,1.075999975,-0.441799998,9.737400055,,657,1.304199964,-0.411899999,9.453600049
1.68301E+18,13.18140137,-0.0154,-0.181500003,-0.74909997,,,1.133399963,-0.416599989,9.731999397,,658,1.117999963,-0.598099992,8.982899427
1.68301E+18,13.20139966,-0.153599992,-0.213199988,-0.645999968,,,1.183300018,-0.394699991,9.726900101,,659,1.029700026,-0.607899979,9.080900133
1.68301E+18,13.22139966,-0.2465,-0.085299999,-0.191,,,1.217399955,-0.385299981,9.723099709,,660,0.970899954,-0.470599979,9.532099709
1.68301E+18,13.24139966,-0.23089999,-0.0012,0.0066,,,1.23119998,-0.381199986,9.721499443,,661,1.00029999,-0.382399986,9.728099443
1.68301E+18,13.26140283,-0.183499992,-0.162900001,0.005,,,1.223099947,-0.36649999,9.723099709,,662,1.039599955,-0.529399991,9.728099708
1.68301E+18,13.28139966,0.134800002,-0.447699994,-0.233199999,,,1.208699942,-0.336799979,9.725999832,,663,1.343499944,-0.784499973,9.492799833
1.68301E+18,13.30139966,0.374199986,-0.510800004,-0.628199995,,,1.194800019,-0.303000003,9.72879982,,664,1.569000006,-0.813800007,9.100599825
1.68301E+18,13.32140137,0.45539999,-0.551999986,-0.897799969,,,1.162599921,-0.271699995,9.733599663,,665,1.617999911,-0.823699981,8.835799694
1.68301E+18,13.34140137,0.446399987,-0.565899968,-1.256199956,,,1.122499943,-0.247899994,9.738999367,,666,1.56889993,-0.813799962,8.482799411
1.68301E+18,13.36139966,0.555799961,-0.593400002,-1.603399992,,,1.091599941,-0.230199993,9.742899895,,667,1.647399902,-0.823599994,8.139499903
1.68301E+18,13.38139966,0.714699984,-0.552299976,-1.753099918,,,1.069999933,-0.222299993,9.745499611,,668,1.784699917,-0.774599969,7.992399693
1.68301E+18,13.40140137,0.766299963,-0.472199976,-1.745599985,,,1.047899961,-0.223999992,9.747900009,,669,1.814199924,-0.696199968,8.002300024
1.68301E+18,13.42139966,0.597799957,-0.376699984,-1.640499949,,,1.020200014,-0.231199995,9.750599861,,670,1.617999971,-0.607899979,8.110099912
1.68301E+18,13.44139966,0.347000003,-0.387899995,-1.487900019,,,0.976799965,-0.239599988,9.754899979,,671,1.323799968,-0.627499983,8.26699996
1.68301E+18,13.46139966,0.317699999,-0.369399995,-1.169799924,,,0.91779995,-0.248300001,9.760399818,,672,1.235499948,-0.617699996,8.590599895
1.68301E+18,13.48140137,0.368099988,-0.401799977,-0.929899991,,,0.857599974,-0.255199999,9.765699387,,673,1.225699961,-0.656999975,8.835799396
1.68301E+18,13.50139966,0.497099996,-0.419999987,-0.65929997,,,0.807099998,-0.266299993,9.76970005,,674,1.304199994,-0.68629998,9.110400081
1.68301E+18,13.52139966,0.771200001,-0.353699982,-0.464999974,,,0.778099954,-0.283600003,9.77159977,,675,1.549299955,-0.637299985,9.306599796
1.68301E+18,13.54140137,1.012799978,-0.2245,-0.484499991,,,0.771999955,-0.305000007,9.771399498,,676,1.784799933,-0.529500008,9.286899507
1.68301E+18,13.56139966,1.059899926,-0.230799988,-0.463200003,,,0.783599973,-0.328099996,9.76970005,,677,1.843499899,-0.558899984,9.306500047
1.68301E+18,13.58140137,0.854599953,-0.176799998,-0.205799997,,,0.802599967,-0.352699995,9.767299652,,678,1.657199919,-0.529499993,9.561499655
1.68301E+18,13.60139966,0.714599967,-0.013499999,0.081299998,,,0.824999988,-0.378699988,9.764499664,,679,1.539599955,-0.392199988,9.845799662
1.68301E+18,13.62140137,0.633300006,0.139899999,0.329400003,,,0.84739995,-0.404599994,9.761499405,,680,1.480699956,-0.264699996,10.09089941
1.68301E+18,13.64139966,0.596199989,0.248599991,0.391499996,,,0.87469995,-0.425199986,9.758299828,,681,1.47089994,-0.176599994,10.14979982
1.68301E+18,13.66139966,0.568300009,0.220699996,0.511399984,,,0.892799973,-0.436399996,9.756099701,,682,1.461099982,-0.215700001,10.26749969
1.68301E+18,13.68140137,0.535299957,0.225599989,1.011999965,,,0.896399975,-0.441299975,9.755599976,,683,1.431699932,-0.215699986,10.76759994
1.68301E+18,13.70139966,0.45569998,0.308899999,1.619499922,,,0.887699962,-0.446199983,9.756099701,,684,1.343399942,-0.137299985,11.37559962
1.68301E+18,13.72139966,0.381399989,0.453099996,2.295199871,,,0.87379998,-0.453099996,9.757100105,,685,1.255199969,0,12.05229998
1.68301E+18,13.74139966,0.265199989,0.583299994,2.891700029,,,0.852699995,-0.455799997,9.758799553,,686,1.117899984,0.127499998,12.65049958
1.68301E+18,13.76139966,0.232999995,0.336699992,3.673399925,,,0.825999975,-0.444499999,9.761599541,,687,1.058999971,-0.107800007,13.43499947
1.68301E+18,13.78139966,0.395899981,0.0127,4.208499908,,,0.790600002,-0.414799988,9.765899658,,688,1.186499983,-0.402099988,13.97439957
1.68301E+18,13.80139966,0.791499972,-0.271999985,3.880699873,,,0.7579,-0.375200003,9.77009964,,689,1.549399972,-0.647199988,13.65079951
1.68301E+18,13.82139966,0.877900004,-0.443899989,2.897799969,,,0.749899983,-0.330799997,9.772299767,,690,1.627799988,-0.774699986,12.67009974
1.68301E+18,13.84140137,0.568300009,-0.430399984,1.691399932,,,0.765299976,-0.285400003,9.772500038,,691,1.333599985,-0.715799987,11.46389997
1.68301E+18,13.86139966,0.164399996,-0.361099988,0.506200016,,,0.796599984,-0.246799991,9.771100044,,692,0.960999981,-0.607899979,10.27730006
1.68301E+18,13.88139966,-0.2289,-0.297299981,-0.678599954,,,0.827099979,-0.212499991,9.769299507,,693,0.598199978,-0.509799972,9.090699553
1.68301E+18,13.90139966,-0.386399984,-0.429199994,-1.216899991,,,0.847299993,-0.1787,9.768300056,,694,0.460900009,-0.607899994,8.551400065
1.68301E+18,13.92139966,-0.141499996,-0.498399973,-1.187099934,,,0.8574,-0.148800001,9.767899513,,695,0.715900004,-0.647199973,8.58079958
1.68301E+18,13.94139966,0.103499994,-0.471399993,-0.873600006,,,0.8574,-0.126699999,9.768199921,,696,0.960899994,-0.598099992,8.894599915
1.68301E+18,13.96139966,0.0185,-0.364499986,-0.609200001,,,0.854200006,-0.115899995,9.76859951,,697,0.872700006,-0.480399981,9.159399509
1.68301E+18,13.98140137,-0.385499984,-0.313899994,-0.56099999,,,0.846399963,-0.107699998,9.769399643,,698,0.460899979,-0.421599992,9.208399653
1.68301E+18,14.00139966,-0.687699974,-0.379199982,-0.640599966,,,0.834800005,-0.091399997,9.770599365,,699,0.147100031,-0.470599979,9.129999399
1.68301E+18,14.02139966,-0.629399955,-0.449000001,-0.602299988,,,0.825499952,-0.070699997,9.771499634,,700,0.196099997,-0.519699998,9.169199646
1.68301E+18,14.04140137,-0.462399989,-0.467299998,-0.494599998,,,0.825199962,-0.0524,9.771699905,,701,0.362799972,-0.519699998,9.277099907
1.68301E+18,14.06139966,-0.429899991,-0.409500003,-0.465499997,,,0.8222,-0.041499998,9.771999359,,702,0.39230001,-0.451000001,9.306499362
1.68301E+18,14.08139966,-0.443499982,-0.246799991,-0.701299965,,,0.816199958,-0.037499998,9.772500038,,703,0.372699976,-0.284299988,9.071200073
1.68301E+18,14.10139966,-0.455599993,-0.120399997,-0.966799974,,,0.808699965,-0.036399998,9.773099899,,704,0.353099972,-0.156799994,8.806299925
1.68301E+18,14.12140137,-0.473699987,-0.0832,-1.437600017,,,0.807199955,-0.034299999,9.773300171,,705,0.333499968,-0.1175,8.335700154
1.68301E+18,14.14139966,-0.599299967,-0.133000001,-1.623299956,,,0.814999998,-0.033599999,9.772600174,,706,0.21570003,-0.1666,8.149300218
1.68301E+18,14.16139966,-0.740799963,-0.0517,-1.867299914,,,0.828999996,-0.036499999,9.771399498,,707,0.088200033,-0.088199999,7.904099584
1.68301E+18,14.18140137,-0.796099961,-0.0095,-1.806999922,,,0.845099986,-0.049199998,9.769999504,,708,0.049000025,-0.058699998,7.962999582
1.68301E+18,14.20139966,-0.780699968,0.071099997,-1.541700006,,,0.849299967,-0.071099997,9.769499779,,709,0.068599999,0,8.227799773
1.68301E+18,14.22139966,-0.608699977,0.0902,-1.277099967,,,0.844099998,-0.099999994,9.76970005,,710,0.235400021,-0.009799995,8.492600083
1.68301E+18,14.24139966,-0.400999993,0.092199996,-1.013000011,,,0.832499981,-0.131499991,9.770299911,,711,0.431499988,-0.039299995,8.7572999
1.68301E+18,14.26139966,-0.162900001,0.095699996,-0.867299974,,,0.810099959,-0.164399996,9.771699905,,712,0.647199959,-0.068700001,8.904399931
1.68301E+18,14.28139966,0.116999999,0.023399999,-0.829400003,,,0.785099983,-0.199900001,9.773099899,,713,0.902099982,-0.176500002,8.943699896
1.68301E+18,14.30139966,0.254000008,0.060399998,-0.526899993,,,0.755899966,-0.236899987,9.774499893,,714,1.009899974,-0.176499989,9.2475999
1.68301E+18,14.32140137,0.22739999,0.123299994,-0.145699993,,,0.723699987,-0.280200005,9.775799751,,715,0.951099977,-0.156900011,9.630099759
1.68301E+18,14.34139966,0.047799997,0.290299982,0.206900001,,,0.697399974,-0.329600006,9.776199341,,716,0.745199971,-0.039300025,9.983099341
1.68301E+18,14.36139966,-0.233899996,0.516499996,0.345099986,,,0.685000002,-0.379199982,9.775300026,,717,0.451100007,0.137300014,10.12040001
1.68301E+18,14.38139966,-0.523599982,0.765599966,0.366099983,,,0.680499971,-0.422399998,9.773799896,,718,0.156899989,0.343199968,10.13989988
1.68301E+18,14.40139966,-0.58069998,0.887699962,0.44599998,,,0.678799987,-0.456199974,9.772399902,,719,0.098100007,0.431499988,10.21839988
1.68301E+18,14.42139966,-0.459299982,0.9005,0.692699969,,,0.684899986,-0.478799999,9.770899773,,720,0.225600004,0.421700001,10.46359974
1.68301E+18,14.44139966,-0.25999999,0.922999978,0.91929996,,,0.691500008,-0.49149999,9.769800186,,721,0.431500018,0.431499988,10.68910015
1.68301E+18,14.46139966,-0.070299998,0.990499973,0.949599981,,,0.697899997,-0.500199974,9.768899918,,722,0.627599999,0.4903,10.7184999
1.68301E+18,14.48140137,0.104899995,0.984799981,0.970299959,,,0.708999991,-0.504299998,9.767899513,,723,0.813899986,0.480499983,10.73819947
1.68301E+18,14.50139966,0.286199987,0.58859998,1.196699977,,,0.723800004,-0.50029999,9.767000198,,724,1.00999999,0.08829999,10.96370018
1.68301E+18,14.52139966,0.375200003,0.343299985,1.461599946,,,0.732800007,-0.490399987,9.766900063,,725,1.10800001,-0.147100002,11.22850001
1.68301E+18,14.54140137,0.482199997,0.369899988,1.688399911,,,0.743499994,-0.497399986,9.765699387,,726,1.225699991,-0.127499998,11.4540993
1.68301E+18,14.56139966,0.42929998,0.288599998,1.945799947,,,0.757200003,-0.523899972,9.763299942,,727,1.186499983,-0.235299975,11.70909989
1.68301E+18,14.58139966,0.497199982,0.064800002,2.644599915,,,0.767799973,-0.555099964,9.760700226,,728,1.264999956,-0.490299962,12.40530014
1.68301E+18,14.60139966,0.768700004,-0.031799998,3.68599987,,,0.760999978,-0.595699966,9.758899689,,729,1.529699981,-0.627499964,13.44489956
1.68301E+18,14.62140137,0.932399988,0.328399986,4.345299721,,,0.744399965,-0.65200001,9.75649929,,730,1.676799953,-0.323600024,14.10179901
1.68301E+18,14.64139966,0.873699963,0.831299961,3.702399969,,,0.744300008,-0.71359998,9.752200127,,731,1.617999971,0.117699981,13.4546001
1.68301E+18,14.66139966,0.687900007,1.203999996,1.98239994,,,0.782999992,-0.752900004,9.746199608,,732,1.470899999,0.451099992,11.72859955
1.68301E+18,14.68140137,0.68900001,1.003099918,0.213599995,,,0.860300004,-0.748099983,9.740099907,,733,1.549300015,0.254999936,9.953699902
1.68301E+18,14.70139966,0.591499984,0.431799978,-0.525699973,,,0.957899988,-0.706299961,9.734099388,,734,1.549399972,-0.274499983,9.208399415
1.68301E+18,14.72139966,0.197099999,-0.127099991,-0.746999979,,,1.038399935,-0.647499979,9.729899406,,735,1.235499933,-0.774599969,8.982899427
1.68301E+18,14.74139966,-0.41079998,-0.497799993,-0.823799968,,,1.087499976,-0.590600014,9.728199959,,736,0.676699996,-1.088400006,8.904399991
1.68301E+18,14.76139966,-0.932699978,-0.515799999,-0.608900011,,,1.099399924,-0.552999973,9.729100227,,737,0.166699946,-1.068799973,9.120200217
1.68301E+18,14.78139966,-0.956799984,-0.322699994,-0.347599983,,,1.074499965,-0.540199995,9.732600212,,738,0.117699981,-0.862899989,9.385000229
1.68301E+18,14.80139966,-0.45629999,-0.198899999,-0.478499979,,,1.044700027,-0.536499977,9.736000061,,739,0.588400036,-0.735399976,9.257500082
1.68301E+18,14.82140137,0.2148,-0.184900001,-0.824599981,,,1.020799994,-0.530799985,9.738900185,,740,1.235599995,-0.715699986,8.914300203
1.68301E+18,14.84140137,0.743999958,-0.224399999,-1.160599947,,,1.00150001,-0.520799994,9.741399765,,741,1.745499969,-0.745199993,8.580799818
1.68301E+18,14.86139966,0.986099958,-0.263399988,-1.358899951,,,0.984899998,-0.511200011,9.743599892,,742,1.970999956,-0.774599999,8.384699941
1.68301E+18,14.88139966,0.885199964,-0.278999984,-1.527599931,,,0.968199968,-0.505499959,9.745599747,,743,1.853399932,-0.784499943,8.217999816
1.68301E+18,14.90139966,0.613499999,-0.234999999,-1.784099936,,,0.95539999,-0.500400007,9.747099876,,744,1.568899989,-0.735400006,7.96299994
1.68301E+18,14.92139966,0.384900004,-0.198899999,-1.981099963,,,0.948699951,-0.497299999,9.747900009,,745,1.333599955,-0.696199998,7.766800046
1.68301E+18,14.94139966,0.220100001,-0.214699998,-2.050199986,,,0.946799994,-0.491299987,9.748399734,,746,1.166899994,-0.705999985,7.698199749
1.68301E+18,14.96139966,0.179199994,-0.292600006,-2.040699959,,,0.948499978,-0.481999993,9.748700142,,747,1.127699971,-0.774599999,7.708000183
1.68301E+18,14.98140137,0.218400002,-0.282000005,-1.835199952,,,0.948499978,-0.47299999,9.749099731,,748,1.166899979,-0.754999995,7.913899779
1.68301E+18,15.00139966,0.379899979,-0.236999989,-1.649500012,,,0.943899989,-0.468899995,9.749799728,,749,1.323799968,-0.705899984,8.100299716
1.68301E+18,15.02139966,0.604900002,-0.139899999,-1.16989994,,,0.934599996,-0.467999995,9.750699997,,750,1.539499998,-0.607899994,8.580800056
1.68301E+18,15.04140137,0.665600002,-0.077799998,-0.602999985,,,0.913100004,-0.471299976,9.752599716,,751,1.578700006,-0.549099974,9.149599731
1.68301E+18,15.06139966,0.636399984,0.036699999,-0.251499981,,,0.893299997,-0.477999985,9.754099846,,752,1.529699981,-0.441299986,9.502599865
1.68301E+18,15.08139966,0.736299992,0.348499984,0.179199994,,,0.881699979,-0.485799998,9.754799843,,753,1.617999971,-0.137300014,9.933999836
1.68301E+18,15.10139966,0.953699946,0.620299995,0.767499983,,,0.870199978,-0.502600014,9.755000114,,754,1.823899925,0.117699981,10.5225001
1.68301E+18,15.12139966,0.970200002,0.772300005,1.100199938,,,0.853799999,-0.517399967,9.755599976,,755,1.824000001,0.254900038,10.85579991
1.68301E+18,15.14139966,1.001899958,0.81099999,1.010900021,,,0.841600001,-0.516799986,9.756699562,,756,1.843499959,0.294200003,10.76759958
1.68301E+18,15.16139966,1.03339994,0.792199969,0.883599997,,,0.849399984,-0.5079,9.75649929,,757,1.882799923,0.28429997,10.64009929
1.68301E+18,15.18140137,1.038900018,0.803200006,0.993099988,,,0.873299956,-0.499199986,9.754899979,,758,1.912199974,0.30400002,10.74799997
1.68301E+18,15.20139966,0.969699979,0.8222,1.476300001,,,0.903199971,-0.498599976,9.752200127,,759,1.87289995,0.323600024,11.22850013
1.68301E+18,15.22139966,0.633899987,0.807999969,2.536900043,,,0.915499985,-0.504000008,9.750699997,,760,1.549399972,0.30399996,12.28760004
1.68301E+18,15.24139966,0.2958,0.753600001,3.722800016,,,0.9005,-0.518299997,9.751399994,,761,1.1963,0.235300004,13.47420001
1.68301E+18,15.26139966,0.365699977,0.536000013,4.673099995,,,0.879599988,-0.536000013,9.752299309,,762,1.245299965,0,14.4253993
1.68301E+18,15.28139966,0.64139998,0.212399989,5.181799889,,,0.858899951,-0.545799971,9.753600121,,763,1.500299931,-0.333399981,14.93540001
1.68301E+18,15.30139966,0.932899952,-0.053599998,5.27889967,,,0.842000008,-0.55430001,9.754599571,,764,1.77489996,-0.607900009,15.03349924
1.68301E+18,15.32140137,1.006299973,0,4.797899723,,,0.827399969,-0.568599999,9.755099297,,765,1.833699942,-0.568599999,14.55299902
1.68301E+18,15.34140137,0.691799998,0.215599999,3.64109993,,,0.818300009,-0.588199973,9.754699707,,766,1.510100007,-0.372599974,13.39579964
1.68301E+18,15.36139966,0.0537,0.438699991,1.807799935,,,0.819000006,-0.595600009,9.754199982,,767,0.872700006,-0.156900018,11.56199992
1.68301E+18,15.38139966,-0.424099982,0.584800005,-0.525299966,,,0.835999966,-0.584800005,9.753399849,,768,0.411899984,0,9.228099883
1.68301E+18,15.40139966,-0.732599974,0.108399995,-2.534800053,,,0.869899988,-0.549699962,9.75249958,,769,0.137300014,-0.441299967,7.217699528
1.68301E+18,15.42139966,-0.251499981,-0.32189998,-3.279599905,,,0.908599973,-0.491999984,9.751999855,,770,0.657099992,-0.813899964,6.47239995
1.68301E+18,15.44139966,0.080899999,-0.468099982,-2.790599823,,,0.91929996,-0.443800002,9.753299713,,771,1.000199959,-0.911899984,6.96269989
1.68301E+18,15.46139966,0.145899996,-0.303499997,-1.821799994,,,0.903299987,-0.431899995,9.755299568,,772,1.049199983,-0.735399991,7.933499575
1.68301E+18,15.48140137,-0.095699996,-0.022799999,-1.129099965,,,0.860599995,-0.437999994,9.758899689,,773,0.764899999,-0.460799992,8.629799724
1.68301E+18,15.50139966,-0.0592,0.035099998,-0.594500005,,,0.804499984,-0.437099993,9.763799667,,774,0.745299984,-0.401999995,9.169299662
1.68301E+18,15.52139966,0.260399997,0.0078,-0.403499991,,,0.749599993,-0.419699997,9.768899918,,775,1.00999999,-0.411899997,9.365399927
1.68301E+18,15.54140137,0.680299997,-0.105099998,-0.495299995,,,0.722000003,-0.385099977,9.772399902,,776,1.4023,-0.490199976,9.277099907
1.68301E+18,15.56140283,1.025699973,-0.074699998,-0.780599952,,,0.729599953,-0.346799999,9.773300171,,777,1.755299926,-0.421499997,8.992700219
1.68301E+18,15.58139966,1.081799984,0.077399999,-1.083999991,,,0.751899958,-0.312700003,9.772699356,,778,1.833699942,-0.235300004,8.688699365
1.68301E+18,15.60139966,0.990699947,0.2949,-1.269400001,,,0.774399996,-0.285099983,9.771800041,,779,1.765099943,0.009800017,8.502400041
1.68301E+18,15.62140137,0.62650001,0.4463,-1.573300004,,,0.785600007,-0.25999999,9.77159977,,780,1.412100017,0.186300009,8.198299766
1.68301E+18,15.64139966,0.181799993,0.527700007,-2.044399977,,,0.788899958,-0.233499989,9.771999359,,781,0.970699951,0.294200018,7.727599382
1.68301E+18,15.66139966,-0.083999999,0.591199994,-2.388099909,,,0.790099978,-0.208700001,9.772500038,,782,0.70609998,0.382499993,7.384400129
1.68301E+18,15.68140137,-0.190799996,0.639199972,-2.555299997,,,0.788999975,-0.188099995,9.772999763,,783,0.598199978,0.451099977,7.217699766
1.68301E+18,15.70139966,-0.273200005,0.65169996,-2.614899874,,,0.783100009,-0.171199992,9.773799896,,784,0.509900004,0.480499968,7.158900023
1.68301E+18,15.72139966,-0.288699985,0.680000007,-2.351399899,,,0.769299984,-0.160300002,9.775099754,,785,0.480599999,0.519700006,7.423699856
1.68301E+18,15.74139966,-0.204799995,0.645199955,-1.980799913,,,0.744199991,-0.154799998,9.777099609,,786,0.539399996,0.490399957,7.796299696
1.68301E+18,15.76139966,0.076899998,0.612399995,-1.463799953,,,0.707499981,-0.151500002,9.779899597,,787,0.784399979,0.460899994,8.316099644
1.68301E+18,15.78139966,0.53579998,0.553799987,-0.898299992,,,0.66049999,-0.15169999,9.783100128,,788,1.19629997,0.402099997,8.884800136
1.68301E+18,15.80139966,0.977099955,0.378299981,-0.371899992,,,0.611499965,-0.152799994,9.786299706,,789,1.58859992,0.225499988,9.414399713
1.68301E+18,15.82140137,1.288999915,0.271999985,-0.051099997,,,0.564300001,-0.154299989,9.789099693,,790,1.853299916,0.117699996,9.737999696
1.68301E+18,15.84139966,1.280699968,0.1875,0.172099993,,,0.523599982,-0.158099994,9.79129982,,791,1.804299951,0.029400006,9.963399813
1.68301E+18,15.86139966,1.236799955,0.116399996,0.1611,,,0.498899996,-0.1655,9.792499542,,792,1.735699952,-0.049100004,9.953599542
1.68301E+18,15.88139966,1.155200005,0.255699992,-0.133599997,,,0.4824,-0.17719999,9.793099403,,793,1.637600005,0.078500003,9.659499407
1.68301E+18,15.90139966,1.093199968,0.591399968,-0.378600001,,,0.475799978,-0.199099988,9.793000221,,794,1.568999946,0.39229998,9.41440022
1.68301E+18,15.92139966,0.75,0.915199995,-0.53490001,,,0.475699991,-0.228699997,9.792399406,,795,1.225699991,0.686499998,9.257499397
1.68301E+18,15.94139966,0.466099977,1.060199976,-0.955499947,,,0.484999985,-0.256099999,9.791199684,,796,0.951099962,0.804099977,8.835699737
1.68301E+18,15.96139966,0.451700002,1.011199951,-1.316499949,,,0.509299994,-0.275700003,9.789499283,,797,0.960999995,0.735499948,8.472999334
1.68301E+18,15.98139966,0.740999997,0.821099997,-1.451499939,,,0.543599963,-0.291500002,9.787199974,,798,1.28459996,0.529599994,8.335700035
1.68301E+18,16.00139966,0.871899962,0.558399975,-1.076099992,,,0.579400003,-0.313299984,9.784500122,,799,1.451299965,0.245099992,8.70840013
1.68301E+18,16.02139966,0.880999982,0.291399986,0.142299995,,,0.599699974,-0.350199997,9.781999588,,800,1.480699956,-0.058800012,9.924299583
1.68301E+18,16.04140137,0.589599967,0.545399964,1.418599963,,,0.587099969,-0.408099979,9.780499458,,801,1.176699936,0.137299985,11.19909942
1.68301E+18,16.06139966,0.399699986,0.867799997,1.999199986,,,0.561199963,-0.485299975,9.778499603,,802,0.960899949,0.382500023,11.77769959
1.68301E+18,16.08139966,0.680799961,0.694499969,2.295799971,,,0.5449,-0.547399998,9.776100159,,803,1.225699961,0.147099972,12.07190013
1.68301E+18,16.10139966,1.144699931,0.407899976,2.543499947,,,0.551699996,-0.584500015,9.773599625,,804,1.696399927,-0.176600039,12.31709957
1.68301E+18,16.12140137,1.537799954,0.309100002,2.252699852,,,0.58039999,-0.613099992,9.770199776,,805,2.118199944,-0.30399999,12.02289963
1.68301E+18,16.14139966,1.465899944,0.101599999,2.159600019,,,0.632600009,-0.640999973,9.765199661,,806,2.098499954,-0.539399974,11.92479968
1.68301E+18,16.16139966,1.184199929,-0.221299991,2.418400049,,,0.669099987,-0.661199987,9.761400223,,807,1.853299916,-0.882499978,12.17980027
1.68301E+18,16.18140137,1.125100017,-0.4921,2.695299864,,,0.68900001,-0.674799979,9.75909996,,808,1.814100027,-1.166899979,12.45439982
1.68301E+18,16.20139966,0.921700001,-0.590499997,2.608899832,,,0.706099987,-0.684300005,9.757199287,,809,1.627799988,-1.274800003,12.36609912
1.68301E+18,16.22139966,0.729399979,-0.634000003,1.56190002,,,0.731700003,-0.689799964,9.754899979,,810,1.461099982,-1.323799968,11.3168
1.68301E+18,16.24139966,0.634499967,-0.634599984,0.211300001,,,0.767799973,-0.689199984,9.752200127,,811,1.402299941,-1.323799968,9.963500127
1.68301E+18,16.26139966,0.747199953,-0.742899954,-0.972499967,,,0.80219996,-0.688799977,9.749400139,,812,1.549399912,-1.431699932,8.776900172
1.68301E+18,16.28139966,0.880799949,-0.935899973,-1.705799937,,,0.825499952,-0.691899955,9.747300148,,813,1.706299901,-1.627799928,8.041500211
1.68301E+18,16.30139966,0.966399968,-0.992999971,-1.821699977,,,0.828199983,-0.71329999,9.745499611,,814,1.79459995,-1.706299961,7.923799634
1.68301E+18,16.32139966,0.845599949,-0.847899973,-1.565400004,,,0.801799953,-0.760299981,9.744099617,,815,1.647399902,-1.608199954,8.178699613
1.68301E+18,16.34139966,0.862299979,-0.536199987,-1.063499928,,,0.755699992,-0.826799989,9.742400169,,816,1.617999971,-1.362999976,8.678900242
1.68301E+18,16.36139966,0.907499969,-0.2958,-0.551199973,,,0.700699985,-0.9005,9.739999771,,817,1.608199954,-1.1963,9.188799798
1.68301E+18,16.38139966,1.078099966,-0.105599999,-0.479199976,,,0.647799969,-0.97299999,9.736700058,,818,1.725899935,-1.078599989,9.257500082
1.68301E+18,16.40139966,1.341499925,-0.052999999,-0.465399981,,,0.609899998,-1.035400033,9.732699394,,819,1.951399922,-1.088400032,9.267299414
1.68301E+18,16.42139966,1.55189991,-0.136500001,-0.264899999,,,0.585900009,-1.089299917,9.728300095,,820,2.137799919,-1.225799918,9.463400096
1.68301E+18,16.44139966,1.568199992,-0.219399989,-0.073799998,,,0.559700012,-1.143599987,9.723599434,,821,2.127900004,-1.362999976,9.649799436
1.68301E+18,16.46139966,1.378600001,-0.2597,-0.148499995,,,0.523699999,-1.191599965,9.719799995,,822,1.9023,-1.451299965,9.5713
1.68301E+18,16.48139966,1.3477,-0.094599999,-0.262299985,,,0.486000001,-1.238999963,9.715899467,,823,1.833700001,-1.333599962,9.453599483
1.68301E+18,16.50139966,1.80309999,0.063999996,-0.0317,,,0.452299982,-1.289799929,9.710899353,,824,2.255399972,-1.225799933,9.679199353
1.68301E+18,16.52139966,2.376600027,0.29339999,0.120899998,,,0.418199986,-1.342700005,9.705200195,,825,2.794800013,-1.049300015,9.826100193
1.68301E+18,16.54139966,2.656299829,0.421299994,0.0088,,,0.383599997,-1.392199993,9.699699402,,826,3.039899826,-0.970899999,9.708499402
1.68301E+18,16.56139966,2.636199951,0.559499979,-0.123599999,,,0.354699999,-1.432299972,9.694899559,,827,2.99089995,-0.872799993,9.57129956
1.68301E+18,16.58139966,2.430199862,0.629599988,-0.1884,,,0.335199982,-1.463099957,9.690999985,,828,2.765399843,-0.833499968,9.502599984
1.68301E+18,16.60139966,2.270099878,0.609399974,-0.21509999,,,0.328599989,-1.48210001,9.688399315,,829,2.598699868,-0.872700036,9.473299325
1.68301E+18,16.62139966,2.249500036,0.605499983,-0.263199985,,,0.32949999,-1.488099933,9.687399864,,830,2.579000026,-0.88259995,9.424199879
1.68301E+18,16.64139966,2.201599836,0.862399995,-0.223699987,,,0.328399986,-1.490099907,9.687199593,,831,2.529999822,-0.627699912,9.463499606
1.68301E+18,16.66139966,2.054199934,1.218500018,0.012,,,0.328700006,-1.493099928,9.686699867,,832,2.38289994,-0.27459991,9.698699867
1.68301E+18,16.68139966,1.86469996,1.446200013,0.059899997,,,0.331900001,-1.485399961,9.687799454,,833,2.19659996,-0.039199948,9.747699451
1.68301E+18,16.70139966,1.793799996,1.457199931,0.1149,,,0.343999982,-1.457199931,9.691599846,,834,2.137799978,0,9.806499846
1.68301E+18,16.72139966,1.709299922,1.318499923,0.215899989,,,0.359799981,-1.406700015,9.69849968,,835,2.069099903,-0.088200092,9.914399669
1.68301E+18,16.74139966,1.603399992,1.084599972,0.167899996,,,0.377399981,-1.33949995,9.707300186,,836,1.980799973,-0.254899979,9.875200182
1.68301E+18,16.76139966,1.482299924,0.810899973,0.1972,,,0.390699983,-1.261999965,9.717199326,,837,1.872999907,-0.451099992,9.914399326
1.68301E+18,16.78139966,1.519299984,0.455499977,0.207199991,,,0.402699977,-1.181200027,9.726900101,,838,1.921999961,-0.725700051,9.934100091
1.68301E+18,16.80139966,1.678200006,0.159899995,0.354999989,,,0.41049999,-1.101400018,9.735899925,,839,2.088699996,-0.941500023,10.09089991
1.68301E+18,16.82139966,1.789599895,-0.026099999,0.494899988,,,0.416799992,-1.032899976,9.743100166,,840,2.206399888,-1.058999974,10.23800015
1.68301E+18,16.84139966,1.802999973,-0.107899994,0.666299999,,,0.422999978,-0.980499983,9.748299599,,841,2.225999951,-1.088399976,10.4145996
1.68301E+18,16.86139966,1.623999953,-0.369899988,0.9472,,,0.425499976,-0.944099963,9.751799583,,842,2.049499929,-1.313999951,10.69899958
1.68301E+18,16.88139966,1.525200009,-0.501800001,1.503899932,,,0.426200002,-0.919999957,9.75399971,,843,1.951400012,-1.421799958,11.25789964
1.68301E+18,16.90139966,1.753600001,-0.389399976,2.406399965,,,0.423299998,-0.924600005,9.753699303,,844,2.176899999,-1.313999981,12.16009927
1.68301E+18,16.92139966,1.890100002,0.032499999,2.850199938,,,0.414399981,-0.954299986,9.751299858,,845,2.304499984,-0.921799988,12.6014998
1.68301E+18,16.94139966,1.694499969,0.706399977,2.019799948,,,0.403999984,-0.990799963,9.748000145,,846,2.098499954,-0.284399986,11.76780009
1.68301E+18,16.96139966,1.242699981,1.212499976,-0.252700001,,,0.424299985,-1.006500006,9.745599747,,847,1.666999966,0.20599997,9.492899746
1.68301E+18,16.98139966,0.962199986,0.801199973,-1.939399958,,,0.489099979,-0.977799952,9.745499611,,848,1.451299965,-0.176599979,7.806099653
1.68301E+18,17.00139966,0.944099963,-0.188500002,-1.57949996,,,0.556199968,-0.909799993,9.748399734,,849,1.500299931,-1.098299995,8.168899775
1.68301E+18,17.02139966,1.034199953,-0.994599998,-0.349399984,,,0.583799958,-0.829400003,9.75399971,,850,1.617999911,-1.824000001,9.404599726
1.68301E+18,17.04139966,1.063699961,-1.349399924,0.635399997,,,0.573899984,-0.768700004,9.759599686,,851,1.637599945,-2.118099928,10.39499968
1.68301E+18,17.06139966,1.216300011,-1.404399991,0.905799985,,,0.548799992,-0.733399987,9.763699532,,852,1.765100002,-2.137799978,10.66949952
1.68301E+18,17.08139966,1.81219995,-1.350000024,0.550000012,,,0.531499982,-0.709299982,9.766499519,,853,2.343699932,-2.059300005,10.31649953
1.68301E+18,17.10139966,2.359099865,-1.131899953,-0.0977,,,0.543599963,-0.692099988,9.767000198,,854,2.902699828,-1.823999941,9.669300199
1.68301E+18,17.12139966,2.53760004,-1.172099948,-0.517399967,,,0.590600014,-0.681299984,9.765099525,,855,3.128200054,-1.853399932,9.247699559
1.68301E+18,17.14139966,2.301599979,-1.373600006,-0.700999975,,,0.640299976,-0.675799966,9.762299538,,856,2.941899955,-2.049399972,9.061299562
1.68301E+18,17.16139966,1.527199984,-1.644799948,-0.552299976,,,0.65959996,-0.679199994,9.760799408,,857,2.186799943,-2.323999941,9.208499432
1.68301E+18,17.18139966,0.80189997,-1.490499973,-0.199399993,,,0.639499962,-0.69629997,9.760899544,,858,1.441399932,-2.186799943,9.561499551
1.68301E+18,17.20139966,0.488599986,-1.10679996,0.261799991,,,0.599900007,-0.736699998,9.760499954,,859,1.088499993,-1.843499959,10.02229995
1.68301E+18,17.22139966,0.629700005,-0.693300009,0.371699989,,,0.566599965,-0.787400007,9.758500099,,860,1.19629997,-1.480700016,10.13020009
