time,seconds_elapsed,z,y,x
1683009110375399700,0.036399658203125,1.0167999267578125,0.030799999833106995,1.2272999286651611
1683009110395399700,0.056399658203125,1.0167999267578125,0.030799999833106995,1.2272999286651611
1683009110415405800,0.07640576171875,1.0167999267578125,0.030799999833106995,1.2272999286651611
1683009110435399700,0.096399658203125,0.017099998891353607,-0.005799999926239252,0.35589998960494995
1683009110455399700,0.116399658203125,0.12409999966621399,-0.19999998807907104,0.5324999690055847
1683009110475399700,0.136399658203125,0.42639997601509094,-0.003999999724328518,0.3467999994754791
1683009110495399700,0.156399658203125,0.4381999969482422,0.041200000792741776,0.14270000159740448
1683009110515399700,0.176399658203125,0.3601999878883362,0.06719999760389328,0.06790000200271606
1683009110535399700,0.196399658203125,0.47200000286102295,-0.05719999969005585,0.3440999984741211
1683009110555399700,0.216399658203125,0.4242999851703644,0.04690000042319298,0.335999995470047
1683009110575399700,0.236399658203125,0.23119999468326569,0.12870000302791595,0.2198999971151352
1683009110595399700,0.256399658203125,-0.13279999792575836,0.203699991106987,0.13089999556541443
1683009110615399700,0.276399658203125,0.02589999884366989,0.03590000048279762,0.038599997758865356
1683009110635401200,0.296401123046875,0.27129998803138733,0.09640000015497208,-0.09349999576807022
1683009110655399700,0.316399658203125,0.5473999977111816,0.04739999771118164,-0.09709999710321426
1683009110675399700,0.336399658203125,0.6681999564170837,-0.011799999512732029,0.17729999125003815
1683009110695399700,0.356399658203125,0.31139999628067017,0.10109999775886536,0.13349999487400055
1683009110715402800,0.37640283203125,-0.1574999988079071,0.06920000165700912,0.19339999556541443
1683009110735399700,0.396399658203125,-0.3091000020503998,0.0050999997183680534,0.2110999971628189
1683009110755399700,0.416399658203125,-0.203699991106987,0.20260000228881836,0.3254999816417694
1683009110775401200,0.436401123046875,-0.396699994802475,0.3669999837875366,0.2824999988079071
1683009110795399700,0.456399658203125,-0.31360000371932983,0.4919999837875366,0.06399999558925629
1683009110815399700,0.476399658203125,-0.29179999232292175,0.8537999987602234,-0.016499999910593033
1683009110835399700,0.496399658203125,0.06149999797344208,0.3562999963760376,-0.0681999996304512
1683009110855399700,0.516399658203125,0.22280000150203705,0.042399998754262924,-0.12919999659061432
1683009110875399700,0.536399658203125,0.14409999549388885,0.23109999299049377,0.09269999712705612
1683009110895399700,0.556399658203125,0.020999999716877937,0.1453000009059906,0.5012999773025513
1683009110915401200,0.576401123046875,-0.014399999752640724,0.19759999215602875,0.654699981212616
1683009110935399700,0.596399658203125,-0.49859997630119324,-0.013499999418854713,0.7500999569892883
1683009110955399700,0.616399658203125,-0.3319000005722046,-0.1832999885082245,0.3317999839782715
1683009110975399700,0.636399658203125,0.4520999789237976,-0.28299999237060547,0.515999972820282
1683009110995399700,0.656399658203125,-0.7276999950408936,-0.22609999775886536,1.1790999174118042
1683009111015399700,0.676399658203125,3.2961997985839844,0.44829997420310974,0.6171999573707581
1683009111035399700,0.696399658203125,0.9549999833106995,-0.24569998681545258,0.12159999459981918
1683009111055399700,0.716399658203125,0.7368999719619751,-0.6960999965667725,0.790399968624115
1683009111075399700,0.736399658203125,0.4169999957084656,-0.08259999752044678,-0.29569998383522034
1683009111095399700,0.756399658203125,-0.4837999939918518,0.4405999779701233,-1.74399995803833
1683009111115399700,0.776399658203125,-0.9142999649047852,0.243599995970726,-1.6425999402999878
1683009111135399700,0.796399658203125,-0.8373000025749207,0.1347000002861023,-1.354599952697754
1683009111155399700,0.816399658203125,-0.413100004196167,0.2847999930381775,-0.6354999542236328
1683009111175399700,0.836399658203125,-0.16380000114440918,0.5771999955177307,-0.09699999541044235
1683009111195399700,0.856399658203125,-0.5054000020027161,0.7937999963760376,-0.02199999988079071
1683009111215399700,0.876399658203125,-0.585599958896637,1.133099913597107,-0.3986999988555908
1683009111235399700,0.896399658203125,-0.6265000104904175,0.7792999744415283,0.19449999928474426
1683009111255399700,0.916399658203125,-0.2750999927520752,0.7932999730110168,0.3774999976158142
1683009111275401200,0.936401123046875,-0.37549999356269836,0.8122999668121338,0.1712999939918518
1683009111295399700,0.956399658203125,-0.6328999996185303,0.7333999872207642,0.1508999913930893
1683009111315399700,0.976399658203125,-0.738599956035614,0.8086000084877014,0.00279999990016222
1683009111335399700,0.996399658203125,-0.8396999835968018,0.7347999811172485,-0.026799999177455902
1683009111355399700,1.016399658203125,-0.6959999799728394,0.6407999992370605,-0.09559999406337738
1683009111375399700,1.036399658203125,-0.6451999545097351,0.5562999844551086,0.09999999403953552
1683009111395399700,1.056399658203125,-0.5902999639511108,0.4950999915599823,0.39319998025894165
1683009111415401200,1.076401123046875,-0.4120999872684479,0.39409998059272766,0.7841999530792236
1683009111435401200,1.096401123046875,-0.19029998779296875,0.14149999618530273,1.7239999771118164
1683009111455399700,1.116399658203125,0.044099997729063034,-0.017999999225139618,2.555299997329712
1683009111475399700,1.136399658203125,0.2321999967098236,-0.22139999270439148,3.043799877166748
1683009111495399700,1.156399658203125,0.3571999967098236,-0.5081999897956848,3.062199831008911
1683009111515399700,1.176399658203125,0.6143999695777893,-1.0529999732971191,2.9350998401641846
1683009111535399700,1.196399658203125,0.9864999651908875,-1.4883999824523926,3.1195998191833496
1683009111555399700,1.216399658203125,1.3198999166488647,-1.6749999523162842,4.200799942016602
1683009111575399700,1.236399658203125,1.2109999656677246,-1.3537999391555786,4.9440999031066895
1683009111595399700,1.256399658203125,1.1444000005722046,-0.5963000059127808,3.4450998306274414
1683009111615399700,1.276399658203125,0.8687999844551086,-0.010199999436736107,0.8251000046730042
1683009111635399700,1.296399658203125,0.6468999981880188,-0.03189999982714653,-1.0543999671936035
1683009111655399700,1.316399658203125,0.22759999334812164,-0.44429999589920044,-0.9918999671936035
1683009111675399700,1.336399658203125,-0.4007999897003174,-0.5372999906539917,0.045899998396635056
1683009111695399700,1.356399658203125,-0.7872999906539917,-0.25540000200271606,0.9818999767303467
1683009111715399700,1.376399658203125,-0.736799955368042,0.056199997663497925,1.055299997329712
1683009111735399700,1.396399658203125,-0.2574999928474426,0.15569999814033508,0.5629000067710876
1683009111755399700,1.416399658203125,0.234499990940094,0.11859999597072601,-0.3000999987125397
1683009111775399700,1.436399658203125,0.4008999764919281,0.024399999529123306,-1.1328999996185303
1683009111795399700,1.456399658203125,0.4819999933242798,0.0009999999310821295,-2.2202999591827393
1683009111815399700,1.476399658203125,0.1889999955892563,-0.03920000046491623,-3.2191998958587646
1683009111835399700,1.496399658203125,-0.156700000166893,-0.1784999966621399,-3.8459999561309814
1683009111855399700,1.516399658203125,-0.4675000011920929,-0.030899999663233757,-3.9532999992370605
1683009111875399700,1.536399658203125,-1.0551999807357788,0.04209999740123749,-3.4637999534606934
1683009111895399700,1.556399658203125,-0.2782000005245209,0.40779998898506165,-3.0456998348236084
1683009111915402800,1.57640283203125,-0.24229998886585236,0.23199999332427979,-2.4301998615264893
1683009111935402800,1.59640283203125,0.0024999999441206455,0.18569999933242798,-1.5690999031066895
1683009111955399700,1.616399658203125,0.2760999798774719,0.00029999998514540493,-0.7274999618530273
1683009111975399700,1.636399658203125,0.6489999890327454,-0.21899999678134918,0.1825999915599823
1683009111995399700,1.656399658203125,1.256500005722046,-0.36949998140335083,0.8090999722480774
1683009112015399700,1.676399658203125,1.7757999897003174,-0.5740999579429626,1.2116999626159668
1683009112035399700,1.696399658203125,1.7110999822616577,-0.7901999950408936,1.4975999593734741
1683009112055399700,1.716399658203125,1.352199912071228,-0.9587999582290649,1.6861000061035156
1683009112075399700,1.736399658203125,0.9348999857902527,-1.0899999141693115,2.1389999389648438
1683009112095399700,1.756399658203125,0.6908999681472778,-1.0460000038146973,2.463899850845337
1683009112115399700,1.776399658203125,0.6317999958992004,-1.0733000040054321,3.0242998600006104
1683009112135399700,1.796399658203125,0.6227999925613403,-1.2731000185012817,3.9572999477386475
1683009112155399700,1.816399658203125,0.731499969959259,-1.436900019645691,4.634599685668945
1683009112175399700,1.836399658203125,0.9480999708175659,-1.4442999362945557,4.94819974899292
1683009112195399700,1.856399658203125,0.8705999851226807,-1.1404999494552612,4.378499984741211
1683009112215399700,1.876399658203125,0.2992999851703644,-0.5370000004768372,2.6617000102996826
1683009112235399700,1.896399658203125,-0.5001000165939331,-0.06469999998807907,0.49539998173713684
1683009112255399700,1.916399658203125,-0.9785999655723572,-0.1136000007390976,-1.169600009918213
1683009112275399700,1.936399658203125,-1.0583999156951904,-0.423799991607666,-1.2954000234603882
1683009112295399700,1.956399658203125,-1.369499921798706,-0.6880999803543091,-1.000499963760376
1683009112315402800,1.97640283203125,-1.302899956703186,-0.7346000075340271,-0.4989999830722809
1683009112335399700,1.996399658203125,-1.1550999879837036,-0.7597999572753906,-0.04609999805688858
1683009112355399700,2.016399658203125,-0.8198999762535095,-0.8486999869346619,-0.3075000047683716
1683009112375399700,2.036399658203125,-0.7949999570846558,-1.0191999673843384,-0.9788999557495117
1683009112395399700,2.056399658203125,-0.6956999897956848,-1.0931999683380127,-1.541599988937378
1683009112415401200,2.076401123046875,-0.6317999958992004,-1.024399995803833,-1.9084999561309814
1683009112435399700,2.096399658203125,-0.636900007724762,-0.7990999817848206,-1.973599910736084
1683009112455399700,2.116399658203125,-0.8531999588012695,-0.5234000086784363,-1.7285999059677124
1683009112475399700,2.136399658203125,-0.9940999746322632,-0.24149999022483826,-1.476699948310852
1683009112495399700,2.156399658203125,-0.9929999709129333,-0.0697999969124794,-1.3918999433517456
1683009112515399700,2.176399658203125,-0.9470999836921692,0.003999999724328518,-1.5896999835968018
1683009112535399700,2.196399658203125,-0.9937999844551086,-0.10989999771118164,-1.668299913406372
1683009112555399700,2.216399658203125,-0.8743999600410461,-0.18850000202655792,-1.765299916267395
1683009112575399700,2.236399658203125,-0.7529999613761902,-0.30399999022483826,-1.6174999475479126
1683009112595399700,2.256399658203125,-0.4560000002384186,-0.34619998931884766,-1.3528999090194702
1683009112615399700,2.276399658203125,-0.19349999725818634,-0.40199998021125793,-1.1771999597549438
1683009112635399700,2.296399658203125,-0.03399999812245369,-0.3628999888896942,-1.031499981880188
1683009112655399700,2.316399658203125,0.027899999171495438,-0.17719998955726624,-0.6908000111579895
1683009112675399700,2.336399658203125,0.1136000007390976,0.0786999985575676,-0.3211999833583832
1683009112695399700,2.356399658203125,0.09679999947547913,0.29809999465942383,0.039000000804662704
1683009112715401200,2.376401123046875,0.24129998683929443,0.38609999418258667,0.4490000009536743
1683009112735399700,2.396399658203125,0.36789998412132263,0.39329999685287476,1.1139999628067017
1683009112755399700,2.416399658203125,0.45809999108314514,0.435699999332428,1.6620999574661255
1683009112775401200,2.436401123046875,0.6650999784469604,0.28859999775886536,2.760200023651123
1683009112795399700,2.456399658203125,0.6951999664306641,0.3310000002384186,4.279399871826172
1683009112815399700,2.476399658203125,0.5559999942779541,0.36329999566078186,4.935699939727783
1683009112835399700,2.496399658203125,0.27879998087882996,0.1630999892950058,5.347899913787842
1683009112855399700,2.516399658203125,0.23749999701976776,-0.05209999904036522,5.376699924468994
1683009112875399700,2.536399658203125,0.38179999589920044,-0.2337999939918518,4.171499729156494
1683009112895399700,2.556399658203125,0.7282999753952026,-0.28189998865127563,2.1266000270843506
1683009112915401200,2.576401123046875,0.9071999788284302,-0.3822000026702881,-0.15029999613761902
1683009112935399700,2.596399658203125,0.7301999926567078,-0.7630999684333801,-1.778999924659729
1683009112955399700,2.616399658203125,0.4041000008583069,-1.2238999605178833,-2.243000030517578
1683009112975399700,2.636399658203125,-0.07019999623298645,-1.5030999183654785,-1.5156999826431274
1683009112995399700,2.656399658203125,-0.42649999260902405,-1.3903999328613281,-0.2645999789237976
1683009113015399700,2.676399658203125,-0.6699000000953674,-1.0579999685287476,0.6496999859809875
1683009113035399700,2.696399658203125,-0.6122999787330627,-0.6470999717712402,0.740399956703186
1683009113055399700,2.716399658203125,-0.07339999824762344,-0.3269999921321869,-0.30239999294281006
1683009113075401200,2.736401123046875,0.3771999776363373,-0.3775999844074249,-1.4192999601364136
1683009113095399700,2.756399658203125,0.9370999932289124,-0.28519999980926514,-2.522899866104126
1683009113115399700,2.776399658203125,1.3910999298095703,-0.2791000008583069,-2.7231998443603516
1683009113135399700,2.796399658203125,1.3187999725341797,-0.15539999306201935,-2.5637998580932617
1683009113155399700,2.816399658203125,0.614300012588501,-0.05169999971985817,-2.1333999633789062
1683009113175399700,2.836399658203125,1.01419997215271,0.46230000257492065,-1.6546999216079712
1683009113195399700,2.856399658203125,1.02839994430542,-0.07909999787807465,-1.4768999814987183
1683009113215399700,2.876399658203125,0.35830000042915344,0.6078000068664551,-2.2822999954223633
1683009113235399700,2.896399658203125,-0.5892999768257141,-0.03790000081062317,-1.414699912071228
1683009113255399700,2.916399658203125,-0.4976999759674072,-0.006199999712407589,-0.43789997696876526
1683009113275399700,2.936399658203125,-0.22609999775886536,0.030399998649954796,0.11429999768733978
1683009113295399700,2.956399658203125,0.42579999566078186,-0.16539999842643738,0.4169999957084656
1683009113315399700,2.976399658203125,0.41009998321533203,-0.34869998693466187,0.7085999846458435
1683009113335399700,2.996399658203125,0.5625,-0.424699991941452,1.0351999998092651
1683009113355399700,3.016399658203125,0.7978000044822693,-0.4838999807834625,0.8131999969482422
1683009113375399700,3.036399658203125,0.685699999332428,-0.6482999920845032,0.6886999607086182
1683009113395399700,3.056399658203125,0.4163999855518341,-0.3571999967098236,0.7947999835014343
1683009113415399700,3.076399658203125,0.21139998733997345,-0.4799000024795532,1.0364999771118164
1683009113435399700,3.096399658203125,0.3130999803543091,-0.4702000021934509,1.4578999280929565
1683009113455399700,3.116399658203125,0.17239999771118164,-0.4438999891281128,2.5850000381469727
1683009113475399700,3.136399658203125,0.3887999951839447,-0.47529998421669006,4.188699722290039
1683009113495399700,3.156399658203125,0.46889999508857727,-0.5870999693870544,5.251100063323975
1683009113515399700,3.176399658203125,0.6316999793052673,-0.6571999788284302,4.6855998039245605
1683009113535399700,3.196399658203125,0.840499997138977,-0.6520999670028687,2.9094998836517334
1683009113555399700,3.216399658203125,0.5329999923706055,-0.4696999788284302,1.2044999599456787
1683009113575399700,3.236399658203125,0.05460000038146973,-0.19629999995231628,-0.04010000079870224
1683009113595399700,3.256399658203125,-0.5220000147819519,0.045399997383356094,-0.7757999897003174
1683009113615399700,3.276399658203125,-0.9377999901771545,0.019899999722838402,-1.1790999174118042
1683009113635399700,3.296399658203125,-0.8871999979019165,-0.11079999804496765,-0.8471999764442444
1683009113655399700,3.316399658203125,-0.8721999526023865,-0.03879999741911888,-0.2696000039577484
1683009113675399700,3.336399658203125,-0.36730000376701355,-0.11029999703168869,-0.1404999941587448
1683009113695399700,3.356399658203125,0.026599999517202377,-0.2395000010728836,-0.4902999997138977
1683009113715399700,3.376399658203125,0.2791999876499176,-0.3369999825954437,-0.9089999794960022
1683009113735399700,3.396399658203125,0.22540000081062317,-0.34709998965263367,-1.4843000173568726
1683009113755399700,3.416399658203125,0.003399999812245369,-0.29829999804496765,-2.0778000354766846
1683009113775399700,3.436399658203125,-0.43549999594688416,-0.2069000005722046,-2.387699842453003
1683009113795399700,3.456399658203125,-0.895799994468689,-0.12319999933242798,-2.405400037765503
1683009113815399700,3.476399658203125,-1.1755999326705933,-0.019199999049305916,-2.198899984359741
1683009113835399700,3.496399658203125,-0.9490999579429626,0.019899999722838402,-1.8853999376296997
1683009113855399700,3.516399658203125,-0.6378999948501587,0.05209999904036522,-1.708899974822998
1683009113875399700,3.536399658203125,-0.3621000051498413,0.0008999999845400453,-1.5220999717712402
1683009113895399700,3.556399658203125,-0.15240000188350677,0.022099999710917473,-1.3543999195098877
1683009113915399700,3.576399658203125,0.03669999912381172,0.04910000041127205,-1.0886999368667603
1683009113935399700,3.596399658203125,0.01249999925494194,0.09009999781847,-0.6665999889373779
1683009113955399700,3.616399658203125,-0.12039999663829803,0.21059998869895935,-0.12789998948574066
1683009113975399700,3.636399658203125,-0.12729999423027039,0.33739998936653137,0.15569999814033508
1683009113995399700,3.656399658203125,-0.13840000331401825,0.44110000133514404,0.09730000048875809
1683009114015399700,3.676399658203125,-0.06589999794960022,0.42559999227523804,0.3140999972820282
1683009114035399700,3.696399658203125,0.07939999550580978,0.47099998593330383,0.6186999678611755
1683009114055399700,3.716399658203125,0.20499999821186066,0.5670999884605408,0.8154000043869019
1683009114075399700,3.736399658203125,0.3960999846458435,0.7718999981880188,0.9156000018119812
1683009114095399700,3.756399658203125,0.08949999511241913,0.8567000031471252,1.046199917793274
1683009114115399700,3.776399658203125,-0.4544000029563904,0.6850999593734741,1.4423999786376953
1683009114135399700,3.796399658203125,-0.5647000074386597,0.33009999990463257,2.5924999713897705
1683009114155399700,3.816399658203125,-0.6640999913215637,0.2800000011920929,3.8651998043060303
1683009114175399700,3.836399658203125,-0.3887999951839447,0.12559999525547028,4.59660005569458
1683009114195399700,3.856399658203125,0.0421999990940094,-0.14149999618530273,4.612499713897705
1683009114215399700,3.876399658203125,0.9298999905586243,-0.43959999084472656,4.079899787902832
1683009114235399700,3.896399658203125,1.545300006866455,-0.4912000000476837,3.089399814605713
1683009114255399700,3.916399658203125,1.8229999542236328,-0.22459998726844788,2.0132999420166016
1683009114275399700,3.936399658203125,1.3157999515533447,-0.032999999821186066,0.3122999966144562
1683009114295399700,3.956399658203125,0.6388999819755554,-0.28189998865127563,-1.3452999591827393
1683009114315399700,3.976399658203125,-0.05199999734759331,-0.9648999571800232,-1.8173999786376953
1683009114335399700,3.996399658203125,-0.23839999735355377,-1.1784999370574951,-1.0781999826431274
1683009114355399700,4.016399658203125,-0.8526999950408936,-0.9645999670028687,-0.16830000281333923
1683009114375399700,4.036399658203125,-0.8754000067710876,-0.5435999631881714,-0.1996999979019165
1683009114395399700,4.056399658203125,-0.31540000438690186,-0.29330000281333923,-0.5622999668121338
1683009114415399700,4.076399658203125,0.3105999827384949,-0.32089999318122864,-0.807699978351593
1683009114435399700,4.096399658203125,0.6506999731063843,-0.33399999141693115,-1.1137999296188354
1683009114455399700,4.116399658203125,0.7497999668121338,-0.25859999656677246,-1.4484999179840088
1683009114475399700,4.136399658203125,0.550599992275238,-0.1720999926328659,-1.80239999294281
1683009114495399700,4.156399658203125,0.2708999812602997,0.019600000232458115,-2.0774998664855957
1683009114515399700,4.176399658203125,-0.06419999897480011,0.020999999716877937,-2.3220999240875244
1683009114535399700,4.196399658203125,-0.23199999332427979,-0.05209999904036522,-2.526099920272827
1683009114555399700,4.216399658203125,-0.14829999208450317,-0.06859999895095825,-2.435299873352051
1683009114575399700,4.236399658203125,-0.08089999854564667,-0.040300000458955765,-2.060699939727783
1683009114595399700,4.256399658203125,-0.054899998009204865,-0.007199999876320362,-1.3636999130249023
1683009114615399700,4.276399658203125,0.05040000006556511,0.028299998492002487,-0.6485999822616577
1683009114635399700,4.296399658203125,0.37219998240470886,0.005200000014156103,-0.021900000050663948
1683009114655399700,4.316399658203125,0.5881999731063843,-0.08429999649524689,0.6532999873161316
1683009114675399700,4.336399658203125,0.72079998254776,-0.12129999697208405,1.0336999893188477
1683009114695399700,4.356399658203125,0.7295999526977539,-0.13199999928474426,0.9835999608039856
1683009114715399700,4.376399658203125,0.7378000020980835,-0.19110000133514404,1.1197999715805054
1683009114735399700,4.396399658203125,0.637499988079071,-0.3467999994754791,1.313599944114685
1683009114755399700,4.416399658203125,0.6733999848365784,-0.4560000002384186,1.86899995803833
1683009114775399700,4.436399658203125,0.8108999729156494,-0.3743000030517578,2.8351998329162598
1683009114795399700,4.456399658203125,0.8072999715805054,-0.4170999825000763,4.261399745941162
1683009114815399700,4.476399658203125,0.6740999817848206,-0.7027999758720398,5.882999897003174
1683009114835399700,4.496399658203125,0.21400000154972076,-0.46609997749328613,6.099799633026123
1683009114855399700,4.516399658203125,-0.17559999227523804,-0.12610000371932983,3.87719988822937
1683009114875399700,4.536399658203125,-0.2976999878883362,0.062199998646974564,1.2863999605178833
1683009114895399700,4.556399658203125,0.1939999908208847,-0.038100000470876694,-0.5051999688148499
1683009114915399700,4.576399658203125,0.24149999022483826,-0.3173999786376953,-1.0017999410629272
1683009114935399700,4.596399658203125,-0.15410000085830688,-0.5898999571800232,-0.6773999929428101
1683009114955399700,4.616399658203125,-0.6394999623298645,-0.6931999921798706,-0.462799996137619
1683009114975399700,4.636399658203125,-0.7590999603271484,-0.6071000099182129,-0.5722000002861023
1683009114995399700,4.656399658203125,-0.5500999689102173,-0.5396999716758728,-0.6516000032424927
1683009115015399700,4.676399658203125,-0.26179999113082886,-0.5737999677658081,-1.0447999238967896
1683009115035399700,4.696399658203125,-0.21819999814033508,-0.6653000116348267,-1.5554999113082886
1683009115055399700,4.716399658203125,-0.28450000286102295,-0.5701000094413757,-2.232599973678589
1683009115075399700,4.736399658203125,-0.4575999975204468,-0.35409998893737793,-2.713099956512451
1683009115095399700,4.756399658203125,-0.640500009059906,-0.14489999413490295,-2.831199884414673
1683009115115399700,4.776399658203125,-0.8294999599456787,0.006899999920278788,-2.920300006866455
1683009115135399700,4.796399658203125,-0.837399959564209,0.10099999606609344,-2.8137998580932617
1683009115155402800,4.81640283203125,-0.8093999624252319,0.2003999948501587,-2.394199848175049
1683009115175399700,4.836399658203125,-0.763700008392334,0.3118000030517578,-2.0341999530792236
1683009115195399700,4.856399658203125,-0.5101999640464783,0.30410000681877136,-1.5368999242782593
1683009115215401200,4.876401123046875,-0.16519999504089355,0.1785999983549118,-1.048799991607666
1683009115235399700,4.896399658203125,0.257999986410141,0.23119999468326569,-0.6283999681472778
1683009115255399700,4.916399658203125,0.29889997839927673,0.3346000015735626,0.07589999586343765
1683009115275399700,4.936399658203125,0.2839999794960022,0.4408999979496002,0.45649999380111694
1683009115295399700,4.956399658203125,0.27079999446868896,0.4903999865055084,0.49480000138282776
1683009115315399700,4.976399658203125,0.19049999117851257,0.42729997634887695,0.7691999673843384
1683009115335399700,4.996399658203125,0.07559999823570251,0.429099977016449,1.0048999786376953
1683009115355399700,5.016399658203125,-0.030399998649954796,0.4156000018119812,1.1140999794006348
1683009115375399700,5.036399658203125,-0.19869999587535858,0.4796999990940094,0.8411999940872192
1683009115395399700,5.056399658203125,-0.4408999979496002,0.534500002861023,0.3434999883174896
1683009115415399700,5.076399658203125,-0.5390999913215637,0.4732999801635742,0.21979999542236328
1683009115435399700,5.096399658203125,-0.5426999926567078,0.2858999967575073,0.7731999754905701
1683009115455399700,5.116399658203125,-0.3522000014781952,0.03669999912381172,1.933899998664856
1683009115475399700,5.136399658203125,-0.12639999389648438,-0.550000011920929,3.739300012588501
1683009115495399700,5.156399658203125,0.34450000524520874,-0.6787999868392944,5.246200084686279
1683009115515401200,5.176401123046875,0.31200000643730164,-0.5461999773979187,5.751199722290039
1683009115535402800,5.19640283203125,0.005200000014156103,-0.25110000371932983,4.972599983215332
1683009115555402800,5.21640283203125,-0.18019999563694,0.07939999550580978,3.040299892425537
1683009115575399700,5.236399658203125,-0.23929999768733978,0.040300000458955765,1.1895999908447266
1683009115595399700,5.256399658203125,-0.08479999750852585,-0.10920000076293945,-0.32519999146461487
1683009115615399700,5.276399658203125,-0.16509999334812164,-0.653499960899353,-0.9286999702453613
1683009115635401200,5.296401123046875,-0.15889999270439148,-1.0325000286102295,-1.0061999559402466
1683009115655399700,5.316399658203125,0.017400000244379044,-1.048699975013733,-0.9000999927520752
1683009115675399700,5.336399658203125,0.21069999039173126,-0.8420999646186829,-0.5792999863624573
1683009115695399700,5.356399658203125,0.42659997940063477,-0.5866999626159668,-0.5238000154495239
1683009115715401200,5.376401123046875,0.5834999680519104,-0.5092999935150146,-1.0162999629974365
1683009115735399700,5.396399658203125,0.6089000105857849,-0.44909998774528503,-1.6740999221801758
1683009115755399700,5.416399658203125,0.5026000142097473,-0.3075999915599823,-2.0657999515533447
1683009115775401200,5.436401123046875,0.31219998002052307,-0.15799999237060547,-2.2804999351501465
1683009115795399700,5.456399658203125,0.085999995470047,-0.006000000052154064,-2.132499933242798
1683009115815399700,5.476399658203125,-0.13379999995231628,0.1875,-2.259500026702881
1683009115835399700,5.496399658203125,-0.19979999959468842,0.4477999806404114,-2.1213998794555664
1683009115855399700,5.516399658203125,-0.1022999957203865,0.5762999653816223,-2.0023999214172363
1683009115875399700,5.536399658203125,-0.00839999970048666,0.5737999677658081,-1.8634999990463257
1683009115895399700,5.556399658203125,0.11969999969005585,0.48979997634887695,-1.6664999723434448
1683009115915399700,5.576399658203125,0.2895999848842621,0.38760000467300415,-1.4402999877929688
1683009115935401200,5.596401123046875,0.5038999915122986,0.2992999851703644,-1.0676000118255615
1683009115955399700,5.616399658203125,0.699999988079071,0.241799995303154,-0.616599977016449
1683009115975399700,5.636399658203125,0.8525999784469604,0.2863999903202057,-0.5769999623298645
1683009115995399700,5.656399658203125,0.7489999532699585,0.25540000200271606,-0.25380000472068787
1683009116015399700,5.676399658203125,0.6410999894142151,0.025599999353289604,0.6159999966621399
1683009116035399700,5.696399658203125,0.6459000110626221,0.1800999939441681,1.4365999698638916
1683009116055399700,5.716399658203125,0.5945999622344971,0.4066999852657318,2.4333999156951904
1683009116075401200,5.736401123046875,0.1882999986410141,0.43459999561309814,2.763000011444092
1683009116095399700,5.756399658203125,0.41189998388290405,0.382099986076355,2.644700050354004
1683009116115399700,5.776399658203125,0.6207000017166138,0.10369999706745148,2.8805999755859375
1683009116135399700,5.796399658203125,1.0332999229431152,-0.24300000071525574,3.734499931335449
1683009116155399700,5.816399658203125,1.1101000308990479,-0.43039998412132263,4.92140007019043
1683009116175399700,5.836399658203125,0.9437999725341797,-0.38359999656677246,5.6956000328063965
1683009116195399700,5.856399658203125,0.4269999861717224,-0.15320000052452087,5.734299659729004
1683009116215399700,5.876399658203125,-0.1282999962568283,0.120899997651577,4.508800029754639
1683009116235399700,5.896399658203125,-0.58160001039505,0.25999999046325684,2.284299850463867
1683009116255399700,5.916399658203125,-0.9659000039100647,0.0013000000035390258,-0.02709999866783619
1683009116275399700,5.936399658203125,-1.278499960899353,-0.6771000027656555,-1.9847999811172485
1683009116295399700,5.956399658203125,-0.9752999544143677,-1.0781999826431274,-2.9619998931884766
1683009116315399700,5.976399658203125,-0.34439998865127563,-0.9953999519348145,-2.520599842071533
1683009116335399700,5.996399658203125,0.21130000054836273,-0.739799976348877,-1.416700005531311
1683009116355399700,6.016399658203125,0.38749998807907104,-0.34549999237060547,-0.4715999960899353
1683009116375399700,6.036399658203125,0.6212999820709229,-0.06260000169277191,-0.28929999470710754
1683009116395399700,6.056399658203125,0.5515999794006348,0.10659999400377274,-0.6036999821662903
1683009116415399700,6.076399658203125,0.2978000044822693,0.07159999758005142,-1.1216999292373657
1683009116435399700,6.096399658203125,-0.09209999442100525,0.035499997437000275,-1.668299913406372
1683009116455399700,6.116399658203125,-0.578499972820282,0.10329999774694443,-2.3030998706817627
1683009116475399700,6.136399658203125,-0.8947999477386475,0.11539999395608902,-2.8989999294281006
1683009116495399700,6.156399658203125,-0.9475999474525452,0.06459999829530716,-3.229099988937378
1683009116515399700,6.176399658203125,-0.8775999546051025,0.17080000042915344,-3.323499917984009
1683009116535399700,6.196399658203125,-0.5618000030517578,0.21859999001026154,-2.9384000301361084
1683009116555399700,6.216399658203125,-0.2821999788284302,0.31769999861717224,-2.192999839782715
1683009116575399700,6.236399658203125,-0.13490000367164612,0.3490999937057495,-1.5677999258041382
1683009116595399700,6.256399658203125,-0.06939999759197235,0.46709999442100525,-1.1588000059127808
1683009116615402800,6.27640283203125,0.06359999626874924,0.5056999921798706,-0.895799994468689
1683009116635399700,6.296399658203125,0.07499999552965164,0.34379997849464417,-0.53329998254776
1683009116655399700,6.316399658203125,0.20229999721050262,0.17649999260902405,0.11379999667406082
1683009116675399700,6.336399658203125,0.33139997720718384,-0.14589999616146088,1.1431999206542969
1683009116695402800,6.35640283203125,0.26109999418258667,-0.06459999829530716,1.8964999914169312
1683009116715402800,6.37640283203125,0.18809999525547028,0.3782999813556671,1.8555999994277954
1683009116735399700,6.396399658203125,-0.0640999972820282,0.8407999873161316,1.5425000190734863
1683009116755399700,6.416399658203125,-0.3911999762058258,1.1483999490737915,0.8985999822616577
1683009116775401200,6.436401123046875,-0.5615999698638916,0.8884999752044678,0.5519999861717224
1683009116795399700,6.456399658203125,-0.6818000078201294,0.204599991440773,1.499899983406067
1683009116815399700,6.476399658203125,-0.5936999917030334,-0.41200000047683716,3.3457999229431152
1683009116835399700,6.496399658203125,-0.6583999991416931,-0.37229999899864197,4.382899761199951
1683009116855399700,6.516399658203125,-0.33649998903274536,-0.4156000018119812,4.744499683380127
1683009116875399700,6.536399658203125,0.19519999623298645,-0.2694000005722046,4.244999885559082
1683009116895399700,6.556399658203125,0.8138999938964844,-0.33969998359680176,3.295599937438965
1683009116915399700,6.576399658203125,1.1993999481201172,-0.12600000202655792,1.701799988746643
1683009116935399700,6.596399658203125,1.0275999307632446,-0.07180000096559525,0.003499999875202775
1683009116955399700,6.616399658203125,0.557200014591217,-0.2247999906539917,-1.0467000007629395
1683009116975399700,6.636399658203125,-0.16619999706745148,-0.5601999759674072,-1.2014999389648438
1683009116995399700,6.656399658203125,-0.45339998602867126,-0.6258999705314636,-1.1066999435424805
1683009117015399700,6.676399658203125,-0.35349997878074646,-0.4666999876499176,-0.6107999682426453
1683009117035399700,6.696399658203125,-0.11889999359846115,-0.31290000677108765,-0.13580000400543213
1683009117055399700,6.716399658203125,0.38659998774528503,-0.2102999985218048,-0.15129999816417694
1683009117075399700,6.736399658203125,0.958899974822998,-0.08739999681711197,-0.6068999767303467
1683009117095399700,6.756399658203125,1.413599967956543,-0.04039999842643738,-1.1388999223709106
1683009117115399700,6.776399658203125,1.5555999279022217,-0.016200000420212746,-1.6593999862670898
1683009117135399700,6.796399658203125,1.416700005531311,0.07440000027418137,-2.1008999347686768
1683009117155399700,6.816399658203125,1.1086000204086304,0.13740000128746033,-2.355799913406372
1683009117175399700,6.836399658203125,0.9193999767303467,0.28139999508857727,-2.3359999656677246
1683009117195399700,6.856399658203125,0.849299967288971,0.41839998960494995,-2.3945999145507812
1683009117215399700,6.876399658203125,0.8427000045776367,0.5263000130653381,-2.354599952697754
1683009117235399700,6.896399658203125,0.8727999925613403,0.6486999988555908,-2.0785999298095703
1683009117255399700,6.916399658203125,0.8764999508857727,0.6897000074386597,-1.3808000087738037
1683009117275399700,6.936399658203125,0.9146999716758728,0.7508999705314636,-0.546999990940094
1683009117295399700,6.956399658203125,0.973800003528595,0.8190000057220459,0.0405999980866909
1683009117315399700,6.976399658203125,0.9569000005722046,0.9108999967575073,0.3245999813079834
1683009117335399700,6.996399658203125,0.9977999925613403,0.9756999611854553,0.49149999022483826
1683009117355399700,7.016399658203125,0.9343000054359436,0.9723999500274658,0.25619998574256897
1683009117375399700,7.036399658203125,1.0362999439239502,0.9386000037193298,-0.2240999937057495
1683009117395399700,7.056399658203125,1.1092000007629395,0.9768999814987183,-0.7245000004768372
1683009117415399700,7.076399658203125,1.1830999851226807,1.1496999263763428,-0.9498999714851379
1683009117435399700,7.096399658203125,1.1270999908447266,1.282599925994873,-0.6065999865531921
1683009117455399700,7.116399658203125,1.1899999380111694,1.4009000062942505,0.1087999939918518
1683009117475399700,7.136399658203125,1.2458999156951904,1.494499921798706,0.7548999786376953
1683009117495399700,7.156399658203125,1.3030999898910522,1.5680999755859375,0.8420999646186829
1683009117515399700,7.176399658203125,1.1969000101089478,1.5541999340057373,0.8023999929428101
1683009117535399700,7.196399658203125,1.277400016784668,1.0829999446868896,1.3128999471664429
1683009117555399700,7.216399658203125,1.355199933052063,0.36789998412132263,2.7538998126983643
1683009117575399700,7.236399658203125,1.192099928855896,0.45749998092651367,3.722299814224243
1683009117595399700,7.256399658203125,0.8263999819755554,0.5559999942779541,2.7797000408172607
1683009117615399700,7.276399658203125,0.48579999804496765,0.40199998021125793,0.6607999801635742
1683009117635402800,7.29640283203125,1.0650999546051025,0.24650000035762787,-1.692699909210205
1683009117655402800,7.31640283203125,1.522499918937683,0.0038999998942017555,-2.7690999507904053
1683009117675399700,7.336399658203125,1.17330002784729,-0.32189998030662537,-1.3559999465942383
1683009117695399700,7.356399658203125,0.26589998602867126,-0.5871999859809875,0.6294999718666077
1683009117715401200,7.376401123046875,0.023899998515844345,-0.5148999691009521,1.7199000120162964
1683009117735399700,7.396399658203125,0.8889999985694885,-0.3285999894142151,1.7911999225616455
1683009117755399700,7.416399658203125,2.271899938583374,-0.5137999653816223,0.9062999486923218
1683009117775399700,7.436399658203125,3.2936999797821045,-0.7310999631881714,-0.10319999605417252
1683009117795399700,7.456399658203125,3.41729998588562,-0.9842999577522278,-0.5823000073432922
1683009117815399700,7.476399658203125,2.6928000450134277,-1.1727999448776245,-0.914199948310852
1683009117835399700,7.496399658203125,1.4743999242782593,-1.146399974822998,-1.188499927520752
1683009117855399700,7.516399658203125,0.409199982881546,-1.049399971961975,-1.0031999349594116
1683009117875399700,7.536399658203125,0.11889999359846115,-0.6759999990463257,-0.6022999882698059
1683009117895399700,7.556399658203125,0.39739999175071716,-0.2651999890804291,-0.11259999871253967
1683009117915399700,7.576399658203125,0.9451999664306641,-0.03359999880194664,-0.01489999983459711
1683009117935399700,7.596399658203125,1.403899908065796,0.026399999856948853,-0.12379999458789825
1683009117955399700,7.616399658203125,1.718999981880188,-0.03370000049471855,-0.38009998202323914
1683009117975399700,7.636399658203125,1.7077000141143799,-0.0030999998562037945,-0.606499969959259
1683009117995399700,7.656399658203125,1.5299999713897705,-0.04839999973773956,-0.7045999765396118
1683009118015399700,7.676399658203125,1.152899980545044,0.05260000005364418,-0.7928000092506409
1683009118035399700,7.696399658203125,0.8100999593734741,0.1525999903678894,-0.9301999807357788
1683009118055399700,7.716399658203125,0.5863999724388123,0.22379998862743378,-0.8127999901771545
1683009118075399700,7.736399658203125,0.38920000195503235,0.26729997992515564,-0.5388000011444092
1683009118095399700,7.756399658203125,0.400299996137619,0.3326999843120575,-0.3236999809741974
1683009118115399700,7.776399658203125,0.48319998383522034,0.2296999990940094,-0.07939999550580978
1683009118135399700,7.796399658203125,0.7554000020027161,0.19689999520778656,0.4294999837875366
1683009118155399700,7.816399658203125,0.8242999911308289,0.2987000048160553,0.9875999689102173
1683009118175399700,7.836399658203125,0.7391999959945679,0.3125,1.2218999862670898
1683009118195399700,7.856399658203125,0.5178999900817871,0.125,1.2105000019073486
1683009118215399700,7.876399658203125,0.5044000148773193,-0.1735999882221222,0.8458999991416931
1683009118235399700,7.896399658203125,0.6252999901771545,-0.6825000047683716,0.9429000020027161
1683009118255399700,7.916399658203125,0.9866999983787537,-1.0470999479293823,1.5798999071121216
1683009118275399700,7.936399658203125,1.3852999210357666,-0.9404999613761902,1.6875
1683009118295399700,7.956399658203125,1.5932999849319458,-0.958899974822998,1.4132000207901
1683009118315399700,7.976399658203125,1.8402999639511108,-1.0296999216079712,1.0015000104904175
1683009118335399700,7.996399658203125,2.1517999172210693,-1.249899983406067,0.3646000027656555
1683009118355399700,8.016399658203126,2.1710000038146973,-1.3215999603271484,-0.3100999891757965
1683009118375399700,8.036399658203125,1.9713999032974243,-1.3401999473571777,-0.9641000032424927
1683009118395399700,8.056399658203125,1.6757999658584595,-1.5512999296188354,-1.1180000305175781
1683009118415399700,8.076399658203124,1.5746999979019165,-1.5468000173568726,-0.8904999494552612
1683009118435399700,8.096399658203126,1.6660000085830688,-1.3629000186920166,-0.3797000050544739
1683009118455399700,8.116399658203125,1.5077999830245972,-1.1476999521255493,0.15070000290870667
1683009118475399700,8.136399658203125,1.2904999256134033,-0.937999963760376,0.2599000036716461
1683009118495399700,8.156399658203124,1.1075999736785889,-0.8527999520301819,0.281499981880188
1683009118515399700,8.176399658203126,1.173200011253357,-0.7358999848365784,0.22529999911785126
1683009118535399700,8.196399658203125,1.3021999597549438,-0.5449000000953674,-0.05590000003576279
1683009118555402800,8.21640283203125,1.4240999221801758,-0.43149998784065247,-0.5131999850273132
1683009118575401200,8.236401123046875,1.352199912071228,-0.3050000071525574,-1.0583000183105469
1683009118595399700,8.256399658203126,1.329800009727478,-0.24799999594688416,-1.455199956893921
1683009118615399700,8.276399658203125,1.3535000085830688,-0.10189999639987946,-1.4787999391555786
1683009118635401200,8.296401123046875,1.2032999992370605,0.06189999729394913,-1.0322999954223633
1683009118655399700,8.316399658203125,0.8138999938964844,0.33159998059272766,-0.3612000048160553
1683009118675399700,8.336399658203124,0.4773999750614166,0.6326999664306641,0.1517999917268753
1683009118695399700,8.356399658203125,0.3845999836921692,0.961899995803833,0.28209999203681946
1683009118715402800,8.37640283203125,0.41009998321533203,1.0160000324249268,0.25509998202323914
1683009118735399700,8.396399658203125,0.7598999738693237,1.0325000286102295,-0.20340000092983246
1683009118755399700,8.416399658203124,1.0901999473571777,0.9793999791145325,-0.43719998002052307
1683009118775402800,8.43640283203125,1.1733999252319336,0.9266999959945679,-0.4276999831199646
1683009118795402800,8.45640283203125,1.0996999740600586,1.0261999368667603,-0.11559999734163284
1683009118815402800,8.47640283203125,0.8197000026702881,1.0318000316619873,0.8912999629974365
1683009118835399700,8.496399658203124,0.5801999568939209,0.9691999554634094,1.4356999397277832
1683009118855399700,8.516399658203126,0.8435999751091003,0.6251999735832214,1.222499966621399
1683009118875399700,8.536399658203125,1.219499945640564,0.3172999918460846,0.7340999841690063
1683009118895399700,8.556399658203125,1.6718000173568726,0.00839999970048666,0.10049999505281448
1683009118915399700,8.576399658203124,1.944599986076355,-0.2459999918937683,0.08699999749660492
1683009118935399700,8.596399658203126,1.8250999450683594,-0.5798999667167664,1.093400001525879
1683009118955399700,8.616399658203125,1.7201999425888062,-0.7504000067710876,2.5291998386383057
1683009118975399700,8.636399658203125,1.6344999074935913,-0.33649998903274536,2.807299852371216
1683009118995399700,8.656399658203124,1.4634000062942505,0.2760999798774719,1.0685999393463135
1683009119015399700,8.676399658203126,1.5920000076293945,0.2522999942302704,-1.0095999240875244
1683009119035399700,8.696399658203125,1.8494999408721924,-0.4043000042438507,-1.2811999320983887
1683009119055399700,8.716399658203125,1.656599998474121,-1.1270999908447266,-0.2789999842643738
1683009119075399700,8.736399658203124,0.9664999842643738,-1.4740999937057495,0.7601000070571899
1683009119095399700,8.756399658203126,0.3243999779224396,-1.5404999256134033,1.5815999507904053
1683009119115399700,8.776399658203125,0.4388999938964844,-1.2725999355316162,1.3636999130249023
1683009119135401200,8.796401123046875,1.0374000072479248,-1.1948000192642212,0.6771999597549438
1683009119155399700,8.816399658203125,1.2258999347686768,-1.1145999431610107,0.051899999380111694
1683009119175399700,8.836399658203124,1.0550999641418457,-1.0367000102996826,-0.23029999434947968
1683009119195399700,8.856399658203125,0.530299961566925,-0.9930999875068665,-0.49459999799728394
1683009119215401200,8.876401123046875,0.08699999749660492,-0.9668999910354614,-0.6029999852180481
1683009119235399700,8.896399658203125,0.10729999840259552,-0.8003000020980835,-0.5252999663352966
1683009119255399700,8.916399658203124,0.33640000224113464,-0.6258000135421753,-0.30979999899864197
1683009119275401200,8.936401123046876,0.40039998292922974,-0.5666999816894531,-0.06509999930858612
1683009119295399700,8.956399658203125,0.5151999592781067,-0.5008999705314636,-0.10480000078678131
1683009119315399700,8.976399658203125,0.5837000012397766,-0.4123999774456024,-0.37929999828338623
1683009119335399700,8.996399658203124,0.5108000040054321,-0.34369999170303345,-0.5160999894142151
1683009119355399700,9.016399658203126,0.2728999853134155,-0.2572999894618988,-0.731499969959259
1683009119375399700,9.036399658203125,0.016300000250339508,-0.2721000015735626,-0.9370999932289124
1683009119395399700,9.056399658203125,-0.06379999965429306,-0.337799996137619,-1.1327999830245972
1683009119415399700,9.076399658203124,-0.013700000010430813,-0.3644999861717224,-1.1317999362945557
1683009119435401200,9.096401123046874,0.11409999430179596,-0.3025999963283539,-0.8955000042915344
1683009119455399700,9.116399658203125,0.13030000030994415,-0.14919999241828918,-0.45399999618530273
1683009119475399700,9.136399658203125,0.11219999939203262,0.17009998857975006,0.06520000100135803
1683009119495399700,9.156399658203124,0.1881999969482422,0.47029998898506165,0.5357999801635742
1683009119515399700,9.176399658203126,0.21439999341964722,0.6675999760627747,0.8212999701499939
1683009119535399700,9.196399658203125,0.20629999041557312,0.5878999829292297,1.0585999488830566
1683009119555399700,9.216399658203125,0.1339000016450882,0.5625,1.3252999782562256
1683009119575401200,9.236401123046875,0.23339998722076416,0.15410000085830688,2.063199996948242
1683009119595399700,9.256399658203126,0.3743000030517578,-0.2624000012874603,3.10509991645813
1683009119615399700,9.276399658203125,0.5270999670028687,-0.40959998965263367,3.901399850845337
1683009119635399700,9.296399658203125,0.5185999870300293,-0.5992000102996826,4.1493000984191895
1683009119655399700,9.316399658203125,0.6866999864578247,-0.8072999715805054,3.927500009536743
1683009119675399700,9.336399658203124,1.176800012588501,-0.939799964427948,3.832399845123291
1683009119695399700,9.356399658203125,1.2924000024795532,-0.6832000017166138,3.539799928665161
1683009119715401200,9.376401123046875,0.6554999947547913,-0.38089999556541443,2.129999876022339
1683009119735399700,9.396399658203125,-0.051500000059604645,-0.4390999972820282,0.30140000581741333
1683009119755399700,9.416399658203124,-0.07119999825954437,-0.8867999911308289,-0.8387999534606934
1683009119775401200,9.436401123046876,0.40119999647140503,-1.3650000095367432,-1.4505999088287354
1683009119795399700,9.456399658203125,0.8378999829292297,-1.3417999744415283,-1.555799961090088
1683009119815399700,9.476399658203125,0.9138999581336975,-0.9611999988555908,-0.8810999989509583
1683009119835399700,9.496399658203124,0.774399995803833,-0.6031000018119812,-0.3473999798297882
1683009119855399700,9.516399658203126,0.6175000071525574,-0.33139997720718384,0.011099999770522118
1683009119875399700,9.536399658203125,0.4178999960422516,-0.21699999272823334,-0.14669999480247498
1683009119895399700,9.556399658203125,0.2329999953508377,-0.3772999942302704,-0.49869999289512634
1683009119915399700,9.576399658203124,0.24329999089241028,-0.6410999894142151,-1.1348999738693237
1683009119935399700,9.596399658203126,0.3743000030517578,-0.9384999871253967,-1.8191999197006226
1683009119955399700,9.616399658203125,0.5788999795913696,-1.0996999740600586,-2.502699851989746
1683009119975399700,9.636399658203125,0.6570000052452087,-1.143399953842163,-2.764699935913086
1683009119995399700,9.656399658203124,0.6049999594688416,-1.000499963760376,-2.4196999073028564
1683009120015399700,9.676399658203126,0.31129997968673706,-0.7012999653816223,-1.8021999597549438
1683009120035399700,9.696399658203125,0.0867999941110611,-0.3725000023841858,-1.1861000061035156
1683009120055399700,9.716399658203125,0.060999996960163116,-0.15369999408721924,-0.7858999967575073
1683009120075401200,9.736401123046875,0.03709999844431877,-0.09139999747276306,-0.4152999818325043
1683009120095399700,9.756399658203126,0.05959999933838844,-0.04919999837875366,-0.3089999854564667
1683009120115399700,9.776399658203125,0.2199999988079071,0.034299999475479126,-0.3093999922275543
1683009120135401200,9.796401123046875,0.38599997758865356,0.06390000134706497,-0.36809998750686646
1683009120155399700,9.816399658203125,0.4048999845981598,0.12870000302791595,-0.3188000023365021
1683009120175399700,9.836399658203124,0.4617999792098999,0.07189999520778656,-0.13210000097751617
1683009120195399700,9.856399658203125,0.43849998712539673,0.10719999670982361,0.054899998009204865
1683009120215401200,9.876401123046875,0.4821999967098236,-0.00699999975040555,0.4285999834537506
1683009120235399700,9.896399658203125,0.5633999705314636,-0.1946999877691269,0.8615999817848206
1683009120255399700,9.916399658203124,0.8537999987602234,-0.28619998693466187,1.7269999980926514
1683009120275402800,9.93640283203125,0.9882999658584595,-0.15219999849796295,2.543099880218506
1683009120295399700,9.956399658203125,0.760699987411499,-0.023599999025464058,2.9667999744415283
1683009120315399700,9.976399658203125,0.32889997959136963,-0.13199999928474426,3.14520001411438
1683009120335399700,9.996399658203124,0.07119999825954437,-0.37279999256134033,3.5296998023986816
1683009120355401200,10.016401123046874,0.1590999960899353,-0.8222000002861023,4.543999671936035
1683009120375399700,10.036399658203125,0.32330000400543213,-1.0817999839782715,5.417999744415283
1683009120395399700,10.056399658203125,0.5083999633789062,-0.8112999796867371,4.387399673461914
1683009120415402800,10.07640283203125,0.4341999888420105,-0.4745999872684479,2.1922998428344727
1683009120435401200,10.096401123046874,0.4089999794960022,-0.35339999198913574,0.460999995470047
1683009120455399700,10.116399658203125,-0.025200000032782555,-0.4811999797821045,-0.5835999846458435
1683009120475399700,10.136399658203125,-0.460099995136261,-0.6908999681472778,-0.9161999821662903
1683009120495399700,10.156399658203124,-0.7605999708175659,-0.8983999490737915,-0.9581999778747559
1683009120515399700,10.176399658203126,-0.5163999795913696,-0.8389999866485596,-0.8831999897956848
1683009120535399700,10.196399658203125,-0.1241999939084053,-0.666700005531311,-0.6405999660491943
1683009120555399700,10.216399658203125,0.18219999969005585,-0.6019999980926514,-0.7990999817848206
1683009120575399700,10.236399658203124,0.26479998230934143,-0.6771000027656555,-1.212399959564209
1683009120595399700,10.256399658203126,0.18359999358654022,-0.6389999985694885,-1.635599970817566
1683009120615399700,10.276399658203125,-0.2263999879360199,-0.5698999762535095,-2.244499921798706
1683009120635401200,10.296401123046875,-0.7369999885559082,-0.4578999876976013,-2.9400999546051025
1683009120655399700,10.316399658203125,-1.118399977684021,-0.3596999943256378,-3.351799964904785
1683009120675399700,10.336399658203124,-1.2882999181747437,-0.2963999807834625,-3.5583999156951904
1683009120695399700,10.356399658203125,-1.2475999593734741,-0.2777000069618225,-3.3538999557495117
1683009120715401200,10.376401123046875,-0.9120999574661255,-0.11580000072717667,-2.8276000022888184
1683009120735399700,10.396399658203125,-0.5169000029563904,0.02889999933540821,-1.9794999361038208
1683009120755399700,10.416399658203124,-0.2586999833583832,0.18879999220371246,-1.073699951171875
1683009120775401200,10.436401123046876,-0.12229999899864197,0.3455999791622162,-0.5396999716758728
1683009120795399700,10.456399658203125,-0.01679999940097332,0.4271000027656555,-0.1314999908208847
1683009120815399700,10.476399658203125,-0.01249999925494194,0.42170000076293945,0.06260000169277191
1683009120835399700,10.496399658203124,-0.014499999582767487,0.34769999980926514,0.22829999029636383
1683009120855399700,10.516399658203126,0.12889999151229858,0.18359999358654022,0.5708000063896179
1683009120875399700,10.536399658203125,0.19409999251365662,0.17239999771118164,1.1779999732971191
1683009120895399700,10.556399658203125,0.21889999508857727,0.4470999836921692,1.1475999355316162
1683009120915399700,10.576399658203124,0.052299998700618744,0.7245999574661255,0.6087999939918518
1683009120935401200,10.596401123046874,-0.24120000004768372,0.8144999742507935,0.3360999822616577
1683009120955399700,10.616399658203125,-0.5352999567985535,0.8682000041007996,0.4558999836444855
1683009120975399700,10.636399658203125,-0.863099992275238,0.9187999963760376,0.6829999685287476
1683009120995399700,10.656399658203124,-0.9960999488830566,0.6168999671936035,1.4584999084472656
1683009121015399700,10.676399658203126,-0.7773000001907349,0.3000999987125397,2.849799871444702
1683009121035399700,10.696399658203125,-0.3904999792575836,0.21819999814033508,3.661099910736084
1683009121055399700,10.716399658203125,0.3296999931335449,0.10489999502897263,3.738999843597412
1683009121075399700,10.736399658203124,1.1851999759674072,-0.18239998817443848,3.9850997924804688
1683009121095399700,10.756399658203126,1.789199948310852,-0.4746999740600586,4.329800128936768
1683009121115399700,10.776399658203125,1.7364000082015991,-0.39159998297691345,4.272299766540527
1683009121135401200,10.796401123046875,1.1125999689102173,0.10659999400377274,3.24399995803833
1683009121155402800,10.81640283203125,0.1428000032901764,0.44579997658729553,1.2072999477386475
1683009121175402800,10.83640283203125,-0.08190000057220459,0.2549000084400177,-0.9733999967575073
1683009121195399700,10.856399658203125,0.15639999508857727,-0.22049999237060547,-1.8960999250411987
1683009121215401200,10.876401123046875,0.3012000024318695,-0.7037000060081482,-1.4866999387741089
1683009121235399700,10.896399658203125,-0.021800000220537186,-0.8276000022888184,-1.1799999475479126
1683009121255399700,10.916399658203124,-0.4715999960899353,-0.5974000096321106,-0.5751000046730042
1683009121275399700,10.936399658203126,-0.6189000010490417,-0.4544999897480011,0.2793000042438507
1683009121295399700,10.956399658203125,-0.3628999888896942,-0.34039998054504395,0.359499990940094
1683009121315399700,10.976399658203125,0.2199999988079071,-0.19679999351501465,-0.2134999930858612
1683009121335399700,10.996399658203124,0.6825000047683716,-0.19679999351501465,-1.017799973487854
1683009121355399700,11.016399658203126,0.12389999628067017,-0.6542999744415283,-1.3523999452590942
1683009121375399700,11.036399658203125,0.28110000491142273,-0.2547999918460846,-2.2936999797821045
1683009121395399700,11.056399658203125,0.008100000210106373,-0.28329998254776,-2.782899856567383
1683009121415399700,11.076399658203124,-0.21609999239444733,-0.21149998903274536,-2.809999942779541
1683009121435401200,11.096401123046874,-0.41519999504089355,-0.01269999984651804,-2.6698999404907227
1683009121455399700,11.116399658203125,-0.45229998230934143,0.11189999431371689,-2.235100030899048
1683009121475399700,11.136399658203125,-0.41439998149871826,0.2035999894142151,-1.761699914932251
1683009121495399700,11.156399658203124,-0.11270000040531158,0.30559998750686646,-1.1434999704360962
1683009121515399700,11.176399658203126,-0.3563999831676483,-0.015399999916553497,-0.08829999715089798
1683009121535399700,11.196399658203125,0.11469999700784683,0.23649999499320984,0.457099974155426
1683009121555399700,11.216399658203125,0.2078000009059906,0.1476999968290329,0.8563999533653259
1683009121575399700,11.236399658203124,0.6136999726295471,0.17229999601840973,1.013100028038025
1683009121595399700,11.256399658203126,0.8447999954223633,0.12469999492168427,1.2394999265670776
1683009121615399700,11.276399658203125,0.9812999963760376,0.12049999833106995,1.3000999689102173
1683009121635399700,11.296399658203125,1.061900019645691,0.13930000364780426,1.2036999464035034
1683009121655399700,11.316399658203125,0.8163999915122986,-0.04209999740123749,1.2339999675750732
1683009121675399700,11.336399658203124,0.5679999589920044,-0.07530000060796738,1.3910999298095703
1683009121695399700,11.356399658203125,0.5666999816894531,-0.26909998059272766,2.0873000621795654
1683009121715399700,11.376399658203125,0.5547999739646912,-0.7500999569892883,3.527099847793579
1683009121735399700,11.396399658203125,0.5055999755859375,-0.9722999930381775,4.865600109100342
1683009121755399700,11.416399658203124,0.009999999776482582,-1.0823999643325806,4.97629976272583
1683009121775399700,11.436399658203126,-0.42010000348091125,-0.7337999939918518,3.3831000328063965
1683009121795399700,11.456399658203125,0.03720000013709068,-0.5778999924659729,1.7254999876022339
1683009121815399700,11.476399658203125,0.307699978351593,-0.5591999888420105,0.33550000190734863
1683009121835399700,11.496399658203124,0.10439999401569366,-0.4584999978542328,-1.0440000295639038
1683009121855401200,11.516401123046874,-0.16769999265670776,-0.43699997663497925,-1.7479000091552734
1683009121875399700,11.536399658203125,-0.4098999798297882,-0.48240000009536743,-1.6891999244689941
1683009121895399700,11.556399658203125,-0.4219000041484833,-0.4364999830722809,-0.9459999799728394
1683009121915399700,11.576399658203124,-0.5120999813079834,-0.3450999855995178,-0.45809999108314514
1683009121935401200,11.596401123046874,-0.5351999998092651,-0.3157999813556671,-0.3127000033855438
1683009121955399700,11.616399658203125,-0.3545999825000763,-0.3296000063419342,-0.29409998655319214
1683009121975399700,11.636399658203125,-0.1453000009059906,-0.35510000586509705,-0.5288999676704407
1683009121995399700,11.656399658203124,-0.060099996626377106,-0.28919997811317444,-0.8694999814033508
1683009122015399700,11.676399658203126,-0.15709999203681946,-0.24459999799728394,-1.150499939918518
1683009122035399700,11.696399658203125,-0.33949998021125793,-0.15109999477863312,-1.4807000160217285
1683009122055399700,11.716399658203125,-0.5375999808311462,-0.08899999409914017,-1.8306999206542969
1683009122075401200,11.736401123046875,-0.6376999616622925,-0.03319999948143959,-2.1120998859405518
1683009122095399700,11.756399658203126,-0.6487999558448792,0.05700000002980232,-2.256500005722046
1683009122115399700,11.776399658203125,-0.6155999898910522,0.15609999001026154,-2.205699920654297
1683009122135401200,11.796401123046875,-0.505899965763092,0.1670999974012375,-1.871899962425232
1683009122155399700,11.816399658203125,-0.5187999606132507,0.21899999678134918,-1.3040999174118042
1683009122175399700,11.836399658203124,-0.4652999937534332,0.3586999773979187,-0.7081999778747559
1683009122195399700,11.856399658203125,-0.36319997906684875,0.4203999936580658,-0.17159999907016754
1683009122215401200,11.876401123046875,-0.13109999895095825,0.5152999758720398,0.13989999890327454
1683009122235399700,11.896399658203125,0.0754999965429306,0.6247000098228455,0.09950000047683716
1683009122255399700,11.916399658203124,0.20829999446868896,0.6202999949455261,0.0697999969124794
1683009122275399700,11.936399658203126,0.18230000138282776,0.562999963760376,0.14839999377727509
1683009122295399700,11.956399658203125,0.15850000083446503,0.5347999930381775,0.47200000286102295
1683009122315399700,11.976399658203125,-0.02630000002682209,0.6225000023841858,0.9420999884605408
1683009122335402800,11.99640283203125,-0.1988999992609024,0.6816999912261963,1.2163000106811523
1683009122355399700,12.016399658203126,-0.5947999954223633,0.7095999717712402,1.4220999479293823
1683009122375402800,12.03640283203125,-0.6840999722480774,0.6182000041007996,1.5888999700546265
1683009122395402800,12.05640283203125,-0.21159999072551727,0.020800000056624413,2.444399833679199
1683009122415399700,12.076399658203124,0.3570999801158905,-0.33640000224113464,2.9866998195648193
1683009122435399700,12.096399658203126,0.5085999965667725,-0.519599974155426,2.9794998168945312
1683009122455399700,12.116399658203125,0.14749999344348907,-0.6940999627113342,2.744499921798706
1683009122475399700,12.136399658203125,0.06239999830722809,-0.6441999673843384,2.5367000102996826
1683009122495399700,12.156399658203124,-0.022599998861551285,-0.710099995136261,2.4357998371124268
1683009122515399700,12.176399658203126,-0.0032999999821186066,0.1655000001192093,1.3154000043869019
1683009122535399700,12.196399658203125,-0.14399999380111694,0.11419999599456787,-0.046299997717142105
1683009122555399700,12.216399658203125,0.12999999523162842,-0.04339999705553055,-0.7785999774932861
1683009122575401200,12.236401123046875,0.06430000066757202,-0.5012999773025513,-0.5412999987602234
1683009122595399700,12.256399658203126,-0.19529999792575836,-0.4510999917984009,-0.05219999700784683
1683009122615399700,12.276399658203125,-0.6822999715805054,-0.44689998030662537,0.5703999996185303
1683009122635401200,12.296401123046875,-0.8050999641418457,-0.2378999888896942,0.39809998869895935
1683009122655401200,12.316401123046875,-0.3982999920845032,-0.2759999930858612,-0.16459999978542328
1683009122675399700,12.336399658203124,0.43219998478889465,-0.3675999939441681,-0.47029998898506165
1683009122695399700,12.356399658203125,0.9222999811172485,-0.3982999920845032,-0.9027999639511108
1683009122715399700,12.376399658203125,1.0306999683380127,-0.48019999265670776,-1.4823999404907227
1683009122735399700,12.396399658203125,0.9158999919891357,-0.43529999256134033,-2.062199831008911
1683009122755399700,12.416399658203124,0.7461999654769897,-0.31299999356269836,-2.132699966430664
1683009122775399700,12.436399658203126,0.6460999846458435,-0.23600000143051147,-1.9191999435424805
1683009122795399700,12.456399658203125,0.5546000003814697,-0.125900000333786,-1.7350000143051147
1683009122815399700,12.476399658203125,0.5659999847412109,-0.022599998861551285,-1.296299934387207
1683009122835399700,12.496399658203124,0.6001999974250793,0.059699997305870056,-0.9458999633789062
1683009122855399700,12.516399658203126,0.6758999824523926,-0.04189999774098396,-0.7810999751091003
1683009122875399700,12.536399658203125,0.9269999861717224,0.40789997577667236,-0.7914999723434448
1683009122895399700,12.556399658203125,0.795199990272522,0.10679999738931656,-0.7127000093460083
1683009122915399700,12.576399658203124,0.7694000005722046,0.14710000157356262,-0.8395999670028687
1683009122935399700,12.596399658203126,0.675000011920929,0.17149999737739563,-0.45669999718666077
1683009122955399700,12.616399658203125,0.6067000031471252,0.2328999936580658,-0.01549999974668026
1683009122975399700,12.636399658203125,0.4284999966621399,0.34769999980926514,0.07270000129938126
1683009122995399700,12.656399658203124,0.37950000166893005,0.362199991941452,0.4648999869823456
1683009123015399700,12.676399658203126,0.4026999771595001,0.31839999556541443,0.9449999928474426
1683009123035399700,12.696399658203125,0.369299978017807,0.35109999775886536,1.375999927520752
1683009123055399700,12.716399658203125,0.21480000019073486,0.38029998540878296,1.6502999067306519
1683009123075399700,12.736399658203124,0.09479999542236328,0.20549999177455902,2.190000057220459
1683009123095399700,12.756399658203126,-0.12370000034570694,-0.3579999804496765,3.4054999351501465
1683009123115399700,12.776399658203125,0.06520000100135803,-0.9501000046730042,4.169399738311768
1683009123135399700,12.796399658203125,0.2962000072002411,-1.1223000288009644,4.119800090789795
1683009123155399700,12.816399658203125,0.4964999854564667,-0.7817999720573425,3.296299934387207
1683009123175399700,12.836399658203124,0.34540000557899475,-0.4983999729156494,2.092099905014038
1683009123195399700,12.856399658203125,-0.00989999994635582,-0.06790000200271606,0.9565999507904053
1683009123215399700,12.876399658203125,-0.5259000062942505,-0.39739999175071716,-1.1007999181747437
1683009123235399700,12.896399658203125,-0.47439998388290405,-0.31439998745918274,-1.431899905204773
1683009123255399700,12.916399658203124,-0.6905999779701233,-0.9276999831199646,-0.8027999997138977
1683009123275399700,12.936399658203126,-0.5798999667167664,-0.580299973487854,-0.11749999970197678
1683009123295399700,12.956399658203125,-0.6886999607086182,-0.6051999926567078,0.840399980545044
1683009123315399700,12.976399658203125,-0.33390000462532043,-0.4737999737262726,1.159999966621399
1683009123335399700,12.996399658203124,-0.04729999974370003,-0.45179998874664307,1.1374999284744263
1683009123355399700,13.016399658203126,0.1598999947309494,-0.3480999767780304,0.7246999740600586
1683009123375399700,13.036399658203125,0.12370000034570694,-0.2970999777317047,-0.17649999260902405
1683009123395399700,13.056399658203125,-0.10809999704360962,-0.30539998412132263,-0.9590999484062195
1683009123415399700,13.076399658203124,-0.4189999997615814,-0.2320999950170517,-1.5845999717712402
1683009123435399700,13.096399658203126,-0.7720999717712402,-0.1533999890089035,-2.152099847793579
1683009123455399700,13.116399658203125,-0.9526000022888184,-0.05689999833703041,-2.5632998943328857
1683009123475399700,13.136399658203125,-1.0002000331878662,0.12889999151229858,-2.906599998474121
1683009123495399700,13.156399658203124,-0.8944999575614929,0.3522000014781952,-2.985999822616577
1683009123515399700,13.176399658203126,-0.7884999513626099,0.5038999915122986,-2.7330000400543213
1683009123535399700,13.196399658203125,-0.6535999774932861,0.5471000075340271,-2.4219000339508057
1683009123555399700,13.216399658203125,-0.40459999442100525,0.45509999990463257,-2.013000011444092
1683009123575399700,13.236399658203124,-0.16499999165534973,0.34869998693466187,-1.5744999647140503
1683009123595399700,13.256399658203126,0.07360000163316727,0.2507999837398529,-1.0376999378204346
1683009123615399700,13.276399658203125,0.2556999921798706,0.2157999873161316,-0.38259997963905334
1683009123635399700,13.296399658203125,0.211899995803833,0.2847999930381775,0.27300000190734863
1683009123655399700,13.316399658203125,0.016999999061226845,0.42069998383522034,0.5669000148773193
1683009123675399700,13.336399658203124,-0.10809999704360962,0.47909998893737793,0.656499981880188
1683009123695399700,13.356399658203125,-0.10869999974966049,0.5216000080108643,0.7766000032424927
1683009123715399700,13.376399658203125,-0.14479999244213104,0.5091999769210815,0.8580999970436096
1683009123735399700,13.396399658203125,-0.15309999883174896,0.37549999356269836,1.1557999849319458
1683009123755399700,13.416399658203124,0.020899999886751175,0.2895999848842621,1.6883000135421753
1683009123775399700,13.436399658203126,0.06769999861717224,-0.08469999581575394,2.8867998123168945
1683009123795399700,13.456399658203125,0.18979999423027039,-0.018699999898672104,3.8469998836517334
1683009123815399700,13.476399658203125,0.2004999965429306,-0.05889999866485596,4.120699882507324
1683009123835399700,13.496399658203124,0.3028999865055084,-0.1387999951839447,4.021699905395508
1683009123855399700,13.516399658203126,0.5701000094413757,-0.46129998564720154,3.8651998043060303
1683009123875399700,13.536399658203125,0.560699999332428,-0.5521999597549438,3.3371999263763428
1683009123895399700,13.556399658203125,0.4821999967098236,-0.39809998869895935,2.456199884414673
1683009123915399700,13.576399658203124,0.42329999804496765,-0.1492999941110611,1.0467000007629395
1683009123935399700,13.596399658203126,0.38449999690055847,-0.09429999440908432,-0.5379999876022339
1683009123955399700,13.616399658203125,0.34759998321533203,-0.22190000116825104,-1.6900999546051025
1683009123975399700,13.636399658203125,0.43779999017715454,-0.6157000064849854,-1.7631999254226685
1683009123995399700,13.656399658203124,0.2987000048160553,-0.7856999635696411,-1.0556999444961548
1683009124015399700,13.676399658203126,-0.2791000008583069,-0.6258999705314636,-0.186599999666214
1683009124035399700,13.696399658203125,-0.670699954032898,-0.5288999676704407,0.5715999603271484
1683009124055399700,13.716399658203125,-0.7310000061988831,-0.3263999819755554,0.5263999700546265
1683009124075399700,13.736399658203124,-0.23889999091625214,-0.29510000348091125,0.05260000005364418
1683009124095399700,13.756399658203126,0.3596999943256378,-0.3619999885559082,-0.42879998683929443
1683009124115399700,13.776399658203125,0.7294999957084656,-0.3630000054836273,-0.8902999758720398
1683009124135399700,13.796399658203125,0.7409999966621399,-0.27709999680519104,-1.430799961090088
1683009124155399700,13.816399658203125,0.5216999650001526,-0.1736999899148941,-2.1275999546051025
1683009124175399700,13.836399658203124,0.2061000019311905,-0.11009999364614487,-2.539299964904785
1683009124195399700,13.856399658203125,-0.019199999049305916,-0.021699998527765274,-2.7246999740600586
1683009124215399700,13.876399658203125,-0.17579999566078186,0.07000000029802322,-2.733599901199341
1683009124235399700,13.896399658203125,-0.2393999993801117,0.19020000100135803,-2.3701999187469482
1683009124255399700,13.916399658203124,-0.2572999894618988,0.307699978351593,-1.7032999992370605
1683009124275399700,13.936399658203126,-0.17659999430179596,0.3822000026702881,-1.173699975013733
1683009124295399700,13.956399658203125,0.06960000097751617,0.3425999879837036,-0.5164999961853027
1683009124315399700,13.976399658203125,0.4075999855995178,0.23429998755455017,0.04209999740123749
1683009124335399700,13.996399658203124,0.7599999904632568,0.1574999988079071,0.5806999802589417
1683009124355399700,14.016399658203126,0.8536999821662903,0.14649999141693115,0.9126999974250793
1683009124375399700,14.036399658203125,0.7942000031471252,0.13570000231266022,1.2149999141693115
1683009124395401200,14.056401123046875,0.5785999894142151,0.10379999876022339,1.3212000131607056
1683009124415399700,14.076399658203124,0.4339999854564667,0.012999999336898327,1.6035999059677124
1683009124435401200,14.096401123046874,0.4169999957084656,-0.05909999832510948,2.1796998977661133
1683009124455399700,14.116399658203125,0.4350999891757965,-0.13349999487400055,2.697499990463257
1683009124475399700,14.136399658203125,0.6085000038146973,-0.3425000011920929,3.147599935531616
1683009124495401200,14.156401123046875,0.9372999668121338,-0.7030999660491943,4.56820011138916
1683009124515399700,14.176399658203126,1.0068999528884888,-1.0311999320983887,6.251800060272217
1683009124535399700,14.196399658203125,0.7773000001907349,-0.9337999820709229,6.681099891662598
1683009124555399700,14.216399658203125,0.4641999900341034,-0.02019999921321869,4.39709997177124
1683009124575401200,14.236401123046875,0.09719999879598618,0.41200000047683716,1.654599905014038
1683009124595399700,14.256399658203126,-0.034699998795986176,0.6785999536514282,-0.5759999752044678
1683009124615399700,14.276399658203125,-0.17989999055862427,0.49390000104904175,-1.8358999490737915
1683009124635401200,14.296401123046875,-0.28049999475479126,0.18289999663829803,-2.0190000534057617
1683009124655401200,14.316401123046875,-0.3962000012397766,-0.3229999840259552,-1.6171000003814697
1683009124675399700,14.336399658203124,-0.457099974155426,-0.574400007724762,-1.5887999534606934
1683009124695399700,14.356399658203125,-0.4803999960422516,-0.7095999717712402,-1.8148999214172363
1683009124715401200,14.376401123046875,-0.30239999294281006,-0.7694999575614929,-2.0009000301361084
1683009124735399700,14.396399658203125,-0.14079999923706055,-0.7669000029563904,-2.098599910736084
1683009124755399700,14.416399658203124,-0.049300000071525574,-0.5288999676704407,-2.030099868774414
1683009124775399700,14.436399658203126,-0.10489999502897263,-0.2502000033855438,-1.8939999341964722
1683009124795399700,14.456399658203125,-0.148499995470047,-0.02290000021457672,-2.0227999687194824
1683009124815399700,14.476399658203125,-0.4008999764919281,-0.0414000004529953,-2.3671000003814697
1683009124835399700,14.496399658203124,-0.45659998059272766,-0.06549999862909317,-2.631999969482422
1683009124855399700,14.516399658203126,-0.4301999807357788,-0.08500000089406967,-2.7002999782562256
1683009124875399700,14.536399658203125,-0.4438999891281128,0.010699999518692493,-2.6517999172210693
1683009124895399700,14.556399658203125,-0.46959999203681946,0.17009998857975006,-2.623499870300293
1683009124915399700,14.576399658203124,-0.3824999928474426,0.30879998207092285,-2.496799945831299
1683009124935401200,14.596401123046874,-0.16189999878406525,0.15489999949932098,-1.6341999769210815
1683009124955399700,14.616399658203125,0.28299999237060547,-0.054499998688697815,-0.05649999901652336
1683009124975399700,14.636399658203125,0.5579000115394592,-0.13120000064373016,1.5778999328613281
1683009124995401200,14.656401123046875,0.8190999627113342,0.014599999412894249,2.2897000312805176
1683009125015399700,14.676399658203126,0.9924999475479126,0.37109997868537903,1.6303999423980713
1683009125035399700,14.696399658203125,1.1661999225616455,0.6632999777793884,0.640500009059906
1683009125055399700,14.716399658203125,1.2725999355316162,0.8276999592781067,-0.06229999661445618
1683009125075401200,14.736401123046875,0.6796999573707581,0.8531999588012695,-0.008100000210106373
1683009125095399700,14.756399658203126,-0.39309999346733093,0.8624999523162842,0.4958999752998352
1683009125115399700,14.776399658203125,-1.1713999509811401,0.9368000030517578,0.8513999581336975
1683009125135401200,14.796401123046875,-1.7187999486923218,0.7268999814987183,1.244499921798706
1683009125155399700,14.816399658203125,-1.3291000127792358,0.27809998393058777,2.0780999660491943
1683009125175399700,14.836399658203124,-0.41679999232292175,-0.3255999982357025,3.833400011062622
1683009125195399700,14.856399658203125,0.5491999983787537,-0.5065999627113342,5.156599998474121
1683009125215401200,14.876401123046875,0.9531999826431274,-0.41130000352859497,5.461699962615967
1683009125235399700,14.896399658203125,1.0625,-0.2807999849319458,5.003299713134766
1683009125255399700,14.916399658203124,0.9765999913215637,-0.2883000075817108,4.183499813079834
1683009125275399700,14.936399658203126,0.7145999670028687,-0.18159998953342438,2.7366998195648193
1683009125295399700,14.956399658203125,0.13199999928474426,-0.061799999326467514,0.7321999669075012
1683009125315399700,14.976399658203125,-0.44739997386932373,-0.03500000014901161,-1.0339999198913574
1683009125335399700,14.996399658203124,-0.7928000092506409,-0.24549999833106995,-1.9672999382019043
1683009125355401200,15.016401123046874,-1.0099999904632568,-0.25360000133514404,-1.6195999383926392
1683009125375399700,15.036399658203125,-0.9657999873161316,-0.04339999705553055,-0.13989999890327454
1683009125395402800,15.05640283203125,-1.152999997138977,0.3358999788761139,0.785099983215332
1683009125415399700,15.076399658203124,-1.1305999755859375,0.4396999776363373,0.8348999619483948
1683009125435401200,15.096401123046874,-0.1711999922990799,0.22019998729228973,0.15129999816417694
1683009125455399700,15.116399658203125,0.897599995136261,-0.0414000004529953,-1.1655999422073364
1683009125475399700,15.136399658203125,1.423200011253357,-0.24489998817443848,-2.2254998683929443
1683009125495399700,15.156399658203124,1.69159996509552,-0.29819998145103455,-3.0100998878479004
1683009125515399700,15.176399658203126,1.3026000261306763,-0.21299999952316284,-3.7854998111724854
1683009125535399700,15.196399658203125,0.5133000016212463,0.045499999076128006,-4.041800022125244
1683009125555399700,15.216399658203125,-0.09389999508857727,0.27459999918937683,-3.5720999240875244
1683009125575399700,15.236399658203124,-0.24719999730587006,0.5113999843597412,-3.072399854660034
1683009125595399700,15.256399658203126,-0.26729997992515564,0.5396000146865845,-2.416100025177002
1683009125615399700,15.276399658203125,-0.14239999651908875,0.5257999897003174,-1.309999942779541
1683009125635399700,15.296399658203125,0.20559999346733093,0.6096000075340271,-0.2538999915122986
1683009125655402800,15.31640283203125,0.5392999649047852,0.6092999577522278,0.6255999803543091
1683009125675399700,15.336399658203124,0.8920999765396118,0.6238999962806702,1.0839999914169312
1683009125695399700,15.356399658203125,1.3489999771118164,0.5417999625205994,0.7579999566078186
1683009125715401200,15.376401123046875,1.6764999628067017,0.3642999827861786,0.1770000010728836
1683009125735399700,15.396399658203125,1.8641999959945679,0.09039999544620514,0.007599999662488699
1683009125755399700,15.416399658203124,1.739799976348877,0.09129999577999115,-0.2590999901294708
1683009125775399700,15.436399658203126,1.462999939918518,0.3243999779224396,-0.5443999767303467
1683009125795399700,15.456399658203125,1.0180000066757202,0.6541999578475952,-0.6032999753952026
1683009125815399700,15.476399658203125,0.5751000046730042,0.9062999486923218,-0.6225999593734741
1683009125835399700,15.496399658203124,0.21789999306201935,1.1484999656677246,-0.6324999928474426
1683009125855399700,15.516399658203126,0.2378999888896942,1.2513999938964844,-0.29979997873306274
1683009125875399700,15.536399658203125,0.5020999908447266,1.323199987411499,0.23829999566078186
1683009125895399700,15.556399658203125,0.8219999670982361,1.2551000118255615,0.9036999940872192
1683009125915399700,15.576399658203124,1.2746999263763428,1.0221999883651733,1.5884000062942505
1683009125935399700,15.596399658203126,1.7674999237060547,0.3955000042915344,2.6649999618530273
1683009125955399700,15.616399658203125,2.037299871444702,-0.20149999856948853,3.9282000064849854
1683009125975399700,15.636399658203125,2.0212998390197754,0.09309999644756317,3.34879994392395
1683009125995399700,15.656399658203124,1.6459999084472656,0.5435000061988831,1.3679999113082886
1683009126015399700,15.676399658203126,1.5139999389648438,0.8277999758720398,-0.6717000007629395
1683009126035399700,15.696399658203125,1.323099970817566,0.8603999614715576,-2.299299955368042
1683009126055399700,15.716399658203125,1.0439000129699707,0.6509999632835388,-2.6726999282836914
1683009126075401200,15.736401123046875,0.7958999872207642,0.050200000405311584,-1.173699975013733
1683009126095399700,15.756399658203126,0.8104999661445618,-0.11919999867677689,0.9138999581336975
1683009126115399700,15.776399658203125,0.8051999807357788,-0.012299999594688416,2.2475998401641846
1683009126135401200,15.796401123046875,1.354099988937378,0.15320000052452087,1.9930999279022217
1683009126155401200,15.816401123046875,2.108099937438965,-0.05429999902844429,1.0210999250411987
1683009126175399700,15.836399658203124,2.8289999961853027,-0.29569998383522034,0.07759999483823776
1683009126195399700,15.856399658203125,2.894199848175049,-0.46789997816085815,-0.2863999903202057
1683009126215401200,15.876401123046875,1.9743999242782593,-0.5587999820709229,-0.23749999701976776
1683009126235399700,15.896399658203125,0.5813999772071838,-0.6504999995231628,-0.34540000557899475
1683009126255399700,15.916399658203124,-0.19299998879432678,-0.7461000084877014,-0.42419999837875366
1683009126275399700,15.936399658203126,-0.1005999967455864,-0.6585999727249146,-0.601099967956543
1683009126295399700,15.956399658203125,0.45479997992515564,-0.5690000057220459,-0.777899980545044
1683009126315399700,15.976399658203125,1.0484999418258667,-0.4635999798774719,-0.8662999868392944
1683009126335399700,15.996399658203124,1.4215999841690063,-0.39329999685287476,-0.9253000020980835
1683009126355399700,16.016399658203124,1.7773998975753784,-0.34869998693466187,-0.8173999786376953
1683009126375399700,16.036399658203123,1.9950999021530151,-0.4259999990463257,-0.7581999897956848
1683009126395399700,16.056399658203127,2.0013999938964844,-0.3902999758720398,-0.6498000025749207
1683009126415399700,16.076399658203126,1.71589994430542,-0.3310000002384186,-0.4235000014305115
1683009126435399700,16.096399658203126,1.2853000164031982,-0.2994999885559082,-0.21660000085830688
1683009126455399700,16.116399658203125,0.9945999979972839,-0.2247999906539917,-0.27480000257492065
1683009126475399700,16.136399658203125,0.9391999840736389,-0.060999996960163116,-0.5686999559402466
1683009126495399700,16.156399658203124,0.9928999543190002,-0.04609999805688858,-0.7943999767303467
1683009126515399700,16.176399658203124,1.07069993019104,-0.03519999980926514,-0.7750999927520752
1683009126535399700,16.196399658203124,0.9875999689102173,0.017799999564886093,-0.6771000027656555
1683009126555399700,16.216399658203127,0.9361000061035156,0.1394999921321869,-0.19619999825954437
1683009126575401200,16.236401123046875,0.9115999937057495,0.3366999924182892,0.24569998681545258
1683009126595399700,16.256399658203126,0.9044999480247498,0.40070000290870667,0.39319998025894165
1683009126615399700,16.276399658203125,0.8509999513626099,0.42010000348091125,0.5309000015258789
1683009126635399700,16.296399658203125,0.7396999597549438,0.43879997730255127,0.7177000045776367
1683009126655401200,16.316401123046877,0.5778999924659729,0.30559998750686646,1.1888999938964844
1683009126675399700,16.336399658203124,0.6141999959945679,0.09799999743700027,2.0521998405456543
1683009126695399700,16.356399658203124,0.524899959564209,0.08100000023841858,2.6803998947143555
1683009126715401200,16.376401123046875,0.35420000553131104,0.22109998762607574,2.6614999771118164
1683009126735399700,16.396399658203126,0.35819998383522034,0.06599999964237213,2.534099817276001
1683009126755399700,16.416399658203126,0.8222000002861023,-0.30789998173713684,2.2786998748779297
1683009126775399700,16.436399658203126,1.1417999267578125,-0.5812999606132507,1.5037999153137207
1683009126795399700,16.456399658203125,1.0943000316619873,-0.8097999691963196,0.30799999833106995
1683009126815399700,16.476399658203125,1.0246999263763428,-0.9535999894142151,-0.7788999676704407
1683009126835399700,16.496399658203124,1.1311999559402466,-1.0823999643325806,-1.0516999959945679
1683009126855399700,16.516399658203124,1.3774999380111694,-1.1115999221801758,-0.7662999629974365
1683009126875399700,16.536399658203123,1.3696999549865723,-1.107200026512146,-0.5016999840736389
1683009126895399700,16.556399658203127,1.4148999452590942,-1.0612999200820923,-0.13040000200271606
1683009126915399700,16.576399658203126,1.4718999862670898,-1.1239999532699585,0.30889999866485596
1683009126935401200,16.596401123046874,1.4495999813079834,-1.1746000051498413,0.46480000019073486
1683009126955399700,16.616399658203125,1.2799999713897705,-1.1567000150680542,0.5133999586105347
1683009126975399700,16.636399658203125,0.9908999800682068,-1.0408999919891357,0.23849999904632568
1683009126995399700,16.656399658203124,0.7644999623298645,-0.7658999562263489,-0.4772999882698059
1683009127015399700,16.676399658203124,0.6976000070571899,-0.6372999548912048,-1.124400019645691
1683009127035399700,16.696399658203124,0.9573999643325806,-0.6089999675750732,-1.5063999891281128
1683009127055402800,16.71640283203125,1.2142000198364258,-0.6158999800682068,-1.4566999673843384
1683009127075401200,16.736401123046875,1.4276999235153198,-0.5507999658584595,-1.2008999586105347
1683009127095402800,16.75640283203125,1.2511999607086182,-0.3619000017642975,-0.7196999788284302
1683009127115402800,16.77640283203125,1.277999997138977,-0.06309999525547028,-0.23809999227523804
1683009127135402800,16.79640283203125,1.2577999830245972,0.16859999299049377,-0.08969999849796295
1683009127155402800,16.81640283203125,1.2626999616622925,0.34360000491142273,-0.09799999743700027
1683009127175399700,16.836399658203124,1.30239999294281,0.5047000050544739,-0.1256999969482422
1683009127195399700,16.856399658203124,1.3446999788284302,0.5895999670028687,-0.19259999692440033
1683009127215399700,16.876399658203123,1.3179999589920044,0.6570999622344971,-0.19110000133514404
1683009127235399700,16.896399658203126,1.2437999248504639,0.8179000020027161,-0.24869999289512634
1683009127255399700,16.916399658203126,1.1907999515533447,0.92249995470047,-0.12039999663829803
1683009127275399700,16.936399658203126,1.136099934577942,0.9528999924659729,0.2231999933719635
1683009127295399700,16.956399658203125,1.0576000213623047,0.9275999665260315,0.6545999646186829
1683009127315399700,16.976399658203125,1.145799994468689,0.7918999791145325,0.90829998254776
1683009127335399700,16.996399658203124,1.3931000232696533,0.5954999923706055,1.01419997215271
1683009127355399700,17.016399658203124,1.5782999992370605,0.42170000076293945,0.9727999567985535
1683009127375399700,17.036399658203123,1.640199899673462,0.16820000112056732,1.1080999374389648
1683009127395399700,17.056399658203127,1.722999930381775,-0.15959998965263367,2.0379998683929443
1683009127415399700,17.076399658203126,1.8133999109268188,-0.2069000005722046,2.7527999877929688
1683009127435399700,17.096399658203126,1.6586999893188477,0.14090000092983246,1.9186999797821045
1683009127455399700,17.116399658203125,1.4433000087738037,0.2696000039577484,0.7896999716758728
1683009127475399700,17.136399658203125,1.4535999298095703,0.30159997940063477,-0.3199000060558319
1683009127495399700,17.156399658203124,1.4474999904632568,-0.07149999588727951,-1.1456999778747559
1683009127515399700,17.176399658203124,1.3154000043869019,-0.9386000037193298,-1.0693999528884888
1683009127535399700,17.196399658203124,1.3624999523162842,-1.5906999111175537,-0.561199963092804
1683009127555399700,17.216399658203127,1.528899908065796,-1.7547999620437622,0.3105999827384949
1683009127575399700,17.236399658203126,1.7508999109268188,-1.4636999368667603,1.1338999271392822
1683009127595399700,17.256399658203126,1.8961999416351318,-1.180999994277954,1.2417999505996704
1683009127615399700,17.276399658203125,1.9027999639511108,-0.9812999963760376,0.6444000005722046
1683009127635399700,17.296399658203125,1.6340999603271484,-0.9381999969482422,-0.03059999831020832
1683009127655399700,17.316399658203125,1.0116000175476074,-1.0228999853134155,-0.362199991941452
1683009127675399700,17.336399658203124,0.25270000100135803,-1.1160999536514282,-0.56659996509552
1683009127695399700,17.356399658203124,-0.21599999070167542,-1.0363999605178833,-0.6245999932289124
1683009127715399700,17.376399658203123,-0.37770000100135803,-0.8547999858856201,-0.4477999806404114
1683009127735399700,17.396399658203126,-0.24849998950958252,-0.6316999793052673,-0.17319999635219574
1683009127755399700,17.416399658203126,0.188400000333786,-0.47049999237060547,0.2775999903678894
1683009127775399700,17.436399658203126,0.5382999777793884,-0.2881999909877777,0.2775000035762787
1683009127795399700,17.456399658203125,0.7283999919891357,-0.16210000216960907,0.10099999606609344
1683009127815399700,17.476399658203125,0.7209999561309814,-0.15699999034404755,0.0421999990940094
1683009127835399700,17.496399658203124,0.5654999613761902,-0.1673000007867813,-0.14399999380111694
1683009127855399700,17.516399658203124,0.32729998230934143,-0.11259999871253967,-0.3888999819755554
1683009127875399700,17.536399658203123,0.013100000098347664,-0.05049999803304672,-0.6633999943733215
1683009127895399700,17.556399658203127,-0.12529999017715454,0.03240000084042549,-0.8104000091552734
1683009127915399700,17.576399658203126,-0.15389999747276306,0.15969999134540558,-0.7710999846458435
1683009127935399700,17.596399658203126,-0.10799999535083771,0.30379998683929443,-0.46709999442100525
1683009127955399700,17.616399658203125,0.04129999876022339,0.5317999720573425,-0.11419999599456787
1683009127975399700,17.636399658203125,0.2502000033855438,0.621399998664856,0.012999999336898327
1683009127995399700,17.656399658203124,0.4355999827384949,0.666700005531311,0.07229999452829361
1683009128015399700,17.676399658203124,0.5516999959945679,0.7196999788284302,0.21089999377727509
1683009128035399700,17.696399658203124,0.4219000041484833,0.8222999572753906,0.5654000043869019
1683009128055399700,17.716399658203127,0.029500000178813934,0.8224999904632568,0.9580000042915344
1683009128075399700,17.736399658203126,-0.1671999990940094,0.7105000019073486,1.0260000228881836
1683009128095399700,17.756399658203126,-0.06390000134706497,0.515500009059906,1.163100004196167
1683009128115399700,17.776399658203125,0.3612000048160553,0.24139998853206635,1.6150000095367432
1683009128135399700,17.796399658203125,0.6541999578475952,0.015199999324977398,2.2439000606536865
1683009128155399700,17.816399658203125,0.5015000104904175,-0.3511999845504761,2.7934999465942383
1683009128175399700,17.836399658203124,0.24239999055862427,-0.6459000110626221,2.8232998847961426
1683009128195399700,17.856399658203124,0.5008000135421753,-0.8491999506950378,2.47160005569458
1683009128215401200,17.876401123046875,0.9321999549865723,-1.0673999786376953,2.581199884414673
1683009128235399700,17.896399658203126,1.3320000171661377,-1.073199987411499,2.857300043106079
1683009128255399700,17.916399658203126,1.3518999814987183,-0.7305999994277954,2.5744998455047607
1683009128275399700,17.936399658203126,1.0683000087738037,-0.5284000039100647,1.3909000158309937
1683009128295399700,17.956399658203125,0.9301999807357788,-0.6104999780654907,0.11149999499320984
1683009128315399700,17.976399658203125,0.5878999829292297,-0.8181999921798706,-0.2840999960899353
1683009128335399700,17.996399658203124,0.2655999958515167,-1.0794999599456787,-0.337799996137619
1683009128355399700,18.016399658203124,-0.26669999957084656,-1.208299994468689,-0.31610000133514404
1683009128375399700,18.036399658203123,-0.27070000767707825,-1.2561999559402466,-0.305899977684021
1683009128395399700,18.056399658203127,-0.08549999445676804,-1.1859999895095825,-0.37439998984336853
1683009128415399700,18.076399658203126,0.1573999971151352,-1.1483999490737915,-0.35349997878074646
1683009128435401200,18.096401123046874,0.3471999764442444,-1.104699969291687,-0.6851999759674072
1683009128455399700,18.116399658203125,0.5062999725341797,-1.1994999647140503,-1.0180000066757202
1683009128475399700,18.136399658203125,0.5471999645233154,-1.257599949836731,-1.1948000192642212
1683009128495399700,18.156399658203124,0.5489999651908875,-1.1826999187469482,-1.4205999374389648
1683009128515399700,18.176399658203124,0.4706999957561493,-1.02839994430542,-1.5568000078201294
1683009128535399700,18.196399658203124,0.4447000026702881,-0.8565999865531921,-1.5058999061584473
1683009128555399700,18.216399658203127,0.20309999585151672,-0.7691999673843384,-1.3184999227523804
1683009128575399700,18.236399658203126,-0.003000000026077032,-0.6330999732017517,-1.2005000114440918
1683009128595399700,18.256399658203126,-0.12849999964237213,-0.5288999676704407,-1.1119999885559082
1683009128615399700,18.276399658203125,-0.15799999237060547,-0.42669999599456787,-1.0037999153137207
1683009128635399700,18.296399658203125,-0.18869999051094055,-0.2897000014781952,-0.8858000040054321
1683009128655399700,18.316399658203125,-0.2198999971151352,-0.2556999921798706,-0.6599000096321106
1683009128675399700,18.336399658203124,-0.12049999833106995,-0.32519999146461487,-0.4050999879837036
1683009128695399700,18.356399658203124,0.0737999975681305,-0.41179999709129333,-0.2491999864578247
1683009128715399700,18.376399658203123,0.34119999408721924,-0.4311999976634979,0.09239999949932098
1683009128735399700,18.396399658203126,0.4657999873161316,-0.32600000500679016,0.42399999499320984
1683009128755399700,18.416399658203126,0.47769999504089355,-0.11800000071525574,0.579800009727478
1683009128775399700,18.436399658203126,0.3292999863624573,0.037299998104572296,0.6965999603271484
1683009128795399700,18.456399658203125,0.28279998898506165,0.014399999752640724,1.1464999914169312
1683009128815399700,18.476399658203125,0.22299998998641968,-0.09679999947547913,1.7035999298095703
1683009128835399700,18.496399658203124,0.16539999842643738,-0.29319998621940613,2.299799919128418
1683009128855399700,18.516399658203124,0.30949997901916504,-0.424699991941452,3.2879998683929443
1683009128875399700,18.536399658203123,0.5710999965667725,-0.6399999856948853,4.539799690246582
1683009128895399700,18.556399658203127,0.9598999619483948,-0.7325999736785889,4.977200031280518
1683009128915399700,18.576399658203126,1.1043999195098877,-0.924299955368042,4.8171000480651855
1683009128935399700,18.596399658203126,0.8953999876976013,-0.7001999616622925,3.5110998153686523
1683009128955399700,18.616399658203125,0.07339999824762344,-0.28689998388290405,1.186900019645691
1683009128975399700,18.636399658203125,-0.6647999882698059,0.05979999899864197,-0.9111999869346619
1683009128995399700,18.656399658203124,-1.0356999635696411,-0.008599999360740185,-1.9305999279022217
1683009129015399700,18.676399658203124,-0.98089998960495,-0.2126999944448471,-1.284500002861023
1683009129035399700,18.696399658203124,-0.69159996509552,-0.09039999544620514,-0.18799999356269836
1683009129055399700,18.716399658203127,-0.5580999851226807,0.0414000004529953,0.5447999835014343
1683009129075399700,18.736399658203126,-0.2815999984741211,-0.16200000047683716,0.6205999851226807
1683009129095399700,18.756399658203126,-0.0023999998811632395,-0.40049999952316284,0.0210999995470047
1683009129115399700,18.776399658203125,0.34450000524520874,-0.7657999992370605,-0.41920000314712524
1683009129135399700,18.796399658203125,0.3263999819755554,-1.0053999423980713,-0.8971999883651733
1683009129155399700,18.816399658203125,-0.0754999965429306,-0.8982999920845032,-1.267199993133545
1683009129175399700,18.836399658203124,-0.686199963092804,-0.7159000039100647,-1.823799967765808
1683009129195399700,18.856399658203124,-0.9991999864578247,-0.6358000040054321,-2.3021998405456543
1683009129215399700,18.876399658203123,-1.0398999452590942,-0.42479997873306274,-2.8295998573303223
1683009129235399700,18.896399658203126,-1.0880999565124512,-0.28329998254776,-2.6612000465393066
1683009129255399700,18.916399658203126,-1.0672999620437622,-0.11289999634027481,-2.3968000411987305
1683009129275399700,18.936399658203126,-0.8868999481201172,0.12119999527931213,-2.231600046157837
1683009129295399700,18.956399658203125,-0.5586999654769897,0.28679999709129333,-2.0957999229431152
1683009129315399700,18.976399658203125,-0.2615000009536743,0.3880999982357025,-2.106799840927124
1683009129335399700,18.996399658203124,0.07440000027418137,0.3149999976158142,-1.9706000089645386
1683009129355399700,19.016399658203124,0.1939999908208847,0.23339998722076416,-1.5113999843597412
1683009129375399700,19.036399658203123,0.2599000036716461,0.41830000281333923,-0.895799994468689
1683009129395399700,19.056399658203127,0.1834999918937683,0.6638999581336975,-0.34849998354911804
1683009129415399700,19.076399658203126,0.2777999937534332,0.9144999980926514,0.05209999904036522
1683009129435399700,19.096399658203126,0.42809998989105225,1.0698000192642212,0.3164999783039093
1683009129455399700,19.116399658203125,0.4869999885559082,1.1167999505996704,0.9152999520301819
1683009129475399700,19.136399658203125,0.3723999857902527,1.1059999465942383,1.7401999235153198
1683009129495399700,19.156399658203124,0.24120000004768372,1.07069993019104,2.340100049972534
1683009129515399700,19.176399658203124,-0.0058999997563660145,0.823199987411499,2.5279998779296875
1683009129535399700,19.196399658203124,0.00419999985024333,0.5730000138282776,2.549799919128418
1683009129555399700,19.216399658203127,0.09200000017881393,0.14339999854564667,2.8471999168395996
1683009129575399700,19.236399658203126,0.22630000114440918,-0.02539999969303608,4.036499977111816
1683009129595399700,19.256399658203126,0.03959999978542328,-0.05739999935030937,4.793299674987793
1683009129615399700,19.276399658203125,-0.4156000018119812,0.006799999624490738,4.744699954986572
1683009129635399700,19.296399658203125,-0.645799994468689,-0.2248999923467636,3.617299795150757
1683009129655399700,19.316399658203125,-0.2662000060081482,-0.4642999768257141,1.952199935913086
1683009129675399700,19.336399658203124,0.11149999499320984,-0.5735999941825867,0.2597000002861023
1683009129695399700,19.356399658203124,0.3044999837875366,-0.6818000078201294,-0.9607999920845032
1683009129715399700,19.376399658203123,0.3215000033378601,-0.8191999793052673,-1.0849000215530396
1683009129735399700,19.396399658203126,0.013299999758601189,-0.626800000667572,-0.3489999771118164
1683009129755399700,19.416399658203126,-0.5457000136375427,-0.4869999885559082,0.5715999603271484
1683009129775399700,19.436399658203126,-0.8654999732971191,-0.44579997658729553,0.9132999777793884
1683009129795399700,19.456399658203125,-0.8942999839782715,-0.6195999979972839,0.5004000067710876
1683009129815399700,19.476399658203125,-0.5127999782562256,-0.7172999978065491,-0.6761999726295471
1683009129835399700,19.496399658203124,-0.2321999967098236,-0.7811999917030334,-1.7142999172210693
1683009129855399700,19.516399658203124,-0.23420000076293945,-0.9498999714851379,-2.1641998291015625
1683009129875399700,19.536399658203123,-0.16380000114440918,-0.7866999506950378,-2.546799898147583
1683009129895399700,19.556399658203127,-0.2475999891757965,-0.4763999879360199,-2.450199842453003
1683009129915399700,19.576399658203126,-0.462799996137619,-0.13920000195503235,-2.021399974822998
1683009129935399700,19.596399658203126,-0.4323999881744385,0.061799999326467514,-2.0040998458862305
1683009129955399700,19.616399658203125,-0.17350000143051147,0.16369999945163727,-1.8585000038146973
1683009129975399700,19.636399658203125,0.2574000060558319,0.01209999993443489,-1.810499906539917
1683009129995399700,19.656399658203124,0.535099983215332,-0.2028999924659729,-1.8503999710083008
1683009130015399700,19.676399658203124,0.7811999917030334,-0.3001999855041504,-1.6546999216079712
1683009130035399700,19.696399658203124,1.0769000053405762,-0.23409999907016754,-1.233299970626831
1683009130055399700,19.716399658203127,1.1725000143051147,-0.15230000019073486,-0.43939998745918274
1683009130075399700,19.736399658203126,1.1705999374389648,-0.04729999974370003,0.31529998779296875
1683009130095399700,19.756399658203126,1.1140999794006348,0.05559999868273735,0.8549999594688416
1683009130115399700,19.776399658203125,1.0978999137878418,0.2920999825000763,1.101099967956543
1683009130135399700,19.796399658203125,0.9440999627113342,0.4453999996185303,1.122399926185608
1683009130155399700,19.816399658203125,0.7117999792098999,0.5888999700546265,0.8402000069618225
1683009130175399700,19.836399658203124,0.5048999786376953,0.6548999547958374,0.7834999561309814
1683009130195399700,19.856399658203124,0.2709999978542328,0.7396000027656555,0.8833999633789062
1683009130215399700,19.876399658203123,-0.08720000088214874,0.8145999908447266,1.257699966430664
1683009130235399700,19.896399658203126,-0.349700003862381,0.8687999844551086,1.7587999105453491
1683009130255399700,19.916399658203126,-0.5526999831199646,0.5830999612808228,2.650899887084961
1683009130275399700,19.936399658203126,-0.4490000009536743,0.08709999918937683,4.080999851226807
1683009130295399700,19.956399658203125,-0.10529999434947968,-0.4235000014305115,5.764199733734131
1683009130315399700,19.976399658203125,0.33469998836517334,-0.656499981880188,5.8780999183654785
1683009130335399700,19.996399658203124,0.49289998412132263,-0.4129999876022339,4.012599945068359
1683009130355399700,20.016399658203124,0.29330000281333923,-0.33409997820854187,1.8441998958587646
1683009130375399700,20.036399658203123,-0.07000000029802322,-0.3141999840736389,-0.13750000298023224
1683009130395399700,20.056399658203127,-0.5169999599456787,-0.4502999782562256,-1.5992999076843262
1683009130415399700,20.076399658203126,-0.7182999849319458,-0.5964999794960022,-2.071199893951416
1683009130435399700,20.096399658203126,-0.6685999631881714,-0.6244999766349792,-1.7197999954223633
1683009130455399700,20.116399658203125,-0.5812999606132507,-0.4730999767780304,-1.1919000148773193
1683009130475399700,20.136399658203125,-0.5311999917030334,-0.32749998569488525,-0.8992999792098999
1683009130495399700,20.156399658203124,-0.4521999955177307,-0.29899999499320984,-0.8226999640464783
1683009130515402800,20.17640283203125,-0.4658999741077423,-0.23909999430179596,-0.6967999935150146
1683009130535399700,20.196399658203124,-0.5920999646186829,-0.10429999977350235,-0.7275999784469604
1683009130555399700,20.216399658203127,-0.7723999619483948,-0.003000000026077032,-0.993399977684021
1683009130575401200,20.236401123046875,-0.850600004196167,0.01979999989271164,-1.445099949836731
1683009130595399700,20.256399658203126,-0.9019999504089355,-0.05009999871253967,-1.9357999563217163
1683009130615399700,20.276399658203125,-0.9062999486923218,-0.042799998074769974,-2.37719988822937
1683009130635399700,20.296399658203125,-0.8973000049591064,0.012899999506771564,-2.5244998931884766
1683009130655401200,20.316401123046877,-0.8690999746322632,0.05199999734759331,-2.368299961090088
1683009130675399700,20.336399658203124,-0.810699999332428,0.07569999992847443,-1.8203999996185303
1683009130695399700,20.356399658203124,-0.6620999574661255,0.23600000143051147,-1.3903999328613281
1683009130715401200,20.376401123046875,-0.4640999734401703,0.2231999933719635,-0.7935999631881714
1683009130735399700,20.396399658203126,-0.2947999835014343,0.25270000100135803,-0.2947999835014343
1683009130755399700,20.416399658203126,-0.22540000081062317,0.25040000677108765,0.07660000026226044
1683009130775399700,20.436399658203126,-0.19839999079704285,0.218299999833107,0.45799997448921204
1683009130795399700,20.456399658203125,-0.18539999425411224,0.21649999916553497,0.5063999891281128
1683009130815399700,20.476399658203125,-0.04360000044107437,0.2921999990940094,0.604200005531311
1683009130835399700,20.496399658203124,0.0279999990016222,0.4943999946117401,0.8296999931335449
1683009130855399700,20.516399658203124,-0.1078999936580658,0.6992999911308289,1.0260000228881836
1683009130875399700,20.536399658203123,-0.2149999886751175,0.7448999881744385,1.3888999223709106
1683009130895399700,20.556399658203127,-0.42010000348091125,0.6980999708175659,1.7028999328613281
1683009130915399700,20.576399658203126,-0.4296000003814697,0.6924999952316284,1.6053999662399292
1683009130935401200,20.596401123046874,-0.23330000042915344,0.3601999878883362,1.6651999950408936
1683009130955399700,20.616399658203125,0.13669998943805695,-0.2102999985218048,2.8137998580932617
1683009130975399700,20.636399658203125,0.3852999806404114,-0.3132999837398529,4.128299713134766
1683009130995399700,20.656399658203124,0.3626999855041504,-0.23669999837875366,4.824599742889404
1683009131015399700,20.676399658203124,0.2708999812602997,-0.04569999873638153,4.138700008392334
1683009131035402800,20.69640283203125,0.27969998121261597,-0.10399999469518661,2.2577998638153076
1683009131055402800,20.71640283203125,0.282399982213974,-0.07319999486207962,-0.08190000057220459
1683009131075402800,20.73640283203125,0.3549000024795532,-0.17759999632835388,-1.6154999732971191
1683009131095399700,20.756399658203126,0.13459999859333038,-0.36229997873306274,-2.325399875640869
1683009131115399700,20.776399658203125,-0.4132999777793884,-0.482699990272522,-1.9012999534606934
1683009131135399700,20.796399658203125,-0.7608000040054321,-0.1678999960422516,-0.8030999898910522
1683009131155399700,20.816399658203125,-0.6003999710083008,0.14959999918937683,0.07909999787807465
1683009131175399700,20.836399658203124,0.01269999984651804,0.22749999165534973,0.6474999785423279
1683009131195399700,20.856399658203124,0.33390000462532043,0.19739998877048492,0.7742999792098999
1683009131215401200,20.876401123046875,0.09030000120401382,-0.07329999655485153,0.08779999613761902
1683009131235399700,20.896399658203126,-0.08669999986886978,-0.28919997811317444,-0.8727999925613403
1683009131255399700,20.916399658203126,0.028099998831748962,-0.4277999997138977,-1.3233000040054321
1683009131275399700,20.936399658203126,0.1103999987244606,-0.4306999742984772,-1.5681999921798706
1683009131295399700,20.956399658203125,0.1899999976158142,-0.35019999742507935,-1.666599988937378
1683009131315399700,20.976399658203125,0.11999999731779099,-0.25519999861717224,-1.618299961090088
1683009131335399700,20.996399658203124,0.07959999889135361,-0.15770000219345093,-1.6190999746322632
1683009131355399700,21.016399658203124,0.14069999754428864,-0.1695999950170517,-1.589900016784668
1683009131375399700,21.036399658203123,0.20729999244213104,-0.22219999134540558,-1.5799999237060547
1683009131395399700,21.056399658203127,0.0876999944448471,-0.19020000100135803,-1.5210999250411987
1683009131415399700,21.076399658203126,-0.0364999994635582,-0.18469999730587006,-1.1978999376296997
1683009131435401200,21.096401123046874,-0.06889999657869339,-0.05649999901652336,-0.9041999578475952
1683009131455399700,21.116399658203125,0.035499997437000275,0.05509999766945839,-0.42419999837875366
1683009131475399700,21.136399658203125,0.16359999775886536,0.1412999927997589,0.18299999833106995
1683009131495399700,21.156399658203124,0.1597999930381775,0.19990000128746033,0.6917999982833862
1683009131515401200,21.176401123046876,0.2013999968767166,0.31520000100135803,0.7595999836921692
1683009131535399700,21.196399658203124,0.25049999356269836,0.43689998984336853,0.8765999674797058
1683009131555399700,21.216399658203127,0.3050000071525574,0.4592999815940857,1.1899999380111694
1683009131575401200,21.236401123046875,0.2653999924659729,0.4211999773979187,1.5815999507904053
1683009131595399700,21.256399658203126,0.21139998733997345,0.2970999777317047,1.7175999879837036
1683009131615399700,21.276399658203125,0.09950000047683716,0.12709999084472656,1.9122999906539917
1683009131635399700,21.296399658203125,-0.028699999675154686,0.0771000012755394,2.302999973297119
1683009131655401200,21.316401123046877,-0.060499999672174454,-0.032899998128414154,3.262699842453003
1683009131675399700,21.336399658203124,-0.2667999863624573,-0.5465999841690063,5.006400108337402
1683009131695399700,21.356399658203124,-0.6434000134468079,-1.1121000051498413,6.120999813079834
1683009131715401200,21.376401123046875,-0.3739999830722809,-1.0917999744415283,4.922199726104736
1683009131735399700,21.396399658203126,0.25220000743865967,-0.7755999565124512,2.4110000133514404
1683009131755399700,21.416399658203126,0.6010000109672546,-0.5429999828338623,0.3718000054359436
1683009131775399700,21.436399658203126,0.4846999943256378,-0.1605999916791916,-1.0288000106811523
1683009131795399700,21.456399658203125,-0.29339998960494995,-0.16300000250339508,-1.4886999130249023
1683009131815399700,21.476399658203125,-0.9746999740600586,-0.22869999706745148,-1.7346999645233154
1683009131835399700,21.496399658203124,-1.2064999341964722,-0.38109999895095825,-1.716599941253662
1683009131855402800,21.51640283203125,-0.8529999852180481,-0.3125,-1.3844000101089478
1683009131875402800,21.53640283203125,-0.4584999978542328,-0.29670000076293945,-1.0520999431610107
1683009131895399700,21.556399658203127,-0.06509999930858612,-0.23600000143051147,-0.965399980545044
1683009131915399700,21.576399658203126,0.16489998996257782,-0.2590999901294708,-0.986799955368042
1683009131935401200,21.596401123046874,0.42729997634887695,-0.17329999804496765,-1.105799913406372
1683009131955399700,21.616399658203125,0.6100000143051147,0.05469999834895134,-1.4103999137878418
1683009131975399700,21.636399658203125,0.3431999981403351,0.2256999909877777,-1.7832999229431152
1683009131995401200,21.656401123046876,-0.10189999639987946,0.37529999017715454,-2.0090999603271484
1683009132015399700,21.676399658203124,-0.4140999913215637,0.4635999798774719,-2.2052998542785645
1683009132035399700,21.696399658203124,-0.5153999924659729,0.5600000023841858,-2.1953999996185303
1683009132055399700,21.716399658203127,-0.432699978351593,0.5871999859809875,-1.9989999532699585
1683009132075401200,21.736401123046875,-0.3958999812602997,0.6250999569892883,-1.616499900817871
1683009132095399700,21.756399658203126,-0.30079999566078186,0.6439999938011169,-1.2437000274658203
1683009132115399700,21.776399658203125,-0.23709999024868011,0.6608999967575073,-0.9101999998092651
1683009132135399700,21.796399658203125,-0.2149999886751175,0.6274999976158142,-0.4490000009536743
1683009132155401200,21.816401123046877,-0.2919999957084656,0.5950999855995178,-0.13490000367164612
1683009132175399700,21.836399658203124,-0.37219998240470886,0.5888000130653381,-0.1639000028371811
1683009132195399700,21.856399658203124,-0.4332999885082245,0.5123000144958496,-0.3497999906539917
1683009132215401200,21.876401123046875,-0.46639999747276306,0.5013999938964844,-0.5453999638557434
1683009132235399700,21.896399658203126,-0.4032999873161316,0.396699994802475,-0.07409999519586563
1683009132255399700,21.916399658203126,-0.2556000053882599,0.40219998359680176,0.8384000062942505
1683009132275399700,21.936399658203126,-0.36820000410079956,0.5275999903678894,1.6621999740600586
1683009132295399700,21.956399658203125,-0.6236000061035156,0.6875999569892883,2.064300060272217
1683009132315399700,21.976399658203125,-0.616599977016449,0.8484999537467957,2.0255000591278076
1683009132335399700,21.996399658203124,-0.2945999801158905,0.7317999601364136,2.10509991645813
1683009132355399700,22.016399658203124,0.006899999920278788,0.4092999994754791,3.1854000091552734
1683009132375399700,22.036399658203123,-0.08909999579191208,0.4611999988555908,3.961199998855591
1683009132395399700,22.056399658203127,-0.2777999937534332,0.5640000104904175,3.9134998321533203
1683009132415399700,22.076399658203126,-0.3805999755859375,0.20229999721050262,4.070899963378906
1683009132435401200,22.096401123046874,0.23629999160766602,-0.07909999787807465,3.483299970626831
1683009132455399700,22.116399658203125,0.746999979019165,-0.11539999395608902,2.004499912261963
1683009132475399700,22.136399658203125,0.7791000008583069,-0.1639999896287918,0.4381999969482422
1683009132495401200,22.156401123046876,0.5579999685287476,-0.20989999175071716,-0.8629999756813049
1683009132515399700,22.176399658203124,0.38269999623298645,-0.314300000667572,-1.556399941444397
1683009132535399700,22.196399658203124,0.06619999557733536,-0.6423999667167664,-0.8974999785423279
1683009132555399700,22.216399658203127,-0.40779998898506165,-0.6439999938011169,-0.13319998979568481
1683009132575401200,22.236401123046875,-0.664900004863739,-0.5694999694824219,0.16849999129772186
1683009132595399700,22.256399658203126,-0.4599999785423279,-0.5680999755859375,0.09690000116825104
1683009132615399700,22.276399658203125,0.273499995470047,-0.680899977684021,-0.23849999904632568
1683009132635399700,22.296399658203125,0.8784999847412109,-0.8083999752998352,-0.6509000062942505
1683009132655401200,22.316401123046877,1.0096999406814575,-0.9055999517440796,-0.9648999571800232
1683009132675399700,22.336399658203124,0.8562999963760376,-0.9785999655723572,-1.26010000705719
1683009132695399700,22.356399658203124,0.7340999841690063,-0.8964999914169312,-1.6141999959945679
1683009132715401200,22.376401123046875,0.7120999693870544,-0.6743999719619751,-1.9382998943328857
1683009132735399700,22.396399658203126,0.7307999730110168,-0.39980000257492065,-2.046099901199341
1683009132755399700,22.416399658203126,0.589199960231781,-0.1867000013589859,-2.075000047683716
1683009132775399700,22.436399658203126,0.3238999843597412,-0.06269999593496323,-1.9569998979568481
1683009132795399700,22.456399658203125,0.07159999758005142,0.0794999971985817,-1.6821999549865723
1683009132815399700,22.476399658203125,-0.09189999848604202,0.2003999948501587,-1.299399971961975
1683009132835399700,22.496399658203124,-0.13289999961853027,0.2597000002861023,-0.9358999729156494
1683009132855401200,22.516401123046876,-0.05859999731183052,0.30169999599456787,-0.582099974155426
1683009132875399700,22.536399658203123,0.05790000036358833,0.307699978351593,-0.18930000066757202
1683009132895399700,22.556399658203127,0.06989999860525131,0.3279999792575836,0.24219998717308044
1683009132915399700,22.576399658203126,0.06430000066757202,0.27489998936653137,0.8107999563217163
1683009132935399700,22.596399658203126,-0.01489999983459711,0.2793999910354614,1.281000018119812
1683009132955399700,22.616399658203125,-0.12960000336170197,0.29159998893737793,1.6038999557495117
1683009132975399700,22.636399658203125,-0.14100000262260437,0.1598999947309494,1.965399980545044
1683009132995399700,22.656399658203124,-0.05939999967813492,0.09279999881982803,2.0911998748779297
1683009133015399700,22.676399658203124,0.02539999969303608,0.17260000109672546,1.7853999137878418
1683009133035399700,22.696399658203124,0.05219999700784683,0.1256999969482422,1.6953999996185303
1683009133055399700,22.716399658203127,0.13459999859333038,-0.131400004029274,2.0857999324798584
1683009133075399700,22.736399658203126,0.334199994802475,-0.4391999840736389,2.76039981842041
1683009133095399700,22.756399658203126,0.5629000067710876,-0.5514999628067017,3.2685999870300293
1683009133115399700,22.776399658203125,0.7720999717712402,-0.661799967288971,3.6397998332977295
1683009133135399700,22.796399658203125,0.9417999982833862,-0.6118999719619751,2.9916999340057373
1683009133155399700,22.816399658203125,0.8807999491691589,-0.29600000381469727,1.0405999422073364
1683009133175399700,22.836399658203124,0.5325999855995178,-0.06260000169277191,-0.5863999724388123
1683009133195399700,22.856399658203124,-0.2215999960899353,0.07289999723434448,-1.507699966430664
1683009133215399700,22.876399658203123,-0.8361999988555908,-0.0738999992609024,-1.2429999113082886
1683009133235399700,22.896399658203126,-0.9583999514579773,-0.11019999533891678,-0.4587000012397766
1683009133255399700,22.916399658203126,-0.755899965763092,-0.09600000083446503,0.04099999740719795
1683009133275399700,22.936399658203126,-0.499099999666214,-0.19449999928474426,0.06969999521970749
1683009133295399700,22.956399658203125,-0.25669997930526733,-0.36730000376701355,-0.3333999812602997
1683009133315399700,22.976399658203125,-0.22789999842643738,-0.3893999755382538,-0.6482999920845032
1683009133335399700,22.996399658203124,-0.37880000472068787,-0.2733999788761139,-0.7960999608039856
1683009133355399700,23.016399658203124,-0.6276999711990356,-0.07259999960660934,-0.9925999641418457
1683009133375399700,23.036399658203123,-0.8287999629974365,0.11209999769926071,-1.2379999160766602
1683009133395399700,23.056399658203127,-0.9013999700546265,0.24479998648166656,-1.5226999521255493
1683009133415399700,23.076399658203126,-0.7648999691009521,0.25599998235702515,-1.6603999137878418
1683009133435399700,23.096399658203126,-0.6359999775886536,0.21879999339580536,-1.8964999914169312
1683009133455399700,23.116399658203125,-0.42089998722076416,0.13979999721050262,-1.8970999717712402
1683009133475399700,23.136399658203125,-0.3353999853134155,0.010599999688565731,-2.0446999073028564
1683009133495399700,23.156399658203124,-0.2637999951839447,-0.03009999915957451,-1.9175999164581299
1683009133515399700,23.176399658203124,-0.2662000060081482,-0.0714000016450882,-1.5353000164031982
1683009133535399700,23.196399658203124,-0.30789998173713684,-0.02879999950528145,-1.3882999420166016
1683009133555399700,23.216399658203127,-0.25189998745918274,0.0828000009059906,-0.9666000008583069
1683009133575399700,23.236399658203126,-0.1379999965429306,0.20340000092983246,-0.5643999576568604
1683009133595399700,23.256399658203126,0.01269999984651804,0.3102000057697296,-0.12280000001192093
1683009133615399700,23.276399658203125,0.3985999822616577,0.5270000100135803,0.17159999907016754
1683009133635399700,23.296399658203125,0.23829999566078186,0.5473999977111816,0.6915000081062317
1683009133655399700,23.316399658203125,-0.1274999976158142,0.7020999789237976,1.525399923324585
1683009133675399700,23.336399658203124,-0.3416999876499176,0.6624999642372131,2.1731998920440674
1683009133695399700,23.356399658203124,-0.3278999924659729,0.4056999981403351,2.438999891281128
1683009133715399700,23.376399658203123,-0.05859999731183052,-0.09749999642372131,3.273699998855591
1683009133735399700,23.396399658203126,0.18019999563694,-0.1501999944448471,4.2555999755859375
1683009133755399700,23.416399658203126,0.32409998774528503,0.10649999976158142,4.414299964904785
1683009133775399700,23.436399658203126,0.1648000031709671,0.26589998602867126,4.191199779510498
1683009133795399700,23.456399658203125,0.14239999651908875,0.3522000014781952,3.3606998920440674
1683009133815399700,23.476399658203125,0.0010999999940395355,0.42409998178482056,2.0702998638153076
1683009133835399700,23.496399658203124,-0.4408999979496002,0.5277000069618225,0.5842999815940857
1683009133855399700,23.516399658203124,-0.880299985408783,0.49709999561309814,-0.871999979019165
1683009133875399700,23.536399658203123,-0.875,0.3296999931335449,-1.6919000148773193
1683009133895399700,23.556399658203127,-0.5604000091552734,0.13159999251365662,-1.521899938583374
1683009133915399700,23.576399658203126,-0.10089999437332153,0.2053999900817871,-1.1269999742507935
1683009133935399700,23.596399658203126,0.006899999920278788,0.28189998865127563,-0.49789997935295105
1683009133955399700,23.616399658203125,-0.26179999113082886,0.42479997873306274,0.002899999963119626
1683009133975399700,23.636399658203125,-0.4081999957561493,0.311599999666214,0.17880000174045563
1683009133995399700,23.656399658203124,-0.09039999544620514,0.2883000075817108,-0.05819999799132347
1683009134015399700,23.676399658203124,0.2954999804496765,0.14010000228881836,-0.7470999956130981
1683009134035399700,23.696399658203124,0.7058999538421631,-0.03680000081658363,-1.3772000074386597
1683009134055399700,23.716399658203127,1.1491999626159668,-0.06679999828338623,-2.0362000465393066
1683009134075399700,23.736399658203126,1.4186999797821045,0.0024999999441206455,-2.1842000484466553
1683009134095399700,23.756399658203126,1.32669997215271,0.20879998803138733,-1.84089994430542
1683009134115399700,23.776399658203125,0.965399980545044,0.5345999598503113,-1.3991999626159668
1683009134135399700,23.796399658203125,0.8133999705314636,0.8114999532699585,-0.9672999978065491
1683009134155399700,23.816399658203125,0.6895999908447266,0.9940999746322632,-0.682699978351593
1683009134175399700,23.836399658203124,0.5787999629974365,1.0282999277114868,-0.5748000144958496
1683009134195399700,23.856399658203124,0.6718999743461609,0.9777999520301819,-0.5652999877929688
1683009134215399700,23.876399658203123,0.7282999753952026,0.88919997215271,-0.6148999929428101
1683009134235399700,23.896399658203126,0.7148999571800232,0.765500009059906,-0.4390999972820282
1683009134255399700,23.916399658203126,0.6430999636650085,0.7276999950408936,-0.28360000252723694
1683009134275399700,23.936399658203126,0.47829997539520264,0.726099967956543,-0.35409998893737793
1683009134295399700,23.956399658203125,0.3877999782562256,0.6416999697685242,-0.6599000096321106
1683009134315399700,23.976399658203125,0.5360000133514404,0.5860999822616577,-0.661300003528595
1683009134335399700,23.996399658203124,0.5792999863624573,0.5374000072479248,-0.5349999666213989
1683009134355399700,24.016399658203124,0.6392999887466431,0.7139999866485596,-0.30069997906684875
1683009134375399700,24.036399658203123,0.6531999707221985,0.9096999764442444,0.21779999136924744
1683009134395399700,24.056399658203127,0.6943999528884888,1.055299997329712,0.7953999638557434
1683009134415399700,24.076399658203126,0.6385999917984009,1.1088999509811401,0.990399956703186
1683009134435399700,24.096399658203126,0.5625999569892883,1.034999966621399,1.145900011062622
1683009134455399700,24.116399658203125,0.6096000075340271,0.7831000089645386,1.1244999170303345
1683009134475399700,24.136399658203125,0.9850999712944031,0.34709998965263367,2.211199998855591
1683009134495399700,24.156399658203124,1.3313000202178955,0.1127999946475029,3.4549999237060547
1683009134515399700,24.176399658203124,1.3172999620437622,0.3560999929904938,3.2868998050689697
1683009134535399700,24.196399658203124,1.3996999263763428,0.7504000067710876,1.0987999439239502
1683009134555399700,24.216399658203127,1.5703999996185303,0.880899965763092,-1.1582999229431152
1683009134575399700,24.236399658203126,1.6754999160766602,0.3165999948978424,-2.561499834060669
1683009134595399700,24.256399658203126,1.4620999097824097,-0.34219998121261597,-2.747999906539917
1683009134615399700,24.276399658203125,1.0338000059127808,-0.8626999855041504,-1.5817999839782715
1683009134635399700,24.296399658203125,0.44829997420310974,-0.9297999739646912,0.23099999129772186
1683009134655399700,24.316399658203125,0.13490000367164612,-0.8186999559402466,1.8085999488830566
1683009134675399700,24.336399658203124,0.41669997572898865,-0.555400013923645,2.033599853515625
1683009134695399700,24.356399658203124,1.0638999938964844,-0.29829999804496765,0.8274999856948853
1683009134715399700,24.376399658203123,1.6744999885559082,-0.4174000024795532,0.19059999287128448
1683009134735399700,24.396399658203126,1.8950999975204468,-0.4819999933242798,-0.05379999801516533
1683009134755399700,24.416399658203126,1.6065999269485474,-0.4927999973297119,-0.2395000010728836
1683009134775399700,24.436399658203126,0.8066999912261963,-0.4584999978542328,-0.11189999431371689
1683009134795399700,24.456399658203125,0.22949999570846558,-0.3824999928474426,-0.0731000006198883
1683009134815399700,24.476399658203125,0.1574999988079071,-0.4016000032424927,-0.2694999873638153
1683009134835399700,24.496399658203124,0.5393999814987183,-0.4072999954223633,-0.6123999953269958
1683009134855399700,24.516399658203124,1.0037999153137207,-0.4619999825954437,-0.9157999753952026
1683009134875399700,24.536399658203123,1.101599931716919,-0.5900999903678894,-1.1998000144958496
1683009134895399700,24.556399658203127,1.25409996509552,-0.6162999868392944,-1.2192000150680542
1683009134915399700,24.576399658203126,1.142300009727478,-0.583299994468689,-1.1406999826431274
1683009134935399700,24.596399658203126,0.7109000086784363,-0.383899986743927,-0.8858000040054321
1683009134955399700,24.616399658203125,0.3325999975204468,-0.1614999920129776,-0.689799964427948
