time,seconds_elapsed,z,y,x
1683009110395399700,0.056399658203125,0.9934999942779541,-0.030799999833106995,9.756099700927734
1683009110415405800,0.07640576171875,0.9934999942779541,-0.030799999833106995,9.756099700927734
1683009110435399700,0.096399658203125,0.4730999767780304,-0.1607999950647354,9.793899536132812
1683009110455399700,0.116399658203125,0.4740999937057495,-0.16269999742507935,9.79379940032959
1683009110475399700,0.136399658203125,0.4854999780654907,-0.16259999573230743,9.79319953918457
1683009110495399700,0.156399658203125,0.5227999687194824,-0.15879999101161957,9.791399955749512
1683009110515399700,0.176399658203125,0.590999960899353,-0.14569999277591705,9.787699699401855
1683009110535399700,0.196399658203125,0.6164999604225159,-0.1485999971628189,9.786099433898926
1683009110555399700,0.216399658203125,0.6444999575614929,-0.14489999413490295,9.784299850463867
1683009110575399700,0.236399658203125,0.6710000038146973,-0.12870000302791595,9.78279972076416
1683009110595399700,0.256399658203125,0.6622999906539917,-0.11549999564886093,9.783499717712402
1683009110615399700,0.276399658203125,0.748699963092804,-0.06529999524354935,9.777799606323242
1683009110635401200,0.296401123046875,0.9249999523162842,0.001500000013038516,9.762899398803711
1683009110655399700,0.316399658203125,1.080399990081787,0.0210999995470047,9.746899604797363
1683009110675399700,0.336399658203125,1.1655999422073364,0.011799999512732029,9.737099647521973
1683009110695399700,0.356399658203125,1.2085000276565552,0.006599999964237213,9.731800079345703
1683009110715402800,0.37640283203125,1.216599941253662,0.009099999442696571,9.730799674987793
1683009110735399700,0.396399658203125,1.2014999389648438,0.014399999752640724,9.732699394226074
1683009110755399700,0.416399658203125,1.1744999885559082,0.02279999852180481,9.736000061035156
1683009110775401200,0.436401123046875,1.1420999765396118,0.03500000014901161,9.739799499511719
1683009110795399700,0.456399658203125,1.1176999807357788,0.057099997997283936,9.742499351501465
1683009110815399700,0.476399658203125,1.0958999395370483,0.0973999947309494,9.744699478149414
1683009110835399700,0.496399658203125,1.066100001335144,0.1437000036239624,9.74739933013916
1683009110855399700,0.516399658203125,1.042099952697754,0.17319999635219574,9.749499320983887
1683009110875399700,0.536399658203125,1.0031999349594116,0.20029999315738678,9.75309944152832
1683009110895399700,0.556399658203125,0.9692999720573425,0.20759999752044678,9.756400108337402
1683009110915401200,0.576401123046875,0.936199963092804,0.19460000097751617,9.759900093078613
1683009110935399700,0.596399658203125,0.9104999899864197,0.18019999563694,9.76259994506836
1683009110955399700,0.616399658203125,0.9398999810218811,0.2126999944448471,9.759099960327148
1683009110975399700,0.636399658203125,0.9991999864578247,0.28299999237060547,9.751500129699707
1683009110995399700,0.656399658203125,1.041599988937378,0.33390000462532043,9.745399475097656
1683009111015399700,0.676399658203125,1.097100019454956,0.35580000281333923,9.738499641418457
1683009111035399700,0.696399658203125,1.1434999704360962,0.33399999141693115,9.734000205993652
1683009111055399700,0.716399658203125,1.1753000020980835,0.2744999825954437,9.731999397277832
1683009111075399700,0.736399658203125,1.1912000179290771,0.28859999775886536,9.729700088500977
1683009111095399700,0.756399658203125,1.1898999214172363,0.382999986410141,9.72659969329834
1683009111115399700,0.776399658203125,1.1888999938964844,0.46230000257492065,9.723299980163574
1683009111135399700,0.796399658203125,1.209999918937683,0.4829999804496765,9.71969985961914
1683009111155399700,0.816399658203125,1.236799955368042,0.48009997606277466,9.716400146484375
1683009111175399700,0.836399658203125,1.232699990272522,0.47200000286102295,9.717399597167969
1683009111195399700,0.856399658203125,1.20169997215271,0.48099997639656067,9.720799446105957
1683009111215399700,0.876399658203125,1.1543999910354614,0.5142999887466431,9.724800109863281
1683009111235399700,0.896399658203125,1.1069999933242798,0.524899959564209,9.7298002243042
1683009111255399700,0.916399658203125,1.0792999267578125,0.5206999778747559,9.733099937438965
1683009111275401200,0.936401123046875,1.0717999935150146,0.5310999751091003,9.733399391174316
1683009111295399700,0.956399658203125,1.0546000003814697,0.5511000156402588,9.734099388122559
1683009111315399700,0.976399658203125,1.0327999591827393,0.5740999579429626,9.735099792480469
1683009111335399700,0.996399658203125,1.0161999464035034,0.598800003528595,9.735400199890137
1683009111355399700,1.016399658203125,1,0.6240999698638916,9.735499382019043
1683009111375399700,1.036399658203125,0.9786999821662903,0.649899959564209,9.736000061035156
1683009111395399700,1.056399658203125,0.9531999826431274,0.6717999577522278,9.73699951171875
1683009111415401200,1.076401123046875,0.9317999482154846,0.684499979019165,9.738200187683105
1683009111435401200,1.096401123046875,0.9159999489784241,0.6820999979972839,9.739899635314941
1683009111455399700,1.116399658203125,0.8973000049591064,0.675000011920929,9.74209976196289
1683009111475399700,1.136399658203125,0.8855999708175659,0.6626999974250793,9.743999481201172
1683009111495399700,1.156399658203125,0.8783999681472778,0.655299961566925,9.745200157165527
1683009111515399700,1.176399658203125,0.8859999775886536,0.6509999632835388,9.744799613952637
1683009111535399700,1.196399658203125,0.8766999840736389,0.6351999640464783,9.746699333190918
1683009111555399700,1.216399658203125,0.8276000022888184,0.5863999724388123,9.753999710083008
1683009111575399700,1.236399658203125,0.7404999732971191,0.5006999969482422,9.765799522399902
1683009111595399700,1.256399658203125,0.6893999576568604,0.4001999795436859,9.774099349975586
1683009111615399700,1.276399658203125,0.7099999785423279,0.3141999840736389,9.775799751281738
1683009111635399700,1.296399658203125,0.7749999761581421,0.2574000060558319,9.772500038146973
1683009111655399700,1.316399658203125,0.8314999938011169,0.21869999170303345,9.768799781799316
1683009111675399700,1.336399658203125,0.8224999904632568,0.17440000176429749,9.770500183105469
1683009111695399700,1.356399658203125,0.7675999999046326,0.10830000042915344,9.775899887084961
1683009111715399700,1.376399658203125,0.7073999643325806,0.04169999808073044,9.781000137329102
1683009111735399700,1.396399658203125,0.679099977016449,-0.008599999360740185,9.782999992370605
1683009111755399700,1.416399658203125,0.6773999929428101,-0.030299998819828033,9.783100128173828
1683009111775399700,1.436399658203125,0.6875,-0.034199997782707214,9.782400131225586
1683009111795399700,1.456399658203125,0.7044999599456787,-0.030399998649954796,9.78119945526123
1683009111815399700,1.476399658203125,0.7229999899864197,-0.019500000402331352,9.779899597167969
1683009111835399700,1.496399658203125,0.7353000044822693,-0.007799999788403511,9.778999328613281
1683009111855399700,1.516399658203125,0.7421000003814697,-0.008299999870359898,9.778499603271484
1683009111875399700,1.536399658203125,0.7315999865531921,-0.022499999031424522,9.779199600219727
1683009111895399700,1.556399658203125,0.6802999973297119,-0.044999998062849045,9.782899856567383
1683009111915402800,1.57640283203125,0.6444000005722046,-0.06529999524354935,9.785200119018555
1683009111935402800,1.59640283203125,0.6152999997138977,-0.06799999624490738,9.786999702453613
1683009111955399700,1.616399658203125,0.5866999626159668,-0.05920000001788139,9.788799285888672
1683009111975399700,1.636399658203125,0.5570999979972839,-0.04569999873638153,9.79069995880127
1683009111995399700,1.656399658203125,0.5379999876022339,-0.032499998807907104,9.791799545288086
1683009112015399700,1.676399658203125,0.5482999682426453,-0.0142000000923872,9.791299819946289
1683009112035399700,1.696399658203125,0.5737999677658081,0.01549999974668026,9.789799690246582
1683009112055399700,1.716399658203125,0.6089999675750732,0.046799998730421066,9.787599563598633
1683009112075399700,1.736399658203125,0.6340000033378601,0.07009999454021454,9.785799980163574
1683009112095399700,1.756399658203125,0.6524999737739563,0.08489999920129776,9.784500122070312
1683009112115399700,1.776399658203125,0.6722999811172485,0.09269999712705612,9.783100128173828
1683009112135399700,1.796399658203125,0.691100001335144,0.09629999846220016,9.781700134277344
1683009112155399700,1.816399658203125,0.7001999616622925,0.093299999833107,9.781099319458008
1683009112175399700,1.836399658203125,0.6992999911308289,0.0811999961733818,9.781299591064453
1683009112195399700,1.856399658203125,0.6886000037193298,0.0616999976336956,9.78219985961914
1683009112215399700,1.876399658203125,0.6811999678611755,0.03689999878406525,9.78279972076416
1683009112235399700,1.896399658203125,0.6962999701499939,0.015699999406933784,9.78179931640625
1683009112255399700,1.916399658203125,0.7236999869346619,0.01549999974668026,9.779799461364746
1683009112275399700,1.936399658203125,0.7445999979972839,0.04129999876022339,9.778200149536133
1683009112295399700,1.956399658203125,0.7516999840736389,0.08009999990463257,9.777400016784668
1683009112315402800,1.97640283203125,0.7634999752044678,0.11679999530315399,9.776100158691406
1683009112335399700,1.996399658203125,0.7823999524116516,0.14190000295639038,9.774299621582031
1683009112355399700,2.016399658203125,0.8198999762535095,0.1621999889612198,9.770899772644043
1683009112375399700,2.036399658203125,0.8734999895095825,0.19539999961853027,9.76569938659668
1683009112395399700,2.056399658203125,0.9310999512672424,0.23029999434947968,9.759599685668945
1683009112415401200,2.076401123046875,0.9848999977111816,0.24959999322891235,9.753799438476562
1683009112435399700,2.096399658203125,1.0194000005722046,0.2498999983072281,9.750299453735352
1683009112455399700,2.116399658203125,1.0198999643325806,0.23899999260902405,9.750499725341797
1683009112475399700,2.136399658203125,0.9940999746322632,0.22190000116825104,9.753600120544434
1683009112495399700,2.156399658203125,0.9635999798774719,0.20709998905658722,9.7568998336792
1683009112515399700,2.176399658203125,0.9470999836921692,0.20179998874664307,9.758699417114258
1683009112535399700,2.196399658203125,0.9447999596595764,0.20799998939037323,9.75879955291748
1683009112555399700,2.216399658203125,0.9528999924659729,0.21789999306201935,9.757800102233887
1683009112575399700,2.236399658203125,0.958899974822998,0.2255999892950058,9.756999969482422
1683009112595399700,2.256399658203125,0.9562000036239624,0.22859999537467957,9.75719928741455
1683009112615399700,2.276399658203125,0.9485999941825867,0.2254999876022339,9.757999420166016
1683009112635399700,2.296399658203125,0.936199963092804,0.2157999873161316,9.7593994140625
1683009112655399700,2.316399658203125,0.9134999513626099,0.19679999351501465,9.76200008392334
1683009112675399700,2.336399658203125,0.8865999579429626,0.1662999987602234,9.764999389648438
1683009112695399700,2.356399658203125,0.8640999794006348,0.13329999148845673,9.767499923706055
1683009112715401200,2.376401123046875,0.8470999598503113,0.10409999638795853,9.769399642944336
1683009112735399700,2.396399658203125,0.8283999562263489,0.07729999721050262,9.771200180053711
1683009112755399700,2.416399658203125,0.8166999816894531,0.054499998688697815,9.77239990234375
1683009112775401200,2.436401123046875,0.8155999779701233,0.0348999984562397,9.772600173950195
1683009112795399700,2.456399658203125,0.8051999807357788,0.01209999993443489,9.773499488830566
1683009112815399700,2.476399658203125,0.7972999811172485,-0.010300000198185444,9.774099349975586
1683009112835399700,2.496399658203125,0.7997999787330627,-0.02579999901354313,9.773900032043457
1683009112855399700,2.516399658203125,0.7920999526977539,-0.02630000002682209,9.774499893188477
1683009112875399700,2.536399658203125,0.8046999573707581,-0.0210999995470047,9.773499488830566
1683009112895399700,2.556399658203125,0.8603000044822693,-0.012199999764561653,9.768799781799316
1683009112915401200,2.576401123046875,0.9461999535560608,-0.00019999999494757503,9.760799407958984
1683009112935399700,2.596399658203125,1.0348999500274658,0.017799999564886093,9.751799583435059
1683009112955399700,2.616399658203125,1.0961999893188477,0.037299998104572296,9.745100021362305
1683009112975399700,2.636399658203125,1.1096999645233154,0.04189999774098396,9.743499755859375
1683009112995399700,2.656399658203125,1.073699951171875,0.017500000074505806,9.747599601745605
1683009113015399700,2.676399658203125,1.0032999515533447,-0.030399998649954796,9.755099296569824
1683009113035399700,2.696399658203125,0.926099956035614,-0.07849999517202377,9.762499809265137
1683009113055399700,2.716399658203125,0.8872999548912048,-0.10439999401569366,9.765799522399902
1683009113075401200,2.736401123046875,0.897599995136261,-0.11259999871253967,9.764800071716309
1683009113095399700,2.756399658203125,0.9456999897956848,-0.11669999361038208,9.760199546813965
1683009113115399700,2.776399658203125,1.0016000270843506,-0.12289999425411224,9.754499435424805
1683009113135399700,2.796399658203125,1.024899959564209,-0.12889999151229858,9.751999855041504
1683009113155399700,2.816399658203125,1.0134999752044678,-0.13449999690055847,9.753199577331543
1683009113175399700,2.836399658203125,0.9959999918937683,-0.12889999151229858,9.755000114440918
1683009113195399700,2.856399658203125,1.011299967765808,-0.1070999950170517,9.75369930267334
1683009113215399700,2.876399658203125,1.004699945449829,-0.029199998825788498,9.755000114440918
1683009113235399700,2.896399658203125,0.9520999789237976,0.03790000081062317,9.760199546813965
1683009113255399700,2.916399658203125,0.9095999598503113,0.07490000128746033,9.763999938964844
1683009113275399700,2.936399658203125,0.9419999718666077,0.08720000088214874,9.760899543762207
1683009113295399700,2.956399658203125,1.025399923324585,0.09669999778270721,9.752399444580078
1683009113315399700,2.976399658203125,1.0901999473571777,0.11339999735355377,9.745100021362305
1683009113335399700,2.996399658203125,1.114300012588501,0.13050000369548798,9.742199897766113
1683009113355399700,3.016399658203125,1.1438000202178955,0.14059999585151672,9.73859977722168
1683009113375399700,3.036399658203125,1.167699933052063,0.14819999039173126,9.735699653625488
1683009113395399700,3.056399658203125,1.1525999307632446,0.15129999816417694,9.737500190734863
1683009113415399700,3.076399658203125,1.1222000122070312,0.15629999339580536,9.740900039672852
1683009113435399700,3.096399658203125,1.1186000108718872,0.16619999706745148,9.741199493408203
1683009113455399700,3.116399658203125,1.1122000217437744,0.16929998993873596,9.741799354553223
1683009113475399700,3.136399658203125,1.0722999572753906,0.1613999903202057,9.746500015258789
1683009113495399700,3.156399658203125,1.011799931526184,0.15559999644756317,9.752999305725098
1683009113515399700,3.176399658203125,0.9469999670982361,0.15709999203681946,9.759499549865723
1683009113535399700,3.196399658203125,0.934499979019165,0.16169999539852142,9.760600090026855
1683009113555399700,3.216399658203125,0.9476999640464783,0.16569998860359192,9.759299278259277
1683009113575399700,3.236399658203125,0.9553999900817871,0.16679999232292175,9.758500099182129
1683009113595399700,3.256399658203125,0.953499972820282,0.17019999027252197,9.758599281311035
1683009113615399700,3.276399658203125,0.9377999901771545,0.18599998950958252,9.759900093078613
1683009113635399700,3.296399658203125,0.9165999889373779,0.20879998803138733,9.76140022277832
1683009113655399700,3.316399658203125,0.901699960231781,0.22509999573230743,9.762499809265137
1683009113675399700,3.336399658203125,0.9164999723434448,0.2377999871969223,9.760799407958984
1683009113695399700,3.356399658203125,0.9440999627113342,0.2590999901294708,9.757599830627441
1683009113715399700,3.376399658203125,0.9660999774932861,0.28790000081062317,9.754599571228027
1683009113735399700,3.396399658203125,0.9904999732971191,0.31769999861717224,9.751299858093262
1683009113755399700,3.416399658203125,1.0261999368667603,0.3472999930381775,9.746600151062012
1683009113775399700,3.436399658203125,1.053399920463562,0.37359997630119324,9.74269962310791
1683009113795399700,3.456399658203125,1.0625,0.3977999985218048,9.740699768066406
1683009113815399700,3.476399658203125,1.0578999519348145,0.4212999939918518,9.740300178527832
1683009113835399700,3.496399658203125,1.0470999479293823,0.4408999979496002,9.740599632263184
1683009113855399700,3.516399658203125,1.0399999618530273,0.4578000009059906,9.740499496459961
1683009113875399700,3.536399658203125,1.038699984550476,0.4696999788284302,9.740099906921387
1683009113895399700,3.556399658203125,1.0447999238967896,0.4778999984264374,9.739099502563477
1683009113915399700,3.576399658203125,1.0516999959945679,0.4803999960422516,9.738200187683105
1683009113935399700,3.596399658203125,1.056399941444397,0.47859999537467957,9.737799644470215
1683009113955399700,3.616399658203125,1.0520999431610107,0.4757999777793884,9.738399505615234
1683009113975399700,3.636399658203125,1.0490999221801758,0.4666000008583069,9.739099502563477
1683009113995399700,3.656399658203125,1.0601999759674072,0.4511999785900116,9.738699913024902
1683009114015399700,3.676399658203125,1.0758999586105347,0.4372999966144562,9.73759937286377
1683009114035399700,3.696399658203125,1.087499976158142,0.4212999939918518,9.73699951171875
1683009114055399700,3.716399658203125,1.0992000102996826,0.40359997749328613,9.73639965057373
1683009114075399700,3.736399658203125,1.1237999200820923,0.38519999384880066,9.734399795532227
1683009114095399700,3.756399658203125,1.1557999849319458,0.36899998784065247,9.731200218200684
1683009114115399700,3.776399658203125,1.1898999214172363,0.36409997940063477,9.727299690246582
1683009114135399700,3.796399658203125,1.2120000123977661,0.3659999966621399,9.724499702453613
1683009114155399700,3.816399658203125,1.1936999559402466,0.3671000003814697,9.726699829101562
1683009114175399700,3.836399658203125,1.1634999513626099,0.3547999858856201,9.730899810791016
1683009114195399700,3.856399658203125,1.1345000267028809,0.3474999964237213,9.73449993133545
1683009114215399700,3.876399658203125,1.1097999811172485,0.3414999842643738,9.73759937286377
1683009114235399700,3.896399658203125,1.1122000217437744,0.334199994802475,9.73759937286377
1683009114255399700,3.916399658203125,1.1384999752044678,0.32269999384880066,9.734899520874023
1683009114275399700,3.936399658203125,1.1848000288009644,0.3173999786376953,9.729599952697754
1683009114295399700,3.956399658203125,1.2537000179290771,0.3407000005245209,9.720099449157715
1683009114315399700,3.976399658203125,1.3072999715805054,0.3764999806880951,9.711799621582031
1683009114335399700,3.996399658203125,1.3269000053405762,0.40379998087882996,9.708000183105469
1683009114355399700,4.016399658203125,1.313599944114685,0.3958999812602997,9.710100173950195
1683009114375399700,4.036399658203125,1.3069000244140625,0.3671000003814697,9.712200164794922
1683009114395399700,4.056399658203125,1.3156999349594116,0.3423999845981598,9.711899757385254
1683009114415399700,4.076399658203125,1.317199945449829,0.33069998025894165,9.7121000289917
1683009114435399700,4.096399658203125,1.3006999492645264,0.33399999141693115,9.714200019836426
1683009114455399700,4.116399658203125,1.2898999452590942,0.3369999825954437,9.715499877929688
1683009114475399700,4.136399658203125,1.2832000255584717,0.33879998326301575,9.716400146484375
1683009114495399700,4.156399658203125,1.278499960899353,0.343099981546402,9.71679973602295
1683009114515399700,4.176399658203125,1.2803000211715698,0.3515999913215637,9.716300010681152
1683009114535399700,4.196399658203125,1.291100025177002,0.3658999800682068,9.714300155639648
1683009114555399700,4.216399658203125,1.3054999113082886,0.3823999762535095,9.711799621582031
1683009114575399700,4.236399658203125,1.316499948501587,0.3933999836444855,9.70989990234375
1683009114595399700,4.256399658203125,1.3199999332427979,0.399399995803833,9.709099769592285
1683009114615399700,4.276399658203125,1.3126999139785767,0.40309998393058777,9.710000038146973
1683009114635399700,4.296399658203125,1.3047000169754028,0.4065999984741211,9.710899353027344
1683009114655399700,4.316399658203125,1.294600009918213,0.40789997577667236,9.712200164794922
1683009114675399700,4.336399658203125,1.2796999216079712,0.4056999981403351,9.714300155639648
1683009114695399700,4.356399658203125,1.270900011062622,0.4065999984741211,9.715399742126465
1683009114715399700,4.376399658203125,1.2626999616622925,0.4068000018596649,9.716400146484375
1683009114735399700,4.396399658203125,1.2452999353408813,0.4056999981403351,9.71869945526123
1683009114755399700,4.416399658203125,1.2192000150680542,0.3971000015735626,9.722399711608887
1683009114775399700,4.436399658203125,1.1894999742507935,0.3743000030517578,9.726999282836914
1683009114795399700,4.456399658203125,1.153999924659729,0.3385999798774719,9.732600212097168
1683009114815399700,4.476399658203125,1.1105999946594238,0.30079999566078186,9.738900184631348
1683009114835399700,4.496399658203125,1.0411999225616455,0.26010000705718994,9.747699737548828
1683009114855399700,4.516399658203125,0.9896000027656555,0.2240999937057495,9.753999710083008
1683009114875399700,4.536399658203125,0.974399983882904,0.21220000088214874,9.755799293518066
1683009114895399700,4.556399658203125,1.0023000240325928,0.21459999680519104,9.752900123596191
1683009114915399700,4.576399658203125,1.0332999229431152,0.22909998893737793,9.749300003051758
1683009114935399700,4.596399658203125,1.0367000102996826,0.2466999888420105,9.748499870300293
1683009114955399700,4.616399658203125,1.021899938583374,0.26170000433921814,9.749699592590332
1683009114975399700,4.636399658203125,1.0042999982833862,0.2735999822616577,9.751199722290039
1683009114995399700,4.656399658203125,0.9914000034332275,0.2847999930381775,9.75220012664795
1683009115015399700,4.676399658203125,0.9776999950408936,0.29919999837875366,9.75309944152832
1683009115035399700,4.696399658203125,0.9634999632835388,0.3220999836921692,9.753799438476562
1683009115055399700,4.716399658203125,0.9513999819755554,0.34459999203681946,9.754300117492676
1683009115075399700,4.736399658203125,0.9478999972343445,0.35409998893737793,9.754199981689453
1683009115095399700,4.756399658203125,0.9444999694824219,0.35089999437332153,9.75469970703125
1683009115115399700,4.776399658203125,0.9373999834060669,0.34599998593330383,9.755599975585938
1683009115135399700,4.796399658203125,0.9256999492645264,0.3401999771595001,9.7568998336792
1683009115155402800,4.81640283203125,0.9073999524116516,0.32899999618530273,9.758999824523926
1683009115175399700,4.836399658203125,0.8813999891281128,0.3157999813556671,9.761799812316895
1683009115195399700,4.856399658203125,0.8533999919891357,0.30379998683929443,9.764699935913086
1683009115215401200,4.876401123046875,0.8319999575614929,0.2919999957084656,9.766900062561035
1683009115235399700,4.896399658203125,0.8205999732017517,0.2786000072956085,9.768199920654297
1683009115255399700,4.916399658203125,0.8091999888420105,0.25369998812675476,9.769899368286133
1683009115275399700,4.936399658203125,0.7945999503135681,0.22579999268054962,9.771699905395508
1683009115295399700,4.956399658203125,0.7881999611854553,0.20579999685287476,9.772699356079102
1683009115315399700,4.976399658203125,0.7899999618530273,0.19039998948574066,9.772899627685547
1683009115335399700,4.996399658203125,0.7971000075340271,0.17880000174045563,9.772500038146973
1683009115355399700,5.016399658203125,0.8148999810218811,0.17270000278949738,9.771200180053711
1683009115375399700,5.036399658203125,0.8360999822616577,0.16740000247955322,9.769399642944336
1683009115395399700,5.056399658203125,0.8625999689102173,0.17149999737739563,9.767099380493164
1683009115415399700,5.076399658203125,0.9019999504089355,0.18369999527931213,9.763299942016602
1683009115435399700,5.096399658203125,0.9447999596595764,0.19449999928474426,9.758999824523926
1683009115455399700,5.116399658203125,0.9797999858856201,0.19849999248981476,9.755499839782715
1683009115475399700,5.136399658203125,0.9893999695777893,0.19699999690055847,9.754599571228027
1683009115495399700,5.156399658203125,0.9596999883651733,0.17870000004768372,9.757899284362793
1683009115515401200,5.176401123046875,0.9136999845504761,0.14409999549388885,9.762899398803711
1683009115535402800,5.19640283203125,0.877299964427948,0.10399999469518661,9.76669979095459
1683009115555402800,5.21640283203125,0.8764999508857727,0.07739999890327454,9.767000198364258
1683009115575399700,5.236399658203125,0.9060999751091003,0.07729999721050262,9.764299392700195
1683009115595399700,5.256399658203125,0.9575999975204468,0.09939999878406525,9.759200096130371
1683009115615399700,5.276399658203125,0.998699963092804,0.13369999825954437,9.75469970703125
1683009115635401200,5.296401123046875,1.0022000074386597,0.16949999332427979,9.753799438476562
1683009115655399700,5.316399658203125,0.982699990272522,0.18569999933242798,9.755499839782715
1683009115675399700,5.336399658203125,0.9562000036239624,0.1753000020980835,9.758299827575684
1683009115695399700,5.356399658203125,0.9265999794006348,0.1454000025987625,9.76159954071045
1683009115715401200,5.376401123046875,0.9070000052452087,0.11699999868869781,9.763899803161621
1683009115735399700,5.396399658203125,0.901199996471405,0.09600000083446503,9.764599800109863
1683009115755399700,5.416399658203125,0.909500002861023,0.07229999452829361,9.764100074768066
1683009115775401200,5.436401123046875,0.9232999682426453,0.040300000458955765,9.762999534606934
1683009115795399700,5.456399658203125,0.9337999820709229,0.006000000052154064,9.76200008392334
1683009115815399700,5.476399658203125,0.9378999471664429,-0.03059999831020832,9.76159954071045
1683009115835399700,5.496399658203125,0.945099949836731,-0.06529999524354935,9.760700225830078
1683009115855399700,5.516399658203125,0.9554999470710754,-0.09569999575614929,9.759499549865723
1683009115875399700,5.536399658203125,0.9695000052452087,-0.11289999634027481,9.757899284362793
1683009115895399700,5.556399658203125,0.9784999489784241,-0.11719999462366104,9.756999969482422
1683009115915399700,5.576399658203125,0.9850999712944031,-0.11309999972581863,9.75629997253418
1683009115935401200,5.596401123046875,0.9865999817848206,-0.10319999605417252,9.75629997253418
1683009115955399700,5.616399658203125,0.9865999817848206,-0.09470000118017197,9.756400108337402
1683009115975399700,5.636399658203125,0.9909999966621399,-0.09030000120401382,9.755999565124512
1683009115995399700,5.656399658203125,0.9866999983787537,-0.08859999477863312,9.756400108337402
1683009116015399700,5.676399658203125,0.9572999477386475,-0.094200000166893,9.759299278259277
1683009116035399700,5.696399658203125,0.9230999946594238,-0.10159999877214432,9.762499809265137
1683009116055399700,5.716399658203125,0.886199951171875,-0.10269999504089355,9.765899658203125
1683009116075401200,5.736401123046875,0.8412999510765076,-0.11089999973773956,9.769800186157227
1683009116095399700,5.756399658203125,0.8333999514579773,-0.11729999631643295,9.770400047302246
1683009116115399700,5.776399658203125,0.840399980545044,-0.11349999904632568,9.769899368286133
1683009116135399700,5.796399658203125,0.8495000004768372,-0.10989999771118164,9.769100189208984
1683009116155399700,5.816399658203125,0.851099967956543,-0.11859999597072601,9.768899917602539
1683009116175399700,5.836399658203125,0.8409000039100647,-0.14579999446868896,9.769399642944336
1683009116195399700,5.856399658203125,0.8281999826431274,-0.1800999939441681,9.769899368286133
1683009116215399700,5.876399658203125,0.8245999813079834,-0.20909999310970306,9.769599914550781
1683009116235399700,5.896399658203125,0.8463000059127808,-0.2011999934911728,9.767899513244629
1683009116255399700,5.916399658203125,0.887499988079071,-0.1581999957561493,9.76509952545166
1683009116275399700,5.936399658203125,0.9351999759674072,-0.0876999944448471,9.761499404907227
1683009116295399700,5.956399658203125,0.9752999544143677,0.009200000204145908,9.757999420166016
1683009116315399700,5.976399658203125,0.972000002861023,0.08339999616146088,9.757999420166016
1683009116335399700,5.996399658203125,0.9261999726295471,0.11209999769926071,9.762100219726562
1683009116355399700,6.016399658203125,0.8578999638557434,0.11989999562501907,9.76830005645752
1683009116375399700,6.036399658203125,0.8104000091552734,0.12150000035762787,9.772299766540527
1683009116395399700,6.056399658203125,0.8015999794006348,0.12870000302791595,9.772899627685547
1683009116415399700,6.076399658203125,0.8199999928474426,0.14409999549388885,9.771200180053711
1683009116435399700,6.096399658203125,0.8471999764442444,0.1605999916791916,9.768599510192871
1683009116455399700,6.116399658203125,0.8726999759674072,0.1809999942779541,9.765999794006348
1683009116475399700,6.136399658203125,0.8947999477386475,0.19829998910427094,9.763699531555176
1683009116495399700,6.156399658203125,0.9279999732971191,0.20989999175071716,9.760299682617188
1683009116515399700,6.176399658203125,0.9659000039100647,0.21159999072551727,9.756599426269531
1683009116535399700,6.196399658203125,0.9932999610900879,0.2029999941587448,9.753999710083008
1683009116555399700,6.216399658203125,0.9979999661445618,0.18230000138282776,9.753999710083008
1683009116575399700,6.236399658203125,0.9781999588012695,0.1607999950647354,9.756400108337402
1683009116595399700,6.256399658203125,0.9519999623298645,0.14079999923706055,9.759299278259277
1683009116615402800,6.27640283203125,0.9365999698638916,0.121799997985363,9.76099967956543
1683009116635399700,6.296399658203125,0.9350000023841858,0.10719999670982361,9.761300086975098
1683009116655399700,6.316399658203125,0.9351999759674072,0.09799999743700027,9.76140022277832
1683009116675399700,6.336399658203125,0.9335999488830566,0.08699999749660492,9.761699676513672
1683009116695402800,6.35640283203125,0.9156000018119812,0.06459999829530716,9.763500213623047
1683009116715402800,6.37640283203125,0.9003999829292297,0.02369999885559082,9.76509952545166
1683009116735399700,6.396399658203125,0.9074999690055847,-0.026899999007582664,9.76449966430664
1683009116755399700,6.416399658203125,0.9404000043869019,-0.06969999521970749,9.761199951171875
1683009116775401200,6.436401123046875,1.0027999877929688,-0.0940999984741211,9.75469970703125
1683009116795399700,6.456399658203125,1.0641999244689941,-0.09669999778270721,9.748199462890625
1683009116815399700,6.476399658203125,1.0841000080108643,-0.09789999574422836,9.745999336242676
1683009116835399700,6.496399658203125,1.0604000091552734,-0.11800000071525574,9.74839973449707
1683009116855399700,6.516399658203125,1.0425000190734863,-0.16290000081062317,9.749699592590332
1683009116875399700,6.536399658203125,1.0404000282287598,-0.210999995470047,9.74899959564209
1683009116895399700,6.556399658203125,1.049299955368042,-0.24859999120235443,9.747099876403809
1683009116915399700,6.576399658203125,1.0855000019073486,-0.2759999930858612,9.742400169372559
1683009116935399700,6.596399658203125,1.149399995803833,-0.30069997906684875,9.734399795532227
1683009116955399700,6.616399658203125,1.2177000045776367,-0.31450000405311584,9.72559928894043
1683009116975399700,6.636399658203125,1.2350999116897583,-0.3125,9.723499298095703
1683009116995399700,6.656399658203125,1.2085999250411987,-0.31540000438690186,9.726699829101562
1683009117015399700,6.676399658203125,1.1674000024795532,-0.33730000257492065,9.730999946594238
1683009117035399700,6.696399658203125,1.1093999147415161,-0.3734999895095825,9.736499786376953
1683009117055399700,6.716399658203125,1.0450999736785889,-0.407399982213974,9.742199897766113
1683009117075399700,6.736399658203125,0.9924999475479126,-0.43230000138282776,9.746699333190918
1683009117095399700,6.756399658203125,0.9594999551773071,-0.4497999846935272,9.749199867248535
1683009117115399700,6.776399658203125,0.9449999928474426,-0.4641999900341034,9.749899864196777
1683009117135399700,6.796399658203125,0.9368000030517578,-0.4764999747276306,9.750100135803223
1683009117155399700,6.816399658203125,0.9310999512672424,-0.4903999865055084,9.75
1683009117175399700,6.836399658203125,0.9241999983787537,-0.5069000124931335,9.749799728393555
1683009117195399700,6.856399658203125,0.9157999753952026,-0.5263000130653381,9.749499320983887
1683009117215399700,6.876399658203125,0.9125999808311462,-0.5458999872207642,9.748799324035645
1683009117235399700,6.896399658203125,0.911899983882904,-0.5702999830245972,9.74739933013916
1683009117255399700,6.916399658203125,0.9081999659538269,-0.6014999747276306,9.74590015411377
1683009117275399700,6.936399658203125,0.8895999789237976,-0.6333000063896179,9.745599746704102
1683009117295399700,6.956399658203125,0.8598999977111816,-0.6620999574661255,9.746399879455566
1683009117315399700,6.976399658203125,0.8376999497413635,-0.6852999925613403,9.746699333190918
1683009117335399700,6.996399658203125,0.8260999917984009,-0.7010999917984009,9.746600151062012
1683009117355399700,7.016399658203125,0.8209999799728394,-0.7075999975204468,9.746500015258789
1683009117375399700,7.036399658203125,0.8269000053405762,-0.7031999826431274,9.746299743652344
1683009117395399700,7.056399658203125,0.8324999809265137,-0.6924999952316284,9.746600151062012
1683009117415399700,7.076399658203125,0.8369999527931213,-0.6887999773025513,9.746500015258789
1683009117435399700,7.096399658203125,0.8341999650001526,-0.6941999793052673,9.746399879455566
1683009117455399700,7.116399658203125,0.8202999830245972,-0.7045999765396118,9.74679946899414
1683009117475399700,7.136399658203125,0.7936999797821045,-0.7197999954223633,9.747900009155273
1683009117495399700,7.156399658203125,0.7660999894142151,-0.734499990940094,9.74899959564209
1683009117515399700,7.176399658203125,0.7544999718666077,-0.7402999997138977,9.749499320983887
1683009117535399700,7.196399658203125,0.7622999548912048,-0.739799976348877,9.748899459838867
1683009117555399700,7.216399658203125,0.7628999948501587,-0.7307999730110168,9.749499320983887
1683009117575399700,7.236399658203125,0.7299000024795532,-0.7321000099182129,9.751899719238281
1683009117595399700,7.256399658203125,0.6934999823570251,-0.7520999908447266,9.75309944152832
1683009117615399700,7.276399658203125,0.6908999681472778,-0.745199978351593,9.753799438476562
1683009117635402800,7.29640283203125,0.7293999791145325,-0.7073999643325806,9.753799438476562
1683009117655402800,7.31640283203125,0.8015999794006348,-0.6608999967575073,9.751399993896484
1683009117675399700,7.336399658203125,0.8369999527931213,-0.6291999816894531,9.750499725341797
1683009117695399700,7.356399658203125,0.7833999991416931,-0.6189000010490417,9.755599975585938
1683009117715401200,7.376401123046875,0.6820999979972839,-0.6128000020980835,9.763599395751953
1683009117735399700,7.396399658203125,0.5819000005722046,-0.602899968624115,9.770699501037598
1683009117755399700,7.416399658203125,0.5620999932289124,-0.5845000147819519,9.77299976348877
1683009117775399700,7.436399658203125,0.6092999577522278,-0.5435999631881714,9.772500038146973
1683009117795399700,7.456399658203125,0.6621999740600586,-0.5062000155448914,9.771100044250488
1683009117815399700,7.476399658203125,0.7001999616622925,-0.4843999743461609,9.769599914550781
1683009117835399700,7.496399658203125,0.712399959564209,-0.4715999960899353,9.769299507141113
1683009117855399700,7.516399658203125,0.6987999677658081,-0.47049999237060547,9.770299911499023
1683009117875399700,7.536399658203125,0.6753999590873718,-0.4810999929904938,9.771499633789062
1683009117895399700,7.556399658203125,0.6518999934196472,-0.49969998002052307,9.772099494934082
1683009117915399700,7.576399658203125,0.6335999965667725,-0.515500009059906,9.772500038146973
1683009117935399700,7.596399658203125,0.6161999702453613,-0.5167999863624573,9.773599624633789
1683009117955399700,7.616399658203125,0.6050999760627747,-0.5054999589920044,9.774799346923828
1683009117975399700,7.636399658203125,0.606499969959259,-0.487199991941452,9.775699615478516
1683009117995399700,7.656399658203125,0.6175000071525574,-0.47119998931884766,9.775799751281738
1683009118015399700,7.676399658203125,0.6317999958992004,-0.4545999765396118,9.775699615478516
1683009118035399700,7.696399658203125,0.6412000060081482,-0.43699997663497925,9.775799751281738
1683009118055399700,7.716399658203125,0.6491999626159668,-0.41990000009536743,9.776100158691406
1683009118075399700,7.736399658203125,0.6502000093460083,-0.40459999442100525,9.776599884033203
1683009118095399700,7.756399658203125,0.6488999724388123,-0.39149999618530273,9.777299880981445
1683009118115399700,7.776399658203125,0.6444999575614929,-0.376800000667572,9.77810001373291
1683009118135399700,7.796399658203125,0.6369999647140503,-0.3635999858379364,9.779099464416504
1683009118155399700,7.816399658203125,0.6269999742507935,-0.35749998688697815,9.779999732971191
1683009118175399700,7.836399658203125,0.6139999628067017,-0.35179999470710754,9.781000137329102
1683009118195399700,7.856399658203125,0.5999999642372131,-0.3308999836444855,9.782599449157715
1683009118215399700,7.876399658203125,0.5938999652862549,-0.287200003862381,9.78439998626709
1683009118235399700,7.896399658203125,0.6003999710083008,-0.22939999401569366,9.785499572753906
1683009118255399700,7.916399658203125,0.6116999983787537,-0.17870000004768372,9.785900115966797
1683009118275399700,7.936399658203125,0.6150999665260315,-0.14800000190734863,9.786199569702148
1683009118295399700,7.956399658203125,0.6229000091552734,-0.12950000166893005,9.785900115966797
1683009118315399700,7.976399658203125,0.630899965763092,-0.10779999941587448,9.785699844360352
1683009118335399700,7.996399658203125,0.6430000066757202,-0.08370000123977661,9.785099983215332
1683009118355399700,8.016399658203126,0.6728000044822693,-0.060999996960163116,9.783299446105957
1683009118375399700,8.036399658203125,0.715499997138977,-0.052299998700618744,9.78030014038086
1683009118395399700,8.056399658203125,0.7561999559402466,-0.05689999833703041,9.777199745178223
1683009118415399700,8.076399658203124,0.7787999510765076,-0.07119999825954437,9.775400161743164
1683009118435399700,8.096399658203126,0.7856000065803528,-0.10799999535083771,9.774499893188477
1683009118455399700,8.116399658203125,0.786799967288971,-0.1662999987602234,9.773599624633789
1683009118475399700,8.136399658203125,0.7883999943733215,-0.2289000004529953,9.772199630737305
1683009118495399700,8.156399658203124,0.7947999835014343,-0.2847000062465668,9.7701997756958
1683009118515399700,8.176399658203126,0.807699978351593,-0.3328999876976013,9.767600059509277
1683009118535399700,8.196399658203125,0.8256999850273132,-0.376800000667572,9.76449966430664
1683009118555402800,8.21640283203125,0.8509999513626099,-0.41179999709129333,9.760899543762207
1683009118575401200,8.236401123046875,0.8836999535560608,-0.44020000100135803,9.756799697875977
1683009118595399700,8.256399658203126,0.925599992275238,-0.46779999136924744,9.751599311828613
1683009118615399700,8.276399658203125,0.9704999923706055,-0.49619999527931213,9.745800018310547
1683009118635401200,8.296401123046875,1.0030999183654785,-0.5325999855995178,9.740599632263184
1683009118655399700,8.316399658203125,1.0197999477386475,-0.5767999887466431,9.73639965057373
1683009118675399700,8.336399658203124,1.0230000019073486,-0.6229000091552734,9.733200073242188
1683009118695399700,8.356399658203125,1.027400016784668,-0.6578999757766724,9.730400085449219
1683009118715402800,8.37640283203125,1.041100025177002,-0.6728000044822693,9.727899551391602
1683009118735399700,8.396399658203125,1.0640000104904175,-0.6696999669075012,9.725699424743652
1683009118755399700,8.416399658203124,1.0867999792099,-0.6557999849319458,9.724100112915039
1683009118775402800,8.43640283203125,1.0918999910354614,-0.642300009727478,9.72439956665039
1683009118795402800,8.45640283203125,1.0871000289916992,-0.6240999698638916,9.726099967956543
1683009118815402800,8.47640283203125,1.0728999376296997,-0.6003000140190125,9.729199409484863
1683009118835399700,8.496399658203124,1.0476000308990479,-0.5672000050544739,9.734000205993652
1683009118855399700,8.516399658203126,1.0097999572753906,-0.5074999928474426,9.741299629211426
1683009118875399700,8.536399658203125,0.9672999978065491,-0.4348999857902527,9.749099731445312
1683009118895399700,8.556399658203125,0.9365999698638916,-0.36139997839927673,9.755099296569824
1683009118915399700,8.576399658203124,0.9188999533653259,-0.30300000309944153,9.758699417114258
1683009118935399700,8.596399658203126,0.8912999629974365,-0.26330000162124634,9.762499809265137
1683009118955399700,8.616399658203125,0.8294999599456787,-0.24979999661445618,9.76830005645752
1683009118975399700,8.636399658203125,0.7483999729156494,-0.26159998774528503,9.774499893188477
1683009118995399700,8.656399658203124,0.7037000060081482,-0.2760999798774719,9.777400016784668
1683009119015399700,8.676399658203126,0.7221999764442444,-0.2522999942302704,9.776700019836426
1683009119035399700,8.696399658203125,0.7785999774932861,-0.19380000233650208,9.773699760437012
1683009119055399700,8.716399658203125,0.8145999908447266,-0.12799999117851257,9.771900177001953
1683009119075399700,8.736399658203124,0.8183000087738037,-0.07519999891519547,9.772099494934082
1683009119095399700,8.756399658203126,0.7935000061988831,-0.03830000013113022,9.774399757385254
1683009119115399700,8.776399658203125,0.767300009727478,-0.012000000104308128,9.77649974822998
1683009119135401200,8.796401123046875,0.7669000029563904,0.017999999225139618,9.77649974822998
1683009119155399700,8.816399658203125,0.7940999865531921,0.04569999873638153,9.774299621582031
1683009119175399700,8.836399658203124,0.8179000020027161,0.06589999794960022,9.772199630737305
1683009119195399700,8.856399658203125,0.8228999972343445,0.0810999944806099,9.771699905395508
1683009119215401200,8.876401123046875,0.8151999711990356,0.0940999984741211,9.772199630737305
1683009119235399700,8.896399658203125,0.8046999573707581,0.10399999469518661,9.77299976348877
1683009119255399700,8.916399658203124,0.8009999990463257,0.10610000044107437,9.773200035095215
1683009119275401200,8.936401123046876,0.7958999872207642,0.10579999536275864,9.773699760437012
1683009119295399700,8.956399658203125,0.7889999747276306,0.10869999974966049,9.774199485778809
1683009119315399700,8.976399658203125,0.7890999913215637,0.11819999665021896,9.774099349975586
1683009119335399700,8.996399658203124,0.79339998960495,0.12789998948574066,9.773599624633789
1683009119355399700,9.016399658203126,0.7958999872207642,0.1395999938249588,9.773200035095215
1683009119375399700,9.036399658203125,0.79749995470047,0.15439999103546143,9.772899627685547
1683009119395399700,9.056399658203125,0.799299955368042,0.17109999060630798,9.772500038146973
1683009119415399700,9.076399658203124,0.8079999685287476,0.18789999186992645,9.77139949798584
1683009119435401200,9.096401123046874,0.8173999786376953,0.1946999877691269,9.770500183105469
1683009119455399700,9.116399658203125,0.8208999633789062,0.188400000333786,9.770400047302246
1683009119475399700,9.136399658203125,0.8193999528884888,0.17309999465942383,9.77079963684082
1683009119495399700,9.156399658203124,0.8217999935150146,0.15719999372959137,9.77079963684082
1683009119515399700,9.176399658203126,0.8348000049591064,0.15609999001026154,9.769800186157227
1683009119535399700,9.196399658203125,0.8527999520301819,0.1768999993801117,9.767799377441406
1683009119555399700,9.216399658203125,0.8662999868392944,0.21209999918937683,9.765999794006348
1683009119575401200,9.236401123046875,0.884399950504303,0.24789999425411224,9.763500213623047
1683009119595399700,9.256399658203126,0.9004999995231628,0.28200000524520874,9.761099815368652
1683009119615399700,9.276399658203125,0.9143999814987183,0.30169999599456787,9.759200096130371
1683009119635399700,9.296399658203125,0.9424999952316284,0.3050000071525574,9.756400108337402
1683009119655399700,9.316399658203125,0.9803999662399292,0.30719998478889465,9.752599716186523
1683009119675399700,9.336399658203124,1.0099999904632568,0.30239999294281006,9.749799728393555
1683009119695399700,9.356399658203125,1.0317000150680542,0.28110000491142273,9.748099327087402
1683009119715401200,9.376401123046875,1.0605000257492065,0.25349998474121094,9.745800018310547
1683009119735399700,9.396399658203125,1.1105999946594238,0.24300000071525574,9.740499496459961
1683009119755399700,9.416399658203124,1.1694999933242798,0.24939998984336853,9.733399391174316
1683009119775401200,9.436401123046876,1.2166999578475952,0.25679999589920044,9.727399826049805
1683009119795399700,9.456399658203125,1.2409999370574951,0.2434999942779541,9.724699974060059
1683009119815399700,9.476399658203125,1.2336000204086304,0.19629999995231628,9.726699829101562
1683009119835399700,9.496399658203124,1.1966999769210815,0.13239999115467072,9.732399940490723
1683009119855399700,9.516399658203126,1.167199969291687,0.07639999687671661,9.736599922180176
1683009119875399700,9.536399658203125,1.1607999801635742,0.04050000011920929,9.73759937286377
1683009119895399700,9.556399658203125,1.1692999601364136,0.0340999998152256,9.736599922180176
1683009119915399700,9.576399658203124,1.1785999536514282,0.05269999802112579,9.735400199890137
1683009119935399700,9.596399658203126,1.194599986076355,0.08540000021457672,9.733200073242188
1683009119955399700,9.616399658203125,1.2156000137329102,0.11909999698400497,9.730199813842773
1683009119975399700,9.636399658203125,1.2355999946594238,0.14309999346733093,9.727399826049805
1683009119995399700,9.656399658203124,1.2483999729156494,0.14729999005794525,9.725699424743652
1683009120015399700,9.676399658203126,1.2479000091552734,0.13249999284744263,9.72599983215332
1683009120035399700,9.696399658203125,1.2369999885559082,0.10779999941587448,9.727699279785156
1683009120055399700,9.716399658203125,1.223599910736084,0.08509999513626099,9.729599952697754
1683009120075401200,9.736401123046875,1.208299994468689,0.07180000096559525,9.731599807739258
1683009120095399700,9.756399658203126,1.1955000162124634,0.06889999657869339,9.733200073242188
1683009120115399700,9.776399658203125,1.191999912261963,0.07349999994039536,9.733599662780762
1683009120135401200,9.796401123046875,1.1927999258041382,0.08309999853372574,9.733399391174316
1683009120155399700,9.816399658203125,1.1934999227523804,0.09669999778270721,9.733200073242188
1683009120175399700,9.836399658203124,1.1953999996185303,0.11429999768733978,9.732799530029297
1683009120195399700,9.856399658203125,1.199199914932251,0.1378999948501587,9.731999397277832
1683009120215401200,9.876401123046875,1.2044999599456787,0.1639000028371811,9.730999946594238
1683009120235399700,9.896399658203125,1.2115999460220337,0.1946999877691269,9.729499816894531
1683009120255399700,9.916399658203124,1.2250999212265015,0.22739998996257782,9.727099418640137
1683009120275402800,9.93640283203125,1.2376999855041504,0.2502000033855438,9.72499942779541
1683009120295399700,9.956399658203125,1.2495999336242676,0.2687999904155731,9.722899436950684
1683009120315399700,9.976399658203125,1.2595999240875244,0.2888999879360199,9.721099853515625
1683009120335399700,9.996399658203124,1.2721999883651733,0.30410000681877136,9.718999862670898
1683009120355401200,10.016401123046874,1.3019999265670776,0.31219998002052307,9.714799880981445
1683009120375399700,10.036399658203125,1.3142999410629272,0.2971999943256378,9.713600158691406
1683009120395399700,10.056399658203125,1.315500020980835,0.2620999813079834,9.714399337768555
1683009120415402800,10.07640283203125,1.330899953842163,0.23929999768733978,9.712900161743164
1683009120435401200,10.096401123046874,1.365899920463562,0.22589999437332153,9.708399772644043
1683009120455399700,10.116399658203125,1.3981999158859253,0.22619999945163727,9.703800201416016
1683009120475399700,10.136399658203125,1.4014999866485596,0.23979999125003815,9.70300006866455
1683009120495399700,10.156399658203124,1.3783999681472778,0.26100000739097595,9.705699920654297
1683009120515399700,10.176399658203126,1.3499000072479248,0.2800000011920929,9.709199905395508
1683009120535399700,10.196399658203125,1.3305000066757202,0.284199982881546,9.711799621582031
1683009120555399700,10.216399658203125,1.3181999921798706,0.2881999909877777,9.713299751281738
1683009120575399700,10.236399658203124,1.3040999174118042,0.3044999837875366,9.714699745178223
1683009120595399700,10.256399658203126,1.2872999906539917,0.32519999146461487,9.716300010681152
1683009120615399700,10.276399658203125,1.2756999731063843,0.34439998865127563,9.717199325561523
1683009120635401200,10.296401123046875,1.2763999700546265,0.35989999771118164,9.716499328613281
1683009120655399700,10.316399658203125,1.275399923324585,0.36949998140335083,9.716300010681152
1683009120675399700,10.336399658203124,1.2687000036239624,0.3747999966144562,9.717000007629395
1683009120695399700,10.356399658203125,1.2573999166488647,0.3757999837398529,9.718400001525879
1683009120715401200,10.376401123046875,1.23580002784729,0.3610000014305115,9.721699714660645
1683009120735399700,10.396399658203125,1.2034000158309937,0.33390000462532043,9.726799964904785
1683009120755399700,10.416399658203124,1.1608999967575073,0.30149999260902405,9.732999801635742
1683009120775401200,10.436401123046876,1.1225999593734741,0.2721000015735626,9.738299369812012
1683009120795399700,10.456399658203125,1.0954999923706055,0.24949999153614044,9.741999626159668
1683009120815399700,10.476399658203125,1.081399917602539,0.23519998788833618,9.74389934539795
1683009120835399700,10.496399658203124,1.073599934577942,0.23079998791217804,9.74489974975586
1683009120855399700,10.516399658203126,1.0674999952316284,0.22819998860359192,9.745699882507324
1683009120875399700,10.536399658203125,1.0609999895095825,0.21969999372959137,9.746600151062012
1683009120895399700,10.556399658203125,1.055899977684021,0.19999998807907104,9.747499465942383
1683009120915399700,10.576399658203124,1.0655999183654785,0.17749999463558197,9.746899604797363
1683009120935401200,10.596401123046874,1.0845999717712402,0.16609999537467957,9.744999885559082
1683009120955399700,10.616399658203125,1.104099988937378,0.1613999903202057,9.742899894714355
1683009120975399700,10.636399658203125,1.1180000305175781,0.1597999930381775,9.741299629211426
1683009120995399700,10.656399658203124,1.1236000061035156,0.16749998927116394,9.740599632263184
1683009121015399700,10.676399658203126,1.110700011253357,0.18039999902248383,9.741799354553223
1683009121035399700,10.696399658203125,1.0866999626159668,0.18379999697208405,9.744500160217285
1683009121055399700,10.716399658203125,1.0823999643325806,0.179299995303154,9.744999885559082
1683009121075399700,10.736399658203124,1.0898000001907349,0.18239998817443848,9.744099617004395
1683009121095399700,10.756399658203126,1.103600025177002,0.18050000071525574,9.742599487304688
1683009121115399700,10.776399658203125,1.1172000169754028,0.16599999368190765,9.741299629211426
1683009121135401200,10.796401123046875,1.1330000162124634,0.13849999010562897,9.739899635314941
1683009121155402800,10.81640283203125,1.1613999605178833,0.12289999425411224,9.736800193786621
1683009121175402800,10.83640283203125,1.2095999717712402,0.13729999959468842,9.73069953918457
1683009121195399700,10.856399658203125,1.2753000259399414,0.17149999737739563,9.721799850463867
1683009121215401200,10.876401123046875,1.3265999555587769,0.19380000233650208,9.714499473571777
1683009121235399700,10.896399658203125,1.3457000255584717,0.19990000128746033,9.711799621582031
1683009121255399700,10.916399658203124,1.3248000144958496,0.18549999594688416,9.714900016784668
1683009121275399700,10.936399658203126,1.2660999298095703,0.15049999952316284,9.723299980163574
1683009121295399700,10.956399658203125,1.2063000202178955,0.11479999870061874,9.731399536132812
1683009121315399700,10.976399658203125,1.1723999977111816,0.09869999438524246,9.735799789428711
1683009121335399700,10.996399658203124,1.1708999872207642,0.09869999438524246,9.735899925231934
1683009121355399700,11.016399658203126,1.1606999635696411,0.10509999841451645,9.737099647521973
1683009121375399700,11.036399658203125,1.1603999137878418,0.11749999970197678,9.73699951171875
1683009121395399700,11.056399658203125,1.1685999631881714,0.13619999587535858,9.735799789428711
1683009121415399700,11.076399658203124,1.1869999170303345,0.1428000032901764,9.733399391174316
1683009121435401200,11.096401123046874,1.2094999551773071,0.14019998908042908,9.73069953918457
1683009121455399700,11.116399658203125,1.236899971961975,0.13319998979568481,9.727399826049805
1683009121475399700,11.136399658203125,1.2577999830245972,0.12969999015331268,9.724699974060059
1683009121495399700,11.156399658203124,1.26010000705719,0.1356000006198883,9.72439956665039
1683009121515399700,11.176399658203126,1.229200005531311,0.1428999900817871,9.72819995880127
1683009121535399700,11.196399658203125,1.199299931526184,0.14579999446868896,9.731900215148926
1683009121555399700,11.216399658203125,1.174799919128418,0.15619999170303345,9.734700202941895
1683009121575399700,11.236399658203124,1.1710000038146973,0.17090000212192535,9.734899520874023
1683009121595399700,11.256399658203126,1.1753000020980835,0.1889999955892563,9.734099388122559
1683009121615399700,11.276399658203125,1.1857999563217163,0.21279999613761902,9.7322998046875
1683009121635399700,11.296399658203125,1.1935999393463135,0.24309998750686646,9.73069953918457
1683009121655399700,11.316399658203125,1.1937999725341797,0.2773999869823456,9.729700088500977
1683009121675399700,11.336399658203124,1.1872999668121338,0.310699999332428,9.729499816894531
1683009121695399700,11.356399658203125,1.1787999868392944,0.337799996137619,9.729599952697754
1683009121715399700,11.376399658203125,1.1612999439239502,0.3479999899864197,9.731399536132812
1683009121735399700,11.396399658203125,1.1222000122070312,0.33489999175071716,9.73639965057373
1683009121755399700,11.416399658203124,1.0685999393463135,0.307699978351593,9.74329948425293
1683009121775399700,11.436399658203126,1.0281000137329102,0.30230000615119934,9.747900009155273
1683009121795399700,11.456399658203125,1.021799921989441,0.3130999803543091,9.748199462890625
1683009121815399700,11.476399658203125,1.0454999208450317,0.3139999806880951,9.745599746704102
1683009121835399700,11.496399658203124,1.0722999572753906,0.3211999833583832,9.742499351501465
1683009121855401200,11.516401123046874,1.0894999504089355,0.32919999957084656,9.740300178527832
1683009121875399700,11.536399658203125,1.0865999460220337,0.3352999985218048,9.740399360656738
1683009121895399700,11.556399658203125,1.069100022315979,0.3287000060081482,9.742599487304688
1683009121915399700,11.576399658203124,1.0514999628067017,0.3156999945640564,9.74489974975586
1683009121935401200,11.596401123046874,1.0353000164031982,0.3157999813556671,9.746699333190918
1683009121955399700,11.616399658203125,1.021399974822998,0.3296000063419342,9.747699737548828
1683009121975399700,11.636399658203125,1.0181000232696533,0.35510000586509705,9.747099876403809
1683009121995399700,11.656399658203124,1.030900001525879,0.3871999979019165,9.744599342346191
1683009122015399700,11.676399658203126,1.0494999885559082,0.4211999773979187,9.741199493408203
1683009122035399700,11.696399658203125,1.0650999546051025,0.45509999990463257,9.737899780273438
1683009122055399700,11.716399658203125,1.0770000219345093,0.4910999834537506,9.734899520874023
1683009122075401200,11.736401123046875,1.0887999534606934,0.5234999656677246,9.731900215148926
1683009122095399700,11.756399658203126,1.0999000072479248,0.5508999824523926,9.729100227355957
1683009122115399700,11.776399658203125,1.1058999300003052,0.5694999694824219,9.727399826049805
1683009122135401200,11.796401123046875,1.104099988937378,0.5780999660491943,9.727099418640137
1683009122155399700,11.816399658203125,1.0973999500274658,0.5752999782562256,9.727999687194824
1683009122175399700,11.836399658203124,1.0831999778747559,0.562999963760376,9.730299949645996
1683009122195399700,11.856399658203125,1.0692999362945557,0.5404999852180481,9.733099937438965
1683009122215401200,11.876401123046875,1.0626999139785767,0.5142999887466431,9.735300064086914
1683009122235399700,11.896399658203125,1.0619999170303345,0.4931999742984772,9.73639965057373
1683009122255399700,11.916399658203124,1.066499948501587,0.4778999984264374,9.736700057983398
1683009122275399700,11.936399658203126,1.0728999376296997,0.4666000008583069,9.736599922180176
1683009122295399700,11.956399658203125,1.0770000219345093,0.4554999768733978,9.736599922180176
1683009122315399700,11.976399658203125,1.075600028038025,0.446399986743927,9.737199783325195
1683009122335402800,11.99640283203125,1.0716999769210815,0.44589999318122864,9.737699508666992
1683009122355399700,12.016399658203126,1.065500020980835,0.45729997754096985,9.737799644470215
1683009122375402800,12.03640283203125,1.0568000078201294,0.48009997606277466,9.737699508666992
1683009122395402800,12.05640283203125,1.0647000074386597,0.5087000131607056,9.735300064086914
1683009122415399700,12.076399658203124,1.084399938583374,0.5227000117301941,9.732399940490723
1683009122435399700,12.096399658203126,1.1093999147415161,0.519599974155426,9.7298002243042
1683009122455399700,12.116399658203125,1.1174999475479126,0.5077999830245972,9.729499816894531
1683009122475399700,12.136399658203125,1.114300012588501,0.47749999165534973,9.731399536132812
1683009122495399700,12.156399658203124,1.111199975013733,0.42569997906684875,9.734099388122559
1683009122515399700,12.176399658203126,1.1115000247955322,0.36389997601509094,9.736599922180176
1683009122535399700,12.196399658203125,1.1345000267028809,0.3269999921321869,9.735300064086914
1683009122555399700,12.216399658203125,1.1643999814987183,0.31790000200271606,9.731999397277832
1683009122575401200,12.236401123046875,1.180999994277954,0.3149999976158142,9.73009967803955
1683009122595399700,12.256399658203126,1.1759999990463257,0.29420000314712524,9.731399536132812
1683009122615399700,12.276399658203125,1.1431999206542969,0.2604999840259552,9.736199378967285
1683009122635401200,12.296401123046875,1.0993000268936157,0.2378999888896942,9.741899490356445
1683009122655401200,12.316401123046875,1.0651999711990356,0.23680000007152557,9.745699882507324
1683009122675399700,12.336399658203124,1.0484999418258667,0.24009999632835388,9.74739933013916
1683009122695399700,12.356399658203125,1.0389000177383423,0.24139998853206635,9.74839973449707
1683009122715399700,12.376399658203125,1.0285999774932861,0.24489998817443848,9.74940013885498
1683009122735399700,12.396399658203125,1.0159000158309937,0.24899999797344208,9.750699996948242
1683009122755399700,12.416399658203124,0.9993000030517578,0.2442999929189682,9.7524995803833
1683009122775399700,12.436399658203126,0.9817000031471252,0.22619999945163727,9.75469970703125
1683009122795399700,12.456399658203125,0.9652999639511108,0.2043999880552292,9.756799697875977
1683009122815399700,12.476399658203125,0.9440999627113342,0.17949999868869781,9.7593994140625
1683009122835399700,12.496399658203124,0.9196999669075012,0.1559000015258789,9.762100219726562
1683009122855399700,12.516399658203126,0.9027999639511108,0.14000000059604645,9.763899803161621
1683009122875399700,12.536399658203125,0.8969999551773071,0.131400004029274,9.764599800109863
1683009122895399700,12.556399658203125,0.901199996471405,0.12849999964237213,9.764200210571289
1683009122915399700,12.576399658203124,0.9074999690055847,0.1273999959230423,9.763699531555176
1683009122935399700,12.596399658203126,0.913599967956543,0.1225999966263771,9.763199806213379
1683009122955399700,12.616399658203125,0.9131999611854553,0.11019999533891678,9.763400077819824
1683009122975399700,12.636399658203125,0.914900004863739,0.10329999774694443,9.763299942016602
1683009122995399700,12.656399658203124,0.914900004863739,0.09860000014305115,9.763299942016602
1683009123015399700,12.676399658203126,0.911300003528595,0.09339999407529831,9.763699531555176
1683009123035399700,12.696399658203125,0.9053999781608582,0.09009999781847,9.764299392700195
1683009123055399700,12.716399658203125,0.9030999541282654,0.09030000120401382,9.76449966430664
1683009123075399700,12.736399658203124,0.905299961566925,0.09839999675750732,9.764200210571289
1683009123095399700,12.756399658203126,0.8983999490737915,0.1127999946475029,9.764699935913086
1683009123115399700,12.776399658203125,0.8859999775886536,0.11659999936819077,9.765799522399902
1683009123135399700,12.796399658203125,0.8804999589920044,0.11219999939203262,9.766300201416016
1683009123155399700,12.816399658203125,0.8860999941825867,0.09529999643564224,9.765999794006348
1683009123175399700,12.836399658203124,0.9097999930381775,0.07669999450445175,9.763999938964844
1683009123195399700,12.856399658203125,0.9317999482154846,0.07769999653100967,9.761899948120117
1683009123215399700,12.876399658203125,0.9475999474525452,0.11299999803304672,9.760000228881836
1683009123235399700,12.896399658203125,0.9646999835968018,0.1574999988079071,9.757800102233887
1683009123255399700,12.916399658203124,0.9749999642372131,0.18239998817443848,9.75629997253418
1683009123275399700,12.936399658203126,0.9623000025749207,0.18799999356269836,9.757499694824219
1683009123295399700,12.956399658203125,0.933899998664856,0.17379999160766602,9.760499954223633
1683009123315399700,12.976399658203125,0.8928999900817871,0.1599999964237213,9.76449966430664
1683009123335399700,12.996399658203124,0.8611999750137329,0.15760000050067902,9.767399787902832
1683009123355399700,13.016399658203126,0.8500999808311462,0.16179999709129333,9.76830005645752
1683009123375399700,13.036399658203125,0.8568999767303467,0.1793999969959259,9.767399787902832
1683009123395399700,13.056399658203125,0.8729999661445618,0.20729999244213104,9.76550006866455
1683009123415399700,13.076399658203124,0.8896999955177307,0.2320999950170517,9.763400077819824
1683009123435399700,13.096399658203126,0.8994999527931213,0.2513999938964844,9.76200008392334
1683009123455399700,13.116399658203125,0.903499960899353,0.262800008058548,9.761300086975098
1683009123475399700,13.136399658203125,0.9021999835968018,0.26330000162124634,9.761499404907227
1683009123495399700,13.156399658203124,0.8944999575614929,0.2557999789714813,9.762399673461914
1683009123515399700,13.176399658203126,0.8766999840736389,0.24129998683929443,9.764299392700195
1683009123535399700,13.196399658203125,0.8496999740600586,0.22749999165534973,9.767099380493164
1683009123555399700,13.216399658203125,0.8165000081062317,0.22139999270439148,9.769999504089355
1683009123575399700,13.236399658203124,0.7828999757766724,0.2199999988079071,9.772799491882324
1683009123595399700,13.256399658203126,0.75,0.21979999542236328,9.775400161743164
1683009123615399700,13.276399658203125,0.7249000072479248,0.21559999883174896,9.777400016784668
1683009123635399700,13.296399658203125,0.7098000049591064,0.2053999900817871,9.77869987487793
1683009123655399700,13.316399658203125,0.7085999846458435,0.19699999690055847,9.778999328613281
1683009123675399700,13.336399658203124,0.7258999943733215,0.19749999046325684,9.77769947052002
1683009123695399700,13.356399658203125,0.7559999823570251,0.20399999618530273,9.775300025939941
1683009123715399700,13.376399658203125,0.7919999957084656,0.21639999747276306,9.772199630737305
1683009123735399700,13.396399658203125,0.8297999501228333,0.23240000009536743,9.768699645996094
1683009123755399700,13.416399658203124,0.8615999817848206,0.23989999294281006,9.76569938659668
1683009123775399700,13.436399658203126,0.8834999799728394,0.24159999191761017,9.763699531555176
1683009123795399700,13.456399658203125,0.8789999485015869,0.2246999889612198,9.76449966430664
1683009123815399700,13.476399658203125,0.8781999945640564,0.18639999628067017,9.765399932861328
1683009123835399700,13.496399658203124,0.8737999796867371,0.15839999914169312,9.766300201416016
1683009123855399700,13.516399658203126,0.8811999559402466,0.13759998977184296,9.765999794006348
1683009123875399700,13.536399658203125,0.9002999663352966,0.12069999426603317,9.764399528503418
1683009123895399700,13.556399658203125,0.9200999736785889,0.1039000004529953,9.762800216674805
1683009123915399700,13.576399658203124,0.9495999813079834,0.09049999713897705,9.760099411010742
1683009123935399700,13.596399658203126,0.9882999658584595,0.09429999440908432,9.756199836730957
1683009123955399700,13.616399658203125,1.035099983215332,0.11409999430179596,9.751199722290039
1683009123975399700,13.636399658203125,1.0820999145507812,0.13519999384880066,9.745800018310547
1683009123995399700,13.656399658203124,1.0936999320983887,0.13840000331401825,9.744400024414062
1683009124015399700,13.676399658203126,1.063599944114685,0.11599999666213989,9.748099327087402
1683009124035399700,13.696399658203125,1.0041999816894531,0.07779999822378159,9.75469970703125
1683009124055399700,13.716399658203125,0.9466999769210815,0.041999999433755875,9.760700225830078
1683009124075399700,13.736399658203124,0.9156000018119812,0.020600000396370888,9.763699531555176
1683009124095399700,13.756399658203126,0.9052000045776367,0.008899999782443047,9.764699935913086
1683009124115399700,13.776399658203125,0.8982999920845032,0.00019999999494757503,9.765399932861328
1683009124135399700,13.796399658203125,0.8867999911308289,-0.007199999876320362,9.766399383544922
1683009124155399700,13.816399658203125,0.8804999589920044,-0.012600000016391277,9.767000198364258
1683009124175399700,13.836399658203124,0.8822999596595764,-0.01730000041425228,9.766799926757812
1683009124195399700,13.856399658203125,0.8919999599456787,-0.02719999849796295,9.765899658203125
1683009124215399700,13.876399658203125,0.9014999866485596,-0.04050000011920929,9.764999389648438
1683009124235399700,13.896399658203125,0.9062999486923218,-0.06269999593496323,9.764399528503418
1683009124255399700,13.916399658203124,0.9045999646186829,-0.09189999848604202,9.764399528503418
1683009124275399700,13.936399658203126,0.9023000001907349,-0.11749999970197678,9.764299392700195
1683009124295399700,13.956399658203125,0.901199996471405,-0.13669998943805695,9.764100074768066
1683009124315399700,13.976399658203125,0.8965999484062195,-0.1459999978542328,9.764399528503418
1683009124335399700,13.996399658203124,0.8873999714851379,-0.1476999968290329,9.765199661254883
1683009124355399700,14.016399658203126,0.8721999526023865,-0.14649999141693115,9.766599655151367
1683009124375399700,14.036399658203125,0.8531999588012695,-0.14549998939037323,9.76830005645752
1683009124395401200,14.056401123046875,0.8333999514579773,-0.14299999177455902,9.770099639892578
1683009124415399700,14.076399658203124,0.8112999796867371,-0.1404999941587448,9.77199935913086
1683009124435401200,14.096401123046874,0.7792999744415283,-0.14669999480247498,9.774499893188477
1683009124455399700,14.116399658203125,0.7513999938964844,-0.1605999916791916,9.776399612426758
1683009124475399700,14.136399658203125,0.7348999977111816,-0.17710000276565552,9.777400016784668
1683009124495401200,14.156401123046875,0.710099995136261,-0.19900000095367432,9.778800010681152
1683009124515399700,14.176399658203126,0.6502999663352966,-0.2434999942779541,9.781999588012695
1683009124535399700,14.196399658203125,0.5856999754905701,-0.3114999830722809,9.784099578857422
1683009124555399700,14.216399658203125,0.5654000043869019,-0.37199997901916504,9.783199310302734
1683009124575401200,14.236401123046875,0.6087999939918518,-0.39239999651908875,9.779799461364746
1683009124595399700,14.256399658203126,0.6917999982833862,-0.38439998030662537,9.7746000289917
1683009124615399700,14.276399658203125,0.7780999541282654,-0.3467999994754791,9.769499778747559
1683009124635401200,14.296401123046875,0.8394999504089355,-0.2906999886035919,9.766300201416016
1683009124655401200,14.316401123046875,0.8570999503135681,-0.22609999775886536,9.766499519348145
1683009124675399700,14.336399658203124,0.8592000007629395,-0.16099999845027924,9.767600059509277
1683009124695399700,14.356399658203125,0.8628000020980835,-0.09449999779462814,9.768099784851074
1683009124715401200,14.376401123046875,0.8711999654769897,-0.03449999913573265,9.767799377441406
1683009124735399700,14.396399658203125,0.8762999773025513,0.011799999512732029,9.767399787902832
1683009124755399700,14.416399658203124,0.8730999827384949,0.038599997758865356,9.767600059509277
1683009124775399700,14.436399658203126,0.85999995470047,0.04429999738931656,9.768699645996094
1683009124795399700,14.456399658203125,0.8446999788284302,0.042500000447034836,9.770099639892578
1683009124815399700,14.476399658203125,0.8323999643325806,0.05119999870657921,9.771100044250488
1683009124835399700,14.496399658203124,0.8291999697685242,0.06549999862909317,9.771299362182617
1683009124855399700,14.516399658203126,0.8323000073432922,0.07519999891519547,9.770899772644043
1683009124875399700,14.536399658203125,0.8263999819755554,0.07739999890327454,9.77139949798584
1683009124895399700,14.556399658203125,0.8127999901771545,0.07499999552965164,9.772600173950195
1683009124915399700,14.576399658203124,0.8041999936103821,0.07360000163316727,9.773300170898438
1683009124935401200,14.596401123046874,0.799299955368042,0.0705999955534935,9.773699760437012
1683009124955399700,14.616399658203125,0.7857999801635742,0.054499998688697815,9.77489948272705
1683009124975399700,14.636399658203125,0.7462999820709229,0.02329999953508377,9.77810001373291
1683009124995401200,14.656401123046875,0.6909999847412109,-0.024399999529123306,9.78219985961914
1683009125015399700,14.676399658203126,0.6548999547958374,-0.07689999788999557,9.78439998626709
1683009125035399700,14.696399658203125,0.6577999591827393,-0.11409999430179596,9.78380012512207
1683009125055399700,14.716399658203125,0.6983999609947205,-0.141199991106987,9.780699729919434
1683009125075401200,14.736401123046875,0.7616999745368958,-0.16669999063014984,9.77549934387207
1683009125095399700,14.756399658203126,0.8050000071525574,-0.1955999881029129,9.771499633789062
1683009125115399700,14.776399658203125,0.8281999826431274,-0.22089999914169312,9.769100189208984
1683009125135401200,14.796401123046875,0.8361999988555908,-0.22669999301433563,9.76830005645752
1683009125155399700,14.816399658203125,0.8387999534606934,-0.219200000166893,9.768199920654297
1683009125175399700,14.836399658203124,0.8384999632835388,-0.21359999477863312,9.76830005645752
1683009125195399700,14.856399658203125,0.823699951171875,-0.2386000007390976,9.769000053405762
1683009125215401200,14.876401123046875,0.8216999769210815,-0.2848999798297882,9.767999649047852
1683009125235399700,14.896399658203125,0.8398999571800232,-0.3172999918460846,9.765399932861328
1683009125255399700,14.916399658203124,0.876800000667572,-0.3392999768257141,9.76140022277832
1683009125275399700,14.936399658203126,0.9229999780654907,-0.34779998660087585,9.7568998336792
1683009125295399700,14.956399658203125,0.9858999848365784,-0.3401999771595001,9.750999450683594
1683009125315399700,14.976399658203125,1.0749999284744263,-0.31790000200271606,9.742300033569336
1683009125335399700,14.996399658203124,1.1556999683380127,-0.2839999794960022,9.734099388122559
1683009125355401200,15.016401123046874,1.1962999105453491,-0.26600000262260437,9.729700088500977
1683009125375399700,15.036399658203125,1.1815999746322632,-0.289900004863739,9.730799674987793
1683009125395402800,15.05640283203125,1.1137999296188354,-0.3358999788761139,9.737299919128418
1683009125415399700,15.076399658203124,1.0227999687194824,-0.3612000048160553,9.746399879455566
1683009125435401200,15.096401123046874,0.9556999802589417,-0.35749998688697815,9.753399848937988
1683009125455399700,15.116399658203125,0.936199963092804,-0.3312000036239624,9.756199836730957
1683009125475399700,15.136399658203125,0.9400999546051025,-0.29440000653266907,9.756999969482422
1683009125495399700,15.156399658203124,0.9462999701499939,-0.2703999876976013,9.757100105285645
1683009125515399700,15.176399658203126,0.9429999589920044,-0.25759997963905334,9.757699966430664
1683009125535399700,15.196399658203125,0.9281999468803406,-0.2611999809741974,9.759099960327148
1683009125555399700,15.216399658203125,0.9077999591827393,-0.29429998993873596,9.760000228881836
1683009125575399700,15.236399658203124,0.8845999836921692,-0.3446999788284302,9.760499954223633
1683009125595399700,15.256399658203126,0.8556999564170837,-0.39249998331069946,9.761300086975098
1683009125615399700,15.276399658203125,0.8091999888420105,-0.4375999867916107,9.763299942016602
1683009125635399700,15.296399658203125,0.7455999851226807,-0.4820999801158905,9.766300201416016
1683009125655402800,15.31640283203125,0.6765999794006348,-0.5210999846458435,9.769299507141113
1683009125675399700,15.336399658203124,0.6179999709129333,-0.5453999638557434,9.771900177001953
1683009125695399700,15.356399658203125,0.5827999711036682,-0.5417999625205994,9.774299621582031
1683009125715401200,15.376401123046875,0.5691999793052673,-0.5113999843597412,9.776700019836426
1683009125735399700,15.396399658203125,0.5579000115394592,-0.47279998660087585,9.77929973602295
1683009125755399700,15.416399658203124,0.5449999570846558,-0.44429999589920044,9.781399726867676
1683009125775399700,15.436399658203126,0.5374999642372131,-0.43219998478889465,9.782299995422363
1683009125795399700,15.456399658203125,0.5313000082969666,-0.43849998712539673,9.782400131225586
1683009125815399700,15.476399658203125,0.5231999754905701,-0.4551999866962433,9.781999588012695
1683009125835399700,15.496399658203124,0.5076999664306641,-0.47189998626708984,9.782099723815918
1683009125855399700,15.516399658203126,0.4778999984264374,-0.48649999499320984,9.782899856567383
1683009125875399700,15.536399658203125,0.4391999840736389,-0.49939998984336853,9.7839994430542
1683009125895399700,15.556399658203125,0.39399999380111694,-0.5098000168800354,9.785399436950684
1683009125915399700,15.576399658203124,0.3432999849319458,-0.5121999979019165,9.787199974060059
1683009125935399700,15.596399658203126,0.29179999232292175,-0.5033000111579895,9.789299964904785
1683009125955399700,15.616399658203125,0.2377999871969223,-0.49469998478889465,9.791199684143066
1683009125975399700,15.636399658203125,0.1753000020980835,-0.5048999786376953,9.791999816894531
1683009125995399700,15.656399658203124,0.15839999914169312,-0.5141000151634216,9.791799545288086
1683009126015399700,15.676399658203126,0.1824999898672104,-0.5041999816894531,9.791899681091309
1683009126035399700,15.696399658203125,0.23600000143051147,-0.4878000020980835,9.791600227355957
1683009126055399700,15.716399658203125,0.2700999975204468,-0.45479997992515564,9.7923002243042
1683009126075401200,15.736401123046875,0.2532999813556671,-0.432699978351593,9.79379940032959
1683009126095399700,15.756399658203126,0.18969999253749847,-0.43959999084472656,9.794899940490723
1683009126115399700,15.776399658203125,0.10679999738931656,-0.4681999981403351,9.7947998046875
1683009126135401200,15.796401123046875,0.03839999809861183,-0.48659998178482056,9.794400215148926
1683009126155401200,15.816401123046875,0.009999999776482582,-0.46539998054504395,9.795499801635742
1683009126175399700,15.836399658203124,0.024699999019503593,-0.42010000348091125,9.797599792480469
1683009126195399700,15.856399658203125,0.06729999929666519,-0.38509997725486755,9.798799514770508
1683009126215401200,15.876401123046875,0.10449999570846558,-0.3726999759674072,9.798999786376953
1683009126235399700,15.896399658203125,0.11479999870061874,-0.3691999912261963,9.798999786376953
1683009126255399700,15.916399658203124,0.1046999990940094,-0.3619000017642975,9.799399375915527
1683009126275399700,15.936399658203126,0.1005999967455864,-0.3513999879360199,9.799799919128418
1683009126295399700,15.956399658203125,0.10399999469518661,-0.34289997816085815,9.800000190734863
1683009126315399700,15.976399658203125,0.09879999607801437,-0.34039998054504395,9.800199508666992
1683009126335399700,15.996399658203124,0.0786999985575676,-0.34209999442100525,9.800299644470215
1683009126355399700,16.016399658203124,0.05639999732375145,-0.3474999964237213,9.800299644470215
1683009126375399700,16.036399658203123,0.044599998742341995,-0.35839998722076416,9.79990005493164
1683009126395399700,16.056399658203127,0.03830000013113022,-0.37449997663497925,9.799399375915527
1683009126415399700,16.076399658203126,0.029600000008940697,-0.3946000039577484,9.798600196838379
1683009126435399700,16.096399658203126,0.01889999955892563,-0.4161999821662903,9.797699928283691
1683009126455399700,16.116399658203125,0.015399999916553497,-0.43219998478889465,9.797100067138672
1683009126475399700,16.136399658203125,0.021800000220537186,-0.4389999806880951,9.796699523925781
1683009126495399700,16.156399658203124,0.03669999912381172,-0.4342999756336212,9.796899795532227
1683009126515399700,16.176399658203124,0.05689999833703041,-0.42569997906684875,9.797200202941895
1683009126535399700,16.196399658203124,0.0811999961733818,-0.41990000009536743,9.7972993850708
1683009126555399700,16.216399658203127,0.10329999774694443,-0.42389997839927673,9.796899795532227
1683009126575401200,16.236401123046875,0.11800000071525574,-0.43479999899864197,9.796199798583984
1683009126595399700,16.256399658203126,0.13490000367164612,-0.4398999810218811,9.79580020904541
1683009126615399700,16.276399658203125,0.1589999943971634,-0.4396999776363373,9.79539966583252
1683009126635399700,16.296399658203125,0.19179999828338623,-0.43879997730255127,9.794899940490723
1683009126655401200,16.316401123046877,0.22609999775886536,-0.43309998512268066,9.794400215148926
1683009126675399700,16.336399658203124,0.25849997997283936,-0.42159998416900635,9.794099807739258
1683009126695399700,16.356399658203124,0.2888999879360199,-0.41439998149871826,9.793600082397461
1683009126715401200,16.376401123046875,0.3224000036716461,-0.407399982213974,9.792799949645996
1683009126735399700,16.396399658203126,0.35760000348091125,-0.3798999786376953,9.792699813842773
1683009126755399700,16.416399658203126,0.3937000036239624,-0.3294999897480011,9.793099403381348
1683009126775399700,16.436399658203126,0.43689998984336853,-0.2619999945163727,9.793399810791016
1683009126795399700,16.456399658203125,0.484499990940094,-0.19039998948574066,9.792799949645996
1683009126815399700,16.476399658203125,0.5343999862670898,-0.1251000016927719,9.791199684143066
1683009126835399700,16.496399658203124,0.574999988079071,-0.0746999979019165,9.789400100708008
1683009126855399700,16.516399658203124,0.5934999585151672,-0.055299997329711914,9.78849983215332
1683009126875399700,16.536399658203123,0.5914999842643738,-0.059699997305870056,9.788599967956543
1683009126895399700,16.556399658203127,0.5659999847412109,-0.07609999924898148,9.789999961853027
1683009126915399700,16.576399658203126,0.528499960899353,-0.10170000046491623,9.791799545288086
1683009126935401200,16.596401123046874,0.5018999576568604,-0.12960000336170197,9.792900085449219
1683009126955399700,16.616399658203125,0.48499998450279236,-0.15729999542236328,9.793299674987793
1683009126975399700,16.636399658203125,0.4702000021934509,-0.18479999899864197,9.793600082397461
1683009126995399700,16.656399658203124,0.4611999988555908,-0.20489999651908875,9.793600082397461
1683009127015399700,16.676399658203124,0.4594999849796295,-0.21570000052452087,9.793499946594238
1683009127035399700,16.696399658203124,0.46449998021125793,-0.22439999878406525,9.793000221252441
1683009127055402800,16.71640283203125,0.4723999798297882,-0.23709999024868011,9.7923002243042
1683009127075401200,16.736401123046875,0.4745999872684479,-0.2630999982357025,9.791600227355957
1683009127095402800,16.75640283203125,0.46480000019073486,-0.30480000376701355,9.790800094604492
1683009127115402800,16.77640283203125,0.4478999972343445,-0.35850000381469727,9.789799690246582
1683009127135402800,16.79640283203125,0.42879998683929443,-0.4136999845504761,9.78849983215332
1683009127155402800,16.81640283203125,0.4140999913215637,-0.46129998564720154,9.786999702453613
1683009127175399700,16.836399658203124,0.40389999747276306,-0.5047000050544739,9.785299301147461
1683009127195399700,16.856399658203124,0.4007999897003174,-0.5406000018119812,9.783499717712402
1683009127215399700,16.876399658203123,0.39800000190734863,-0.5687999725341797,9.781999588012695
1683009127235399700,16.896399658203126,0.3937999904155731,-0.5922999978065491,9.780799865722656
1683009127255399700,16.916399658203126,0.3879999816417694,-0.6085999608039856,9.779999732971191
1683009127275399700,16.936399658203126,0.3837999999523163,-0.6194999814033508,9.779500007629395
1683009127295399700,16.956399658203125,0.374099999666214,-0.6236000061035156,9.779600143432617
1683009127315399700,16.976399658203125,0.3544999957084656,-0.615399956703186,9.780799865722656
1683009127335399700,16.996399658203124,0.3326999843120575,-0.5954999923706055,9.78279972076416
1683009127355399700,17.016399658203124,0.314300000667572,-0.5687999725341797,9.78499984741211
1683009127375399700,17.036399658203123,0.30140000581741333,-0.5408999919891357,9.786999702453613
1683009127395399700,17.056399658203127,0.2872999906539917,-0.5169999599456787,9.788700103759766
1683009127415399700,17.076399658203126,0.2654999792575836,-0.508899986743927,9.789799690246582
1683009127435399700,17.096399658203126,0.25349998474121094,-0.5036999583244324,9.790399551391602
1683009127455399700,17.116399658203125,0.2629999816417694,-0.4754999876022339,9.791500091552734
1683009127475399700,17.136399658203125,0.28209999203681946,-0.429099977016449,9.793099403381348
1683009127495399700,17.156399658203124,0.3077999949455261,-0.35989999771118164,9.795199394226074
1683009127515399700,17.176399658203124,0.3319999873638153,-0.26749998331069946,9.7972993850708
1683009127535399700,17.196399658203124,0.34379997849464417,-0.17440000176429749,9.798999786376953
1683009127555399700,17.216399658203127,0.3440999984741211,-0.10830000042915344,9.800000190734863
1683009127575399700,17.236399658203126,0.337799996137619,-0.08559999614953995,9.800399780273438
1683009127595399700,17.256399658203126,0.33959999680519104,-0.08399999886751175,9.800399780273438
1683009127615399700,17.276399658203125,0.36239999532699585,-0.07779999822378159,9.799599647521973
1683009127635399700,17.296399658203125,0.40549999475479126,-0.06199999898672104,9.797999382019043
1683009127655399700,17.316399658203125,0.4494999945163727,-0.045899998396635056,9.796199798583984
1683009127675399700,17.336399658203124,0.482699990272522,-0.031099999323487282,9.794699668884277
1683009127695399700,17.356399658203124,0.5004000067710876,-0.022599998861551285,9.79379940032959
1683009127715399700,17.376399658203123,0.5051999688148499,-0.027699999511241913,9.793499946594238
1683009127735399700,17.396399658203126,0.5034999847412109,-0.04479999840259552,9.793600082397461
1683009127755399700,17.416399658203126,0.49789997935295105,-0.06879999488592148,9.793700218200684
1683009127775399700,17.436399658203126,0.49129998683929443,-0.094200000166893,9.79379940032959
1683009127795399700,17.456399658203125,0.48749998211860657,-0.11239999532699585,9.79379940032959
1683009127815399700,17.476399658203125,0.48510000109672546,-0.12729999423027039,9.79379940032959
1683009127835399700,17.496399658203124,0.4836999773979187,-0.13660000264644623,9.793700218200684
1683009127855399700,17.516399658203124,0.48659998178482056,-0.14219999313354492,9.793499946594238
1683009127875399700,17.536399658203123,0.4869999885559082,-0.14559999108314514,9.793399810791016
1683009127895399700,17.556399658203127,0.48819997906684875,-0.14999999105930328,9.793299674987793
1683009127915399700,17.576399658203126,0.48729997873306274,-0.15969999134540558,9.79319953918457
1683009127935399700,17.596399658203126,0.48069998621940613,-0.17629998922348022,9.79319953918457
1683009127955399700,17.616399658203125,0.46859997510910034,-0.19839999079704285,9.793399810791016
1683009127975399700,17.636399658203125,0.45569998025894165,-0.21939998865127563,9.793499946594238
1683009127995399700,17.656399658203124,0.45669999718666077,-0.23519998788833618,9.793099403381348
1683009128015399700,17.676399658203124,0.4778999984264374,-0.24899999797344208,9.791799545288086
1683009128035399700,17.696399658203124,0.4997999966144562,-0.26330000162124634,9.790299415588379
1683009128055399700,17.716399658203127,0.4998999834060669,-0.2732999920845032,9.789999961853027
1683009128075399700,17.736399658203126,0.49079999327659607,-0.26919999718666077,9.790599822998047
1683009128095399700,17.756399658203126,0.49539998173713684,-0.2506999969482422,9.790899276733398
1683009128115399700,17.776399658203125,0.5212999582290649,-0.23160000145435333,9.789999961853027
1683009128135399700,17.796399658203125,0.5518999695777893,-0.21130000054836273,9.788799285888672
1683009128155399700,17.816399658203125,0.5672999620437622,-0.18799999356269836,9.788399696350098
1683009128175399700,17.836399658203124,0.5812999606132507,-0.1679999977350235,9.7878999710083
1683009128195399700,17.856399658203124,0.6072999835014343,-0.1509999930858612,9.786600112915039
1683009128215401200,17.876401123046875,0.6367999911308289,-0.1387999951839447,9.784899711608887
1683009128235399700,17.896399658203126,0.6585999727249146,-0.14270000159740448,9.78339958190918
1683009128255399700,17.916399658203126,0.6779999732971191,-0.16169999539852142,9.78179931640625
1683009128275399700,17.936399658203126,0.7163999676704407,-0.17759999632835388,9.778800010681152
1683009128295399700,17.956399658203125,0.7858999967575073,-0.17389999330043793,9.773499488830566
1683009128315399700,17.976399658203125,0.8633999824523926,-0.1622999906539917,9.767199516296387
1683009128335399700,17.996399658203124,0.9208999872207642,-0.15600000321865082,9.76200008392334
1683009128355399700,18.016399658203124,0.9432999491691589,-0.15469999611377716,9.759900093078613
1683009128375399700,18.036399658203123,0.9472999572753906,-0.1559000015258789,9.759499549865723
1683009128395399700,18.056399658203127,0.9484999775886536,-0.1573999971151352,9.759299278259277
1683009128415399700,18.076399658203126,0.9603999853134155,-0.1656000018119812,9.757999420166016
1683009128435401200,18.096401123046874,0.9765999913215637,-0.17009998857975006,9.756400108337402
1683009128455399700,18.116399658203125,0.9842000007629395,-0.16359999775886536,9.75570011138916
1683009128475399700,18.136399658203125,0.9824999570846558,-0.15439999103546143,9.755999565124512
1683009128495399700,18.156399658203124,0.9806999564170837,-0.1508999913930893,9.75629997253418
1683009128515399700,18.176399658203124,0.990399956703186,-0.15809999406337738,9.755199432373047
1683009128535399700,18.196399658203124,1.006600022315979,-0.17299999296665192,9.753299713134766
1683009128555399700,18.216399658203127,1.0127999782562256,-0.19179999828338623,9.752299308776855
1683009128575399700,18.236399658203126,1.013100028038025,-0.2101999968290329,9.751899719238281
1683009128595399700,18.256399658203126,1.011099934577942,-0.22609999775886536,9.751699447631836
1683009128615399700,18.276399658203125,1.011199951171875,-0.24009999632835388,9.751399993896484
1683009128635399700,18.296399658203125,1.0124000310897827,-0.24959999322891235,9.750999450683594
1683009128655399700,18.316399658203125,1.01419997215271,-0.2540999948978424,9.750699996948242
1683009128675399700,18.336399658203124,1.0128999948501587,-0.2532999813556671,9.750899314880371
1683009128695399700,18.356399658203124,1.0048999786376953,-0.2451999932527542,9.751899719238281
1683009128715399700,18.376399658203123,0.9923999905586243,-0.23559999465942383,9.753399848937988
1683009128735399700,18.396399658203126,0.9756999611854553,-0.2328999936580658,9.755199432373047
1683009128755399700,18.416399658203126,0.9637999534606934,-0.23499999940395355,9.75629997253418
1683009128775399700,18.436399658203126,0.955299973487854,-0.23349998891353607,9.75719928741455
1683009128795399700,18.456399658203125,0.9429000020027161,-0.23019999265670776,9.758399963378906
1683009128815399700,18.476399658203125,0.9241999983787537,-0.22669999301433563,9.760299682617188
1683009128835399700,18.496399658203124,0.9034000039100647,-0.2264999896287918,9.762299537658691
1683009128855399700,18.516399658203124,0.8769999742507935,-0.2321999967098236,9.76449966430664
1683009128875399700,18.536399658203123,0.8312000036239624,-0.2522999942302704,9.768099784851074
1683009128895399700,18.556399658203127,0.7757999897003174,-0.2773999869823456,9.771900177001953
1683009128915399700,18.576399658203126,0.7292999625205994,-0.29159998893737793,9.775099754333496
1683009128935399700,18.596399658203126,0.7028999924659729,-0.29989999532699585,9.776800155639648
1683009128955399700,18.616399658203125,0.701200008392334,-0.30140000581741333,9.776800155639648
1683009128975399700,18.636399658203125,0.7137999534606934,-0.28529998660087585,9.776399612426758
1683009128995399700,18.656399658203124,0.7317000031471252,-0.25609999895095825,9.775899887084961
1683009129015399700,18.676399658203124,0.7258999943733215,-0.22849999368190765,9.776999473571777
1683009129035399700,18.696399658203124,0.7013999819755554,-0.2232999950647354,9.778900146484375
1683009129055399700,18.716399658203127,0.6658999919891357,-0.21789999306201935,9.781499862670898
1683009129075399700,18.736399658203126,0.6345999836921692,-0.19089999794960022,9.784199714660645
1683009129095399700,18.756399658203126,0.6299999952316284,-0.1289999932050705,9.785499572753906
1683009129115399700,18.776399658203125,0.6556999683380127,-0.04809999838471413,9.784500122070312
1683009129135399700,18.796399658203125,0.693399965763092,0.03460000082850456,9.781999588012695
1683009129155399700,18.816399658203125,0.7227999567985535,0.10399999469518661,9.779399871826172
1683009129175399700,18.836399658203124,0.7450000047683716,0.15689998865127563,9.776999473571777
1683009129195399700,18.856399658203124,0.7637999653816223,0.19449999928474426,9.77489948272705
1683009129215399700,18.876399658203123,0.7849999666213989,0.21879999339580536,9.772699356079102
1683009129235399700,18.896399658203126,0.8036999702453613,0.22439999878406525,9.770999908447266
1683009129255399700,18.916399658203126,0.8025999665260315,0.210999995470047,9.77139949798584
1683009129275399700,18.936399658203126,0.7888999581336975,0.19249999523162842,9.772899627685547
1683009129295399700,18.956399658203125,0.774399995803833,0.17399999499320984,9.774399757385254
1683009129315399700,18.976399658203125,0.7615999579429626,0.16099999845027924,9.775599479675293
1683009129335399700,18.996399658203124,0.7491999864578247,0.15559999644756317,9.776700019836426
1683009129355399700,19.016399658203124,0.7276999950408936,0.14899998903274536,9.778399467468262
1683009129375399700,19.036399658203123,0.7009999752044678,0.1306999921798706,9.780599594116211
1683009129395399700,19.056399658203127,0.6793999671936035,0.10089999437332153,9.782499313354492
1683009129415399700,19.076399658203126,0.6635000109672546,0.06610000133514404,9.783899307250977
1683009129435399700,19.096399658203126,0.6602999567985535,0.03819999843835831,9.784299850463867
1683009129455399700,19.116399658203125,0.6700999736785889,0.02070000022649765,9.783699989318848
1683009129475399700,19.136399658203125,0.6865999698638916,0.001999999862164259,9.782499313354492
1683009129495399700,19.156399658203124,0.7099999785423279,-0.011500000022351742,9.780900001525879
1683009129515399700,19.176399658203124,0.731499969959259,-0.009200000204145908,9.77929973602295
1683009129535399700,19.196399658203124,0.760699987411499,0.005499999970197678,9.777099609375
1683009129555399700,19.216399658203127,0.8003000020980835,0.02329999953508377,9.773900032043457
1683009129575399700,19.236399658203126,0.8326999545097351,0.02539999969303608,9.771100044250488
1683009129595399700,19.256399658203126,0.8526999950408936,-0.0013000000035390258,9.769499778747559
1683009129615399700,19.276399658203125,0.8568999767303467,-0.026399999856948853,9.769000053405762
1683009129635399700,19.296399658203125,0.8615999817848206,-0.029999999329447746,9.768599510192871
1683009129655399700,19.316399658203125,0.8840000033378601,-0.006300000008195639,9.76669979095459
1683009129675399700,19.336399658203124,0.927899956703186,0.02449999935925007,9.76259994506836
1683009129695399700,19.356399658203124,0.9800999760627747,0.05419999733567238,9.757299423217773
1683009129715399700,19.376399658203123,1.0120999813079834,0.0738999992609024,9.753899574279785
1683009129735399700,19.396399658203126,1.0162999629974365,0.06780000030994415,9.753600120544434
1683009129755399700,19.416399658203126,1.006600022315979,0.03590000048279762,9.75469970703125
1683009129775399700,19.436399658203126,0.9929999709129333,0.0044999998062849045,9.756199836730957
1683009129795399700,19.456399658203125,0.9824999570846558,-0.007899999618530273,9.75719928741455
1683009129815399700,19.476399658203125,0.9835000038146973,0.00139999995008111,9.75719928741455
1683009129835399700,19.496399658203124,0.9970999956130981,0.016300000250339508,9.755799293518066
1683009129855399700,19.516399658203124,1.0089999437332153,0.018299998715519905,9.754499435424805
1683009129875399700,19.536399658203123,1.007200002670288,0.002199999988079071,9.75469970703125
1683009129895399700,19.556399658203127,0.9928999543190002,-0.033399999141693115,9.756099700927734
1683009129915399700,19.576399658203126,0.9628999829292297,-0.08630000054836273,9.75879955291748
1683009129935399700,19.596399658203126,0.9325000047683716,-0.140299990773201,9.761099815368652
1683009129955399700,19.616399658203125,0.9089999794960022,-0.1832999885082245,9.762700080871582
1683009129975399700,19.636399658203125,0.8898999691009521,-0.21799999475479126,9.763699531555176
1683009129995399700,19.656399658203124,0.8769999742507935,-0.23829999566078186,9.764399528503418
1683009130015399700,19.676399658203124,0.8661999702453613,-0.2586999833583832,9.764800071716309
1683009130035399700,19.696399658203124,0.8549000024795532,-0.2854999899864197,9.76509952545166
1683009130055399700,19.716399658203127,0.8377999663352966,-0.3182999789714813,9.765600204467773
1683009130075399700,19.736399658203126,0.820099949836731,-0.3545999825000763,9.765799522399902
1683009130095399700,19.756399658203126,0.8078999519348145,-0.38909998536109924,9.76550006866455
1683009130115399700,19.776399658203125,0.8044999837875366,-0.4195999801158905,9.76449966430664
1683009130135399700,19.796399658203125,0.811199963092804,-0.4453999996185303,9.762800216674805
1683009130155399700,19.816399658203125,0.8276999592781067,-0.46140000224113464,9.760700225830078
1683009130175399700,19.836399658203124,0.8482999801635742,-0.46859997510910034,9.758599281311035
1683009130195399700,19.856399658203124,0.8664000034332275,-0.4747999906539917,9.756699562072754
1683009130215399700,19.876399658203123,0.8815000057220459,-0.4811999797821045,9.755000114440918
1683009130235399700,19.896399658203126,0.8889999985694885,-0.486299991607666,9.75409984588623
1683009130255399700,19.916399658203126,0.8860999941825867,-0.48499998450279236,9.754399299621582
1683009130275399700,19.936399658203126,0.8707000017166138,-0.47929999232292175,9.756099700927734
1683009130295399700,19.956399658203125,0.8309999704360962,-0.47859999537467957,9.759599685668945
1683009130315399700,19.976399658203125,0.7831999659538269,-0.48099997639656067,9.763400077819824
1683009130335399700,19.996399658203124,0.7621999979019165,-0.46949997544288635,9.76569938659668
1683009130355399700,20.016399658203124,0.7656999826431274,-0.4405999779701233,9.76669979095459
1683009130375399700,20.036399658203123,0.7759999632835388,-0.4016000032424927,9.767600059509277
1683009130395399700,20.056399658203127,0.7914999723434448,-0.3536999821662903,9.768199920654297
1683009130415399700,20.076399658203126,0.7967999577522278,-0.30570000410079956,9.769399642944336
1683009130435399700,20.096399658203126,0.786300003528595,-0.2775999903678894,9.771100044250488
1683009130455399700,20.116399658203125,0.7676999568939209,-0.2721000015735626,9.772699356079102
1683009130475399700,20.136399658203125,0.746999979019165,-0.27059999108314514,9.774399757385254
1683009130495399700,20.156399658203124,0.7267999649047852,-0.2599000036716461,9.776199340820312
1683009130515402800,20.17640283203125,0.7110999822616577,-0.24129998683929443,9.777799606323242
1683009130535399700,20.196399658203124,0.6998999714851379,-0.21930000185966492,9.779099464416504
1683009130555399700,20.216399658203127,0.6938999891281128,-0.1930999904870987,9.780099868774414
1683009130575401200,20.236401123046875,0.6936999559402466,-0.15709999203681946,9.780799865722656
1683009130595399700,20.256399658203126,0.6960999965667725,-0.11649999767541885,9.78119945526123
1683009130615399700,20.276399658203125,0.7003999948501587,-0.07479999959468842,9.781299591064453
1683009130635399700,20.296399658203125,0.701200008392334,-0.04230000078678131,9.781399726867676
1683009130655401200,20.316401123046877,0.6926000118255615,-0.022599998861551285,9.782099723815918
1683009130675399700,20.336399658203124,0.6733999848365784,-0.016899999231100082,9.78339958190918
1683009130695399700,20.356399658203124,0.6523000001907349,-0.02029999904334545,9.784899711608887
1683009130715401200,20.376401123046875,0.6308000087738037,-0.02709999866783619,9.786299705505371
1683009130735399700,20.396399658203126,0.6085999608039856,-0.03689999878406525,9.787599563598633
1683009130755399700,20.416399658203126,0.5882999897003174,-0.04439999908208847,9.788799285888672
1683009130775399700,20.436399658203126,0.5709999799728394,-0.05159999802708626,9.789799690246582
1683009130795399700,20.456399658203125,0.5580999851226807,-0.05949999764561653,9.790499687194824
1683009130815399700,20.476399658203125,0.5534999966621399,-0.06659999489784241,9.79069995880127
1683009130835399700,20.496399658203124,0.5504999756813049,-0.08249999582767487,9.790800094604492
1683009130855399700,20.516399658203124,0.5491999983787537,-0.10109999775886536,9.79069995880127
1683009130875399700,20.536399658203123,0.5483999848365784,-0.11729999631643295,9.790499687194824
1683009130895399700,20.556399658203127,0.5475999712944031,-0.12939999997615814,9.790399551391602
1683009130915399700,20.576399658203126,0.5570999979972839,-0.13359999656677246,9.789899826049805
1683009130935401200,20.596401123046874,0.5764999985694885,-0.12489999830722809,9.788799285888672
1683009130955399700,20.616399658203125,0.5986999869346619,-0.11319999396800995,9.787599563598633
1683009130975399700,20.636399658203125,0.6050999760627747,-0.11809999495744705,9.787199974060059
1683009130995399700,20.656399658203124,0.5981999635696411,-0.14559999108314514,9.787300109863281
1683009131015399700,20.676399658203124,0.6017999649047852,-0.17000000178813934,9.786600112915039
1683009131035402800,20.69640283203125,0.6322000026702881,-0.1703999936580658,9.784699440002441
1683009131055402800,20.71640283203125,0.6980999708175659,-0.14239999651908875,9.780699729919434
1683009131075402800,20.73640283203125,0.7824999690055847,-0.11649999767541885,9.7746000289917
1683009131095399700,20.756399658203126,0.8557999730110168,-0.09849999845027924,9.768699645996094
1683009131115399700,20.776399658203125,0.8840000033378601,-0.0957999974489212,9.766200065612793
1683009131135399700,20.796399658203125,0.8784999847412109,-0.12619999051094055,9.766399383544922
1683009131155399700,20.816399658203125,0.8651999831199646,-0.17909999191761017,9.76669979095459
1683009131175399700,20.836399658203124,0.8500999808311462,-0.22749999165534973,9.767000198364258
1683009131195399700,20.856399658203124,0.8330000042915344,-0.25619998574256897,9.767799377441406
1683009131215401200,20.876401123046875,0.8313999772071838,-0.25999999046325684,9.767799377441406
1683009131235399700,20.896399658203126,0.8417999744415283,-0.2402999997138977,9.767399787902832
1683009131255399700,20.916399658203126,0.8543999791145325,-0.21939998865127563,9.766799926757812
1683009131275399700,20.936399658203126,0.8603999614715576,-0.20659999549388885,9.766599655151367
1683009131295399700,20.956399658203125,0.8592000007629395,-0.1988999992609024,9.766900062561035
1683009131315399700,20.976399658203125,0.8507999777793884,-0.19579999148845673,9.7677001953125
1683009131335399700,20.996399658203124,0.8420999646186829,-0.19519999623298645,9.768400192260742
1683009131355399700,21.016399658203124,0.8398999571800232,-0.1930999904870987,9.768699645996094
1683009131375399700,21.036399658203123,0.8418999910354614,-0.18959999084472656,9.768499374389648
1683009131395399700,21.056399658203127,0.8438999652862549,-0.18230000138282776,9.768499374389648
1683009131415399700,21.076399658203126,0.8405999541282654,-0.17799998819828033,9.768899917602539
1683009131435401200,21.096401123046874,0.8337999582290649,-0.17880000174045563,9.769399642944336
1683009131455399700,21.116399658203125,0.8273999691009521,-0.1825999915599823,9.769899368286133
1683009131475399700,21.136399658203125,0.8169999718666077,-0.19029998779296875,9.770699501037598
1683009131495399700,21.156399658203124,0.8011999726295471,-0.19990000128746033,9.77180004119873
1683009131515401200,21.176401123046876,0.7889999747276306,-0.20739999413490295,9.772600173950195
1683009131535399700,21.196399658203124,0.7791000008583069,-0.21139998733997345,9.773300170898438
1683009131555399700,21.216399658203127,0.7735999822616577,-0.21409998834133148,9.773699760437012
1683009131575401200,21.236401123046875,0.76419997215271,-0.21519999206066132,9.774399757385254
1683009131595399700,21.256399658203126,0.7495999932289124,-0.20879998803138733,9.775699615478516
1683009131615399700,21.276399658203125,0.7339000105857849,-0.19579999148845673,9.777099609375
1683009131635399700,21.296399658203125,0.7152000069618225,-0.1850000023841858,9.77869987487793
1683009131655401200,21.316401123046877,0.6979999542236328,-0.1826999932527542,9.779999732971191
1683009131675399700,21.336399658203124,0.6687999963760376,-0.18879999220371246,9.781899452209473
1683009131695399700,21.356399658203124,0.6139999628067017,-0.20189999043941498,9.785299301147461
1683009131715401200,21.376401123046875,0.5701999664306641,-0.21239998936653137,9.787699699401855
1683009131735399700,21.396399658203126,0.5615999698638916,-0.20489999651908875,9.788399696350098
1683009131755399700,21.416399658203126,0.5756999850273132,-0.1923999935388565,9.787799835205078
1683009131775399700,21.436399658203126,0.6037999987602234,-0.1922999918460846,9.786099433898926
1683009131795399700,21.456399658203125,0.6169999837875366,-0.19979999959468842,9.785099983215332
1683009131815399700,21.476399658203125,0.6019999980926514,-0.20269998908042908,9.785999298095703
1683009131835399700,21.496399658203124,0.5788999795913696,-0.19739998877048492,9.78749942779541
1683009131855402800,21.51640283203125,0.5587999820709229,-0.19739998877048492,9.788700103759766
1683009131875402800,21.53640283203125,0.536899983882904,-0.20329999923706055,9.789799690246582
1683009131895399700,21.556399658203127,0.5063999891281128,-0.20520000159740448,9.791399955749512
1683009131915399700,21.576399658203126,0.4723999798297882,-0.20170000195503235,9.793099403381348
1683009131935401200,21.596401123046874,0.4453999996185303,-0.19929999113082886,9.794499397277832
1683009131955399700,21.616399658203125,0.4293999969959259,-0.20179998874664307,9.795100212097168
1683009131975399700,21.636399658203125,0.42159998416900635,-0.2061000019311905,9.79539966583252
1683009131995401200,21.656401123046876,0.4156999886035919,-0.2085999995470047,9.795599937438965
1683009132015399700,21.676399658203124,0.4140999913215637,-0.2087000012397766,9.795599937438965
1683009132035399700,21.696399658203124,0.4172999858856201,-0.2069000005722046,9.795499801635742
1683009132055399700,21.716399658203127,0.42289999127388,-0.20479999482631683,9.795299530029297
1683009132075401200,21.736401123046875,0.4253000020980835,-0.20340000092983246,9.795299530029297
1683009132095399700,21.756399658203126,0.42829999327659607,-0.20269998908042908,9.795100212097168
1683009132115399700,21.776399658203125,0.43320000171661377,-0.19999998807907104,9.795000076293945
1683009132135399700,21.796399658203125,0.4405999779701233,-0.19599999487400055,9.794699668884277
1683009132155401200,21.816401123046877,0.4488999843597412,-0.19299998879432678,9.794400215148926
1683009132175399700,21.836399658203124,0.46050000190734863,-0.1867000013589859,9.793999671936035
1683009132195399700,21.856399658203124,0.47259998321533203,-0.17889998853206635,9.793600082397461
1683009132215401200,21.876401123046875,0.4860000014305115,-0.1679999977350235,9.793099403381348
1683009132235399700,21.896399658203126,0.5012999773025513,-0.16129998862743378,9.792399406433105
1683009132255399700,21.916399658203126,0.5105000138282776,-0.16679999232292175,9.791899681091309
1683009132275399700,21.936399658203126,0.5054999589920044,-0.18439999222755432,9.791799545288086
1683009132295399700,21.956399658203125,0.49609997868537903,-0.20709998905658722,9.791899681091309
1683009132315399700,21.976399658203125,0.49889999628067017,-0.22089999914169312,9.791399955749512
1683009132335399700,21.996399658203124,0.5202000141143799,-0.22179999947547913,9.790299415588379
1683009132355399700,22.016399658203124,0.5519999861717224,-0.21319998800754547,9.788700103759766
1683009132375399700,22.036399658203123,0.569599986076355,-0.21599999070167542,9.787699699401855
1683009132395399700,22.056399658203127,0.5916000008583069,-0.2207999974489212,9.786199569702148
1683009132415399700,22.076399658203126,0.6061999797821045,-0.20229999721050262,9.785799980163574
1683009132435401200,22.096401123046874,0.6265000104904175,-0.17579999566078186,9.78499984741211
1683009132455399700,22.116399658203125,0.6650999784469604,-0.13939999043941498,9.782999992370605
1683009132475399700,22.136399658203125,0.7113999724388123,-0.1006999984383583,9.780200004577637
1683009132495401200,22.156401123046876,0.7559999823570251,-0.06459999829530716,9.777199745178223
1683009132515399700,22.176399658203124,0.793999969959259,-0.02889999933540821,9.774399757385254
1683009132535399700,22.196399658203124,0.8162999749183655,-0.004699999932199717,9.772600173950195
1683009132555399700,22.216399658203127,0.8098999857902527,-0.0031999999191612005,9.773099899291992
1683009132575401200,22.236401123046875,0.7824999690055847,-0.008999999612569809,9.775300025939941
1683009132595399700,22.256399658203126,0.7443999648094177,-0.010300000198185444,9.778299331665039
1683009132615399700,22.276399658203125,0.7168999910354614,-0.005499999970197678,9.780399322509766
1683009132635399700,22.296399658203125,0.710099995136261,0.004299999680370092,9.780900001525879
1683009132655401200,22.316401123046877,0.7063999772071838,0.013199999928474426,9.781099319458008
1683009132675399700,22.336399658203124,0.6929999589920044,0.01759999990463257,9.782099723815918
1683009132695399700,22.356399658203124,0.6779999732971191,0.013899999670684338,9.783100128173828
1683009132715401200,22.376401123046875,0.6705999970436096,-0.002099999925121665,9.783599853515625
1683009132735399700,22.396399658203126,0.6714999675750732,-0.031599998474121094,9.783499717712402
1683009132755399700,22.416399658203126,0.6757000088691711,-0.0681999996304512,9.783100128173828
1683009132775399700,22.436399658203126,0.6762999892234802,-0.1039000004529953,9.782699584960938
1683009132795399700,22.456399658203125,0.6735999584197998,-0.13830000162124634,9.782499313354492
1683009132815399700,22.476399658203125,0.6704999804496765,-0.17099998891353607,9.78219985961914
1683009132835399700,22.496399658203124,0.6721999645233154,-0.20089998841285706,9.781499862670898
1683009132855401200,22.516401123046876,0.6764999628067017,-0.2231999933719635,9.780699729919434
1683009132875399700,22.536399658203123,0.6775000095367432,-0.23899999260902405,9.780200004577637
1683009132895399700,22.556399658203127,0.6753000020980835,-0.24949999153614044,9.780099868774414
1683009132915399700,22.576399658203126,0.6710999608039856,-0.25529998540878296,9.78030014038086
1683009132935399700,22.596399658203126,0.6621999740600586,-0.259799987077713,9.780799865722656
1683009132955399700,22.616399658203125,0.6492999792098999,-0.2621999979019165,9.781599998474121
1683009132975399700,22.636399658203125,0.6313999891281128,-0.257999986410141,9.78279972076416
1683009132995399700,22.656399658203124,0.6085999608039856,-0.24969999492168427,9.784500122070312
1683009133015399700,22.676399658203124,0.5824999809265137,-0.24129998683929443,9.786299705505371
1683009133035399700,22.696399658203124,0.5557000041007996,-0.23359999060630798,9.78809928894043
1683009133055399700,22.716399658203127,0.5223000049591064,-0.2312999963760376,9.789899826049805
1683009133075399700,22.736399658203126,0.4796999990940094,-0.23729999363422394,9.791999816894531
1683009133095399700,22.756399658203126,0.4274999797344208,-0.2622999846935272,9.79379940032959
1683009133115399700,22.776399658203125,0.3653999865055084,-0.29909998178482056,9.795199394226074
1683009133135399700,22.796399658203125,0.3034999966621399,-0.3392999768257141,9.795999526977539
1683009133155399700,22.816399658203125,0.27629998326301575,-0.37070000171661377,9.795700073242188
1683009133175399700,22.836399658203124,0.28129997849464417,-0.38839998841285706,9.794899940490723
1683009133195399700,22.856399658203124,0.2902999818325043,-0.39649999141693115,9.794300079345703
1683009133215399700,22.876399658203123,0.28700000047683716,-0.396699994802475,9.794400215148926
1683009133235399700,22.896399658203126,0.2718999981880188,-0.39969998598098755,9.794699668884277
1683009133255399700,22.916399658203126,0.2557999789714813,-0.4039999842643738,9.794899940490723
1683009133275399700,22.936399658203126,0.2441999912261963,-0.3937999904155731,9.795599937438965
1683009133295399700,22.956399658203125,0.23709999024868011,-0.36809998750686646,9.796799659729004
1683009133315399700,22.976399658203125,0.23770000040531158,-0.3361999988555908,9.797999382019043
1683009133335399700,22.996399658203124,0.24149999022483826,-0.3148999810218811,9.798600196838379
1683009133355399700,23.016399658203124,0.24529999494552612,-0.29999998211860657,9.79889965057373
1683009133375399700,23.036399658203123,0.2502000033855438,-0.28859999775886536,9.799200057983398
1683009133395399700,23.056399658203127,0.2540999948978424,-0.2741999924182892,9.79949951171875
1683009133415399700,23.076399658203126,0.2549999952316284,-0.25599998235702515,9.79990005493164
1683009133435399700,23.096399658203126,0.25360000133514404,-0.22859999537467957,9.800700187683105
1683009133455399700,23.116399658203125,0.2541999816894531,-0.19869999587535858,9.801300048828125
1683009133475399700,23.136399658203125,0.25689998269081116,-0.16749998927116394,9.801799774169922
1683009133495399700,23.156399658203124,0.2637999951839447,-0.13650000095367432,9.80210018157959
1683009133515399700,23.176399658203124,0.2662000060081482,-0.11479999870061874,9.802299499511719
1683009133535399700,23.196399658203124,0.2687000036239624,-0.09860000014305115,9.802399635314941
1683009133555399700,23.216399658203127,0.27149999141693115,-0.09259999543428421,9.802399635314941
1683009133575399700,23.236399658203126,0.275299996137619,-0.09549999982118607,9.802299499511719
1683009133595399700,23.256399658203126,0.28139999508857727,-0.10429999977350235,9.802000045776367
1683009133615399700,23.276399658203125,0.28779998421669006,-0.11509999632835388,9.8016996383667
1683009133635399700,23.296399658203125,0.29109999537467957,-0.1256999969482422,9.801499366760254
1683009133655399700,23.316399658203125,0.29420000314712524,-0.14309999346733093,9.80109977722168
1683009133675399700,23.336399658203124,0.3024999797344208,-0.1622999906539917,9.800600051879883
1683009133695399700,23.356399658203124,0.3278999924659729,-0.1703999936580658,9.799599647521973
1683009133715399700,23.376399658203123,0.3625999987125397,-0.1670999974012375,9.798500061035156
1683009133735399700,23.396399658203126,0.38850000500679016,-0.18310000002384186,9.797200202941895
1683009133755399700,23.416399658203126,0.41130000352859497,-0.22419999539852142,9.79539966583252
1683009133775399700,23.436399658203126,0.4430999755859375,-0.26589998602867126,9.793000221252441
1683009133795399700,23.456399658203125,0.4851999878883362,-0.30320000648498535,9.789899826049805
1683009133815399700,23.476399658203125,0.5479999780654907,-0.32600000500679016,9.785799980163574
1683009133835399700,23.496399658203124,0.6173999905586243,-0.34139999747276306,9.78119945526123
1683009133855399700,23.516399658203124,0.6841999888420105,-0.3499999940395355,9.776399612426758
1683009133875399700,23.536399658203123,0.7376999855041504,-0.34929999709129333,9.772600173950195
1683009133895399700,23.556399658203127,0.7760999798774719,-0.3571999967098236,9.769299507141113
1683009133915399700,23.576399658203126,0.7971000075340271,-0.38189998269081116,9.76669979095459
1683009133935399700,23.596399658203126,0.7971000075340271,-0.41920000314712524,9.765199661254883
1683009133955399700,23.616399658203125,0.7815999984741211,-0.46399998664855957,9.764399528503418
1683009133975399700,23.636399658203125,0.7513999938964844,-0.49789997935295105,9.76509952545166
1683009133995399700,23.656399658203124,0.7179999947547913,-0.5137999653816223,9.766799926757812
1683009134015399700,23.676399658203124,0.6850000023841858,-0.5126999616622925,9.76919937133789
1683009134035399700,23.696399658203124,0.6570999622344971,-0.5023999810218811,9.771599769592285
1683009134055399700,23.716399658203127,0.6354999542236328,-0.4921000003814697,9.773599624633789
1683009134075399700,23.736399658203126,0.6209999918937683,-0.4927999973297119,9.774499893188477
1683009134095399700,23.756399658203126,0.6050999760627747,-0.5127999782562256,9.774499893188477
1683009134115399700,23.776399658203125,0.5839999914169312,-0.5443999767303467,9.77400016784668
1683009134135399700,23.796399658203125,0.559499979019165,-0.576200008392334,9.773699760437012
1683009134155399700,23.816399658203125,0.5360999703407288,-0.6017999649047852,9.773399353027344
1683009134175399700,23.836399658203124,0.5194000005722046,-0.6164000034332275,9.773399353027344
1683009134195399700,23.856399658203124,0.5145999789237976,-0.6150000095367432,9.773799896240234
1683009134215399700,23.876399658203123,0.5169999599456787,-0.6047999858856201,9.774299621582031
1683009134235399700,23.896399658203126,0.5205999612808228,-0.5889999866485596,9.774999618530273
1683009134255399700,23.916399658203126,0.5139999985694885,-0.5708000063896179,9.77649974822998
1683009134275399700,23.936399658203126,0.5022000074386597,-0.5496000051498413,9.778299331665039
1683009134295399700,23.956399658203125,0.49469998478889465,-0.5239999890327454,9.780099868774414
1683009134315399700,23.976399658203125,0.4935999810695648,-0.49779999256134033,9.781499862670898
1683009134335399700,23.996399658203124,0.4894999861717224,-0.47859999537467957,9.782699584960938
1683009134355399700,24.016399658203124,0.47859999537467957,-0.46879997849464417,9.783699989318848
1683009134375399700,24.036399658203123,0.45479997992515564,-0.4684000015258789,9.784799575805664
1683009134395399700,24.056399658203127,0.42339998483657837,-0.47669997811317444,9.785799980163574
1683009134415399700,24.076399658203126,0.39100000262260437,-0.4811999797821045,9.786999702453613
1683009134435399700,24.096399658203126,0.35909998416900635,-0.47609999775886536,9.788399696350098
1683009134455399700,24.116399658203125,0.3317999839782715,-0.4593999981880188,9.790199279785156
1683009134475399700,24.136399658203125,0.3093000054359436,-0.43529999256134033,9.791999816894531
1683009134495399700,24.156399658203124,0.2669999897480011,-0.42659997940063477,9.793700218200684
1683009134515399700,24.176399658203124,0.21239998936653137,-0.42479997873306274,9.795100212097168
1683009134535399700,24.196399658203124,0.18889999389648438,-0.4071999788284302,9.796299934387207
1683009134555399700,24.216399658203127,0.2142999917268753,-0.3513000011444092,9.797999382019043
1683009134575399700,24.236399658203126,0.2759000062942505,-0.2773999869823456,9.798799514770508
1683009134595399700,24.256399658203126,0.33239999413490295,-0.19709999859333038,9.798999786376953
1683009134615399700,24.276399658203125,0.33899998664855957,-0.13750000298023224,9.799799919128418
1683009134635399700,24.296399658203125,0.3066999912261963,-0.11949999630451202,9.80109977722168
1683009134655399700,24.316399658203125,0.2572999894618988,-0.13239999115467072,9.802299499511719
1683009134675399700,24.336399658203124,0.2206999957561493,-0.15060000121593475,9.802999496459961
1683009134695399700,24.356399658203124,0.2304999977350235,-0.1428999900817871,9.802800178527832
1683009134715399700,24.376399658203123,0.2671000063419342,-0.11209999769926071,9.802299499511719
1683009134735399700,24.396399658203126,0.30149999260902405,-0.08669999986886978,9.801599502563477
1683009134755399700,24.416399658203126,0.32519999146461487,-0.06610000133514404,9.800999641418457
1683009134775399700,24.436399658203126,0.33069998025894165,-0.05139999836683273,9.800899505615234
1683009134795399700,24.456399658203125,0.319599986076355,-0.03909999877214432,9.801300048828125
1683009134815399700,24.476399658203125,0.3130999803543091,-0.019999999552965164,9.801599502563477
1683009134835399700,24.496399658203124,0.32349997758865356,0.0052999998442828655,9.801300048828125
1683009134855399700,24.516399658203124,0.33959999680519104,0.030499998480081558,9.800700187683105
1683009134875399700,24.536399658203123,0.349700003862381,0.05079999938607216,9.800199508666992
1683009134895399700,24.556399658203127,0.35409998893737793,0.05729999765753746,9.800000190734863
1683009134915399700,24.576399658203126,0.3579999804496765,0.04389999806880951,9.800000190734863
1683009134935399700,24.596399658203126,0.3578999936580658,0.011299999430775642,9.80009937286377
1683009134955399700,24.616399658203125,0.3537999987602234,-0.03449999913573265,9.800199508666992
1683009134975399700,24.636399658203125,0.35089999437332153,-0.08190000057220459,9.800000190734863
1683009134995399700,24.656399658203124,0.3513000011444092,-0.12199999392032623,9.79949951171875
1683009135015399700,24.676399658203124,0.3536999821662903,-0.15719999372959137,9.798999786376953
1683009135035399700,24.696399658203124,0.35670000314712524,-0.19939999282360077,9.798099517822266
1683009135055399700,24.716399658203127,0.35099998116493225,-0.25669997930526733,9.79699993133545
1683009135075399700,24.736399658203126,0.33239999413490295,-0.32589998841285706,9.795499801635742
1683009135095399700,24.756399658203126,0.31290000677108765,-0.3946000039577484,9.793700218200684
1683009135115399700,24.776399658203125,0.29420000314712524,-0.4503999948501587,9.791799545288086
1683009135135399700,24.796399658203125,0.28630000352859497,-0.48669999837875366,9.790299415588379
1683009135155399700,24.816399658203125,0.2946999967098236,-0.5005999803543091,9.789400100708008
1683009135175399700,24.836399658203124,0.3212999999523163,-0.4973999857902527,9.788700103759766
1683009135195399700,24.856399658203124,0.36559998989105225,-0.4666999876499176,9.788700103759766
1683009135215399700,24.876399658203123,0.41099998354911804,-0.41669997572898865,9.78909969329834
1683009135235399700,24.896399658203126,0.44110000133514404,-0.37599998712539673,9.789499282836914
1683009135255399700,24.916399658203126,0.45989999175071716,-0.36809998750686646,9.788899421691895
1683009135275399700,24.936399658203126,0.4739999771118164,-0.39890000224113464,9.786999702453613
1683009135295399700,24.956399658203125,0.48559999465942383,-0.4251999855041504,9.785299301147461
1683009135315399700,24.976399658203125,0.5098000168800354,-0.40849998593330383,9.784799575805664
1683009135335399700,24.996399658203124,0.5475000143051147,-0.3739999830722809,9.784199714660645
1683009135355399700,25.016399658203124,0.5751999616622925,-0.3587999939918518,9.783100128173828
1683009135375399700,25.036399658203123,0.5843999981880188,-0.36949998140335083,9.78219985961914
1683009135395399700,25.056399658203127,0.5587999820709229,-0.3950999975204468,9.782699584960938
1683009135415399700,25.076399658203126,0.5198999643325806,-0.40449997782707214,9.784500122070312
1683009135435399700,25.096399658203126,0.49539998173713684,-0.3837999999523163,9.786600112915039
1683009135455399700,25.116399658203125,0.4941999912261963,-0.35199999809265137,9.787799835205078
1683009135475399700,25.136399658203125,0.5073999762535095,-0.31679999828338623,9.788299560546875
1683009135495399700,25.156399658203124,0.5101999640464783,-0.2863999903202057,9.78909969329834
