time,seconds_elapsed,z,y,x,,,z,y,x,,t,z,y,x
1.68301E+18,0.036399658,1.016799927,0.0308,1.227299929,,,0.993499994,-0.0308,9.756099701,,1,2.010299921,0,10.98339963
1.68301E+18,0.056399658,1.016799927,0.0308,1.227299929,,,0.993499994,-0.0308,9.756099701,,2,2.010299921,0,10.98339963
1.68301E+18,0.076405762,1.016799927,0.0308,1.227299929,,,0.473099977,-0.160799995,9.793899536,,3,1.489899904,-0.129999995,11.02119946
1.68301E+18,0.096399658,0.017099999,-0.0058,0.35589999,,,0.474099994,-0.162699997,9.7937994,,4,0.491199993,-0.168499997,10.14969939
1.68301E+18,0.116399658,0.1241,-0.199999988,0.532499969,,,0.485499978,-0.162599996,9.793199539,,5,0.609599978,-0.362599984,10.32569951
1.68301E+18,0.136399658,0.426399976,-0.004,0.346799999,,,0.522799969,-0.158799991,9.791399956,,6,0.949199945,-0.162799991,10.13819996
1.68301E+18,0.156399658,0.438199997,0.041200001,0.142700002,,,0.590999961,-0.145699993,9.787699699,,7,1.029199958,-0.104499992,9.930399701
1.68301E+18,0.176399658,0.360199988,0.067199998,0.067900002,,,0.61649996,-0.148599997,9.786099434,,8,0.976699948,-0.0814,9.853999436
1.68301E+18,0.196399658,0.472000003,-0.0572,0.344099998,,,0.644499958,-0.144899994,9.78429985,,9,1.11649996,-0.202099994,10.12839985
1.68301E+18,0.216399658,0.424299985,0.0469,0.335999995,,,0.671000004,-0.128700003,9.782799721,,10,1.095299989,-0.081800003,10.11879972
1.68301E+18,0.236399658,0.231199995,0.128700003,0.219899997,,,0.662299991,-0.115499996,9.783499718,,11,0.893499985,0.013200007,10.00339971
1.68301E+18,0.256399658,-0.132799998,0.203699991,0.130899996,,,0.748699963,-0.065299995,9.777799606,,12,0.615899965,0.138399996,9.908699602
1.68301E+18,0.276399658,0.025899999,0.0359,0.038599998,,,0.924999952,0.0015,9.762899399,,13,0.950899951,0.0374,9.801499397
1.68301E+18,0.296401123,0.271299988,0.0964,-0.093499996,,,1.08039999,0.0211,9.746899605,,14,1.351699978,0.1175,9.653399609
1.68301E+18,0.316399658,0.547399998,0.047399998,-0.097099997,,,1.165599942,0.0118,9.737099648,,15,1.71299994,0.059199997,9.63999965
1.68301E+18,0.336399658,0.668199956,-0.0118,0.177299991,,,1.208500028,0.0066,9.731800079,,16,1.876699984,-0.0052,9.909100071
1.68301E+18,0.356399658,0.311399996,0.101099998,0.133499995,,,1.216599941,0.009099999,9.730799675,,17,1.527999938,0.110199997,9.86429967
1.68301E+18,0.376402832,-0.157499999,0.069200002,0.193399996,,,1.201499939,0.0144,9.732699394,,18,1.04399994,0.083600001,9.92609939
1.68301E+18,0.396399658,-0.309100002,0.0051,0.211099997,,,1.174499989,0.022799999,9.736000061,,19,0.865399987,0.027899998,9.947100058
1.68301E+18,0.416399658,-0.203699991,0.202600002,0.325499982,,,1.142099977,0.035,9.7397995,,20,0.938399985,0.237600002,10.06529948
1.68301E+18,0.436401123,-0.396699995,0.366999984,0.282499999,,,1.117699981,0.057099998,9.742499352,,21,0.720999986,0.424099982,10.02499935
1.68301E+18,0.456399658,-0.313600004,0.491999984,0.063999996,,,1.09589994,0.097399995,9.744699478,,22,0.782299936,0.589399979,9.808699474
1.68301E+18,0.476399658,-0.291799992,0.853799999,-0.0165,,,1.066100001,0.143700004,9.74739933,,23,0.774300009,0.997500002,9.73089933
1.68301E+18,0.496399658,0.061499998,0.356299996,-0.0682,,,1.042099953,0.173199996,9.749499321,,24,1.103599951,0.529499993,9.681299321
1.68301E+18,0.516399658,0.222800002,0.042399999,-0.129199997,,,1.003199935,0.200299993,9.753099442,,25,1.225999936,0.242699992,9.623899445
1.68301E+18,0.536399658,0.144099995,0.231099993,0.092699997,,,0.969299972,0.207599998,9.756400108,,26,1.113399968,0.438699991,9.849100105
1.68301E+18,0.556399658,0.021,0.145300001,0.501299977,,,0.936199963,0.194600001,9.759900093,,27,0.957199963,0.339900002,10.26120007
1.68301E+18,0.576401123,-0.0144,0.197599992,0.654699981,,,0.91049999,0.180199996,9.762599945,,28,0.89609999,0.377799988,10.41729993
1.68301E+18,0.596399658,-0.498599976,-0.013499999,0.750099957,,,0.939899981,0.212699994,9.75909996,,29,0.441300005,0.199199995,10.50919992
1.68301E+18,0.616399658,-0.331900001,-0.183299989,0.331799984,,,0.999199986,0.282999992,9.75150013,,30,0.667299986,0.099700004,10.08330011
1.68301E+18,0.636399658,0.452099979,-0.282999992,0.515999973,,,1.041599989,0.333900005,9.745399475,,31,1.493699968,0.050900012,10.26139945
1.68301E+18,0.656399658,-0.727699995,-0.226099998,1.179099917,,,1.097100019,0.355800003,9.738499641,,32,0.369400024,0.129700005,10.91759956
1.68301E+18,0.676399658,3.296199799,0.448299974,0.617199957,,,1.14349997,0.333999991,9.734000206,,33,4.439699769,0.782299966,10.35120016
1.68301E+18,0.696399658,0.954999983,-0.245699987,0.121599995,,,1.175300002,0.274499983,9.731999397,,34,2.130299985,0.028799996,9.853599392
1.68301E+18,0.716399658,0.736899972,-0.696099997,0.790399969,,,1.191200018,0.288599998,9.729700089,,35,1.92809999,-0.407499999,10.52010006
1.68301E+18,0.736399658,0.416999996,-0.082599998,-0.295699984,,,1.189899921,0.382999986,9.726599693,,36,1.606899917,0.300399989,9.430899709
1.68301E+18,0.756399658,-0.483799994,0.440599978,-1.743999958,,,1.188899994,0.462300003,9.72329998,,37,0.7051,0.902899981,7.979300022
1.68301E+18,0.776399658,-0.914299965,0.243599996,-1.64259994,,,1.209999919,0.48299998,9.71969986,,38,0.295699954,0.726599976,8.077099919
1.68301E+18,0.796399658,-0.837300003,0.1347,-1.354599953,,,1.236799955,0.480099976,9.716400146,,39,0.399499953,0.614799976,8.361800194
1.68301E+18,0.816399658,-0.413100004,0.284799993,-0.635499954,,,1.23269999,0.472000003,9.717399597,,40,0.819599986,0.756799996,9.081899643
1.68301E+18,0.836399658,-0.163800001,0.577199996,-0.096999995,,,1.201699972,0.480999976,9.720799446,,41,1.037899971,1.058199972,9.623799451
1.68301E+18,0.856399658,-0.505400002,0.793799996,-0.022,,,1.154399991,0.514299989,9.72480011,,42,0.648999989,1.308099985,9.70280011
1.68301E+18,0.876399658,-0.585599959,1.133099914,-0.398699999,,,1.106999993,0.52489996,9.729800224,,43,0.521400034,1.657999873,9.331100225
1.68301E+18,0.896399658,-0.62650001,0.779299974,0.194499999,,,1.079299927,0.520699978,9.733099937,,44,0.452799916,1.299999952,9.927599937
1.68301E+18,0.916399658,-0.275099993,0.793299973,0.377499998,,,1.071799994,0.531099975,9.733399391,,45,0.796700001,1.324399948,10.11089939
1.68301E+18,0.936401123,-0.375499994,0.812299967,0.171299994,,,1.0546,0.551100016,9.734099388,,46,0.679100007,1.363399982,9.905399382
1.68301E+18,0.956399658,-0.6329,0.733399987,0.150899991,,,1.032799959,0.574099958,9.735099792,,47,0.39989996,1.307499945,9.885999784
1.68301E+18,0.976399658,-0.738599956,0.808600008,0.0028,,,1.016199946,0.598800004,9.7354002,,48,0.27759999,1.407400012,9.7382002
1.68301E+18,0.996399658,-0.839699984,0.734799981,-0.026799999,,,1,0.62409997,9.735499382,,49,0.160300016,1.358899951,9.708699383
1.68301E+18,1.016399658,-0.69599998,0.640799999,-0.095599994,,,0.978699982,0.64989996,9.736000061,,50,0.282700002,1.290699959,9.640400067
1.68301E+18,1.036399658,-0.645199955,0.556299984,0.099999994,,,0.953199983,0.671799958,9.736999512,,51,0.308000028,1.228099942,9.836999506
1.68301E+18,1.056399658,-0.590299964,0.495099992,0.39319998,,,0.931799948,0.684499979,9.738200188,,52,0.341499984,1.179599971,10.13140017
1.68301E+18,1.076401123,-0.412099987,0.394099981,0.784199953,,,0.915999949,0.682099998,9.739899635,,53,0.503899962,1.076199979,10.52409959
1.68301E+18,1.096401123,-0.190299988,0.141499996,1.723999977,,,0.897300005,0.675000012,9.742099762,,54,0.707000017,0.816500008,11.46609974
1.68301E+18,1.116399658,0.044099998,-0.017999999,2.555299997,,,0.885599971,0.662699997,9.743999481,,55,0.929699969,0.644699998,12.29929948
1.68301E+18,1.136399658,0.232199997,-0.221399993,3.043799877,,,0.878399968,0.655299962,9.745200157,,56,1.110599965,0.433899969,12.78900003
1.68301E+18,1.156399658,0.357199997,-0.50819999,3.062199831,,,0.885999978,0.650999963,9.744799614,,57,1.243199974,0.142799973,12.80699944
1.68301E+18,1.176399658,0.61439997,-1.052999973,2.93509984,,,0.876699984,0.635199964,9.746699333,,58,1.491099954,-0.417800009,12.68179917
1.68301E+18,1.196399658,0.986499965,-1.488399982,3.119599819,,,0.827600002,0.586399972,9.75399971,,59,1.814099967,-0.90200001,12.87359953
1.68301E+18,1.216399658,1.319899917,-1.674999952,4.200799942,,,0.740499973,0.500699997,9.765799522,,60,2.06039989,-1.174299955,13.96659946
1.68301E+18,1.236399658,1.210999966,-1.353799939,4.944099903,,,0.689399958,0.40019998,9.77409935,,61,1.900399923,-0.95359996,14.71819925
1.68301E+18,1.256399658,1.144400001,-0.596300006,3.445099831,,,0.709999979,0.314199984,9.775799751,,62,1.854399979,-0.282100022,13.22089958
1.68301E+18,1.276399658,0.868799984,-0.010199999,0.825100005,,,0.774999976,0.257400006,9.772500038,,63,1.643799961,0.247200007,10.59760004
1.68301E+18,1.296399658,0.646899998,-0.0319,-1.054399967,,,0.831499994,0.218699992,9.768799782,,64,1.478399992,0.186799992,8.714399815
1.68301E+18,1.316399658,0.227599993,-0.444299996,-0.991899967,,,0.82249999,0.174400002,9.770500183,,65,1.050099984,-0.269899994,8.778600216
1.68301E+18,1.336399658,-0.40079999,-0.537299991,0.045899998,,,0.7676,0.1083,9.775899887,,66,0.36680001,-0.42899999,9.821799885
1.68301E+18,1.356399658,-0.787299991,-0.255400002,0.981899977,,,0.707399964,0.041699998,9.781000137,,67,-0.079900026,-0.213700004,10.76290011
1.68301E+18,1.376399658,-0.736799955,0.056199998,1.055299997,,,0.679099977,-0.008599999,9.782999992,,68,-0.057699978,0.047599998,10.83829999
1.68301E+18,1.396399658,-0.257499993,0.155699998,0.562900007,,,0.677399993,-0.030299999,9.783100128,,69,0.4199,0.125399999,10.34600013
1.68301E+18,1.416399658,0.234499991,0.118599996,-0.300099999,,,0.6875,-0.034199998,9.782400131,,70,0.921999991,0.084399998,9.482300133
1.68301E+18,1.436399658,0.400899976,0.0244,-1.1329,,,0.70449996,-0.030399999,9.781199455,,71,1.105399936,-0.005999999,8.648299456
1.68301E+18,1.456399658,0.481999993,0.001,-2.220299959,,,0.72299999,-0.0195,9.779899597,,72,1.204999983,-0.0185,7.559599638
1.68301E+18,1.476399658,0.188999996,-0.0392,-3.219199896,,,0.735300004,-0.0078,9.778999329,,73,0.9243,-0.047,6.559799433
1.68301E+18,1.496399658,-0.1567,-0.178499997,-3.845999956,,,0.7421,-0.0083,9.778499603,,74,0.5854,-0.186799997,5.932499647
1.68301E+18,1.516399658,-0.467500001,-0.0309,-3.953299999,,,0.731599987,-0.022499999,9.7791996,,75,0.264099985,-0.053399999,5.825899601
1.68301E+18,1.536399658,-1.055199981,0.042099997,-3.463799953,,,0.680299997,-0.044999998,9.782899857,,76,-0.374899983,-0.002900001,6.319099903
1.68301E+18,1.556399658,-0.278200001,0.407799989,-3.045699835,,,0.644400001,-0.065299995,9.785200119,,77,0.3662,0.342499994,6.739500284
1.68301E+18,1.576402832,-0.242299989,0.231999993,-2.430199862,,,0.6153,-0.067999996,9.786999702,,78,0.373000011,0.163999997,7.356799841
1.68301E+18,1.596402832,0.0025,0.185699999,-1.569099903,,,0.586699963,-0.0592,9.788799286,,79,0.589199963,0.126499999,8.219699383
1.68301E+18,1.616399658,0.27609998,0.0003,-0.727499962,,,0.557099998,-0.045699999,9.790699959,,80,0.833199978,-0.045399999,9.063199997
1.68301E+18,1.636399658,0.648999989,-0.218999997,0.182599992,,,0.537999988,-0.032499999,9.791799545,,81,1.186999977,-0.251499996,9.974399537
1.68301E+18,1.656399658,1.256500006,-0.369499981,0.809099972,,,0.548299968,-0.0142,9.79129982,,82,1.804799974,-0.383699981,10.60039979
1.68301E+18,1.676399658,1.77579999,-0.574099958,1.211699963,,,0.573799968,0.0155,9.78979969,,83,2.349599957,-0.558599958,11.00149965
1.68301E+18,1.696399658,1.711099982,-0.790199995,1.497599959,,,0.608999968,0.046799999,9.787599564,,84,2.32009995,-0.743399996,11.28519952
1.68301E+18,1.716399658,1.352199912,-0.958799958,1.686100006,,,0.634000003,0.070099995,9.78579998,,85,1.986199915,-0.888699964,11.47189999
1.68301E+18,1.736399658,0.934899986,-1.089999914,2.138999939,,,0.652499974,0.084899999,9.784500122,,86,1.58739996,-1.005099915,11.92350006
1.68301E+18,1.756399658,0.690899968,-1.046000004,2.463899851,,,0.672299981,0.092699997,9.783100128,,87,1.363199949,-0.953300007,12.24699998
1.68301E+18,1.776399658,0.631799996,-1.073300004,3.02429986,,,0.691100001,0.096299998,9.781700134,,88,1.322899997,-0.977000006,12.80599999
1.68301E+18,1.796399658,0.622799993,-1.273100019,3.957299948,,,0.700199962,0.0933,9.781099319,,89,1.322999954,-1.179800019,13.73839927
1.68301E+18,1.816399658,0.73149997,-1.43690002,4.634599686,,,0.699299991,0.081199996,9.781299591,,90,1.430799961,-1.355700023,14.41589928
1.68301E+18,1.836399658,0.948099971,-1.444299936,4.948199749,,,0.688600004,0.061699998,9.78219986,,91,1.636699975,-1.382599939,14.73039961
1.68301E+18,1.856399658,0.870599985,-1.140499949,4.378499985,,,0.681199968,0.036899999,9.782799721,,92,1.551799953,-1.103599951,14.16129971
1.68301E+18,1.876399658,0.299299985,-0.537,2.66170001,,,0.69629997,0.015699999,9.781799316,,93,0.995599955,-0.521300001,12.44349933
1.68301E+18,1.896399658,-0.500100017,-0.0647,0.495399982,,,0.723699987,0.0155,9.779799461,,94,0.22359997,-0.0492,10.27519944
1.68301E+18,1.916399658,-0.978599966,-0.113600001,-1.16960001,,,0.744599998,0.041299999,9.77820015,,95,-0.233999968,-0.072300002,8.60860014
1.68301E+18,1.936399658,-1.058399916,-0.423799992,-1.295400023,,,0.751699984,0.0801,9.777400017,,96,-0.306699932,-0.343699992,8.481999993
1.68301E+18,1.956399658,-1.369499922,-0.68809998,-1.000499964,,,0.763499975,0.116799995,9.776100159,,97,-0.605999947,-0.571299985,8.775600195
1.68301E+18,1.976402832,-1.302899957,-0.734600008,-0.498999983,,,0.782399952,0.141900003,9.774299622,,98,-0.520500004,-0.592700005,9.275299639
1.68301E+18,1.996399658,-1.155099988,-0.759799957,-0.046099998,,,0.819899976,0.162199989,9.770899773,,99,-0.335200012,-0.597599968,9.724799775
1.68301E+18,2.016399658,-0.819899976,-0.848699987,-0.307500005,,,0.87349999,0.1954,9.765699387,,100,0.053600013,-0.653299987,9.458199382
1.68301E+18,2.036399658,-0.794999957,-1.019199967,-0.978899956,,,0.931099951,0.230299994,9.759599686,,101,0.136099994,-0.788899973,8.78069973
1.68301E+18,2.056399658,-0.69569999,-1.093199968,-1.541599989,,,0.984899998,0.249599993,9.753799438,,102,0.289200008,-0.843599975,8.21219945
1.68301E+18,2.076401123,-0.631799996,-1.024399996,-1.908499956,,,1.019400001,0.249899998,9.750299454,,103,0.387600005,-0.774499997,7.841799498
1.68301E+18,2.096399658,-0.636900008,-0.799099982,-1.973599911,,,1.019899964,0.238999993,9.750499725,,104,0.382999957,-0.560099989,7.776899815
1.68301E+18,2.116399658,-0.853199959,-0.523400009,-1.728599906,,,0.994099975,0.221900001,9.753600121,,105,0.140900016,-0.301500008,8.025000215
1.68301E+18,2.136399658,-0.994099975,-0.24149999,-1.476699948,,,0.96359998,0.207099989,9.756899834,,106,-0.030499995,-0.034400001,8.280199885
1.68301E+18,2.156399658,-0.992999971,-0.069799997,-1.391899943,,,0.947099984,0.201799989,9.758699417,,107,-0.045899987,0.131999992,8.366799474
1.68301E+18,2.176399658,-0.947099984,0.004,-1.589699984,,,0.94479996,0.207999989,9.758799553,,108,-0.002300024,0.211999989,8.169099569
1.68301E+18,2.196399658,-0.993799984,-0.109899998,-1.668299913,,,0.952899992,0.217899993,9.757800102,,109,-0.040899992,0.107999995,8.089500189
1.68301E+18,2.216399658,-0.87439996,-0.188500002,-1.765299916,,,0.958899975,0.225599989,9.756999969,,110,0.084500015,0.037099987,7.991700053
1.68301E+18,2.236399658,-0.752999961,-0.30399999,-1.617499948,,,0.956200004,0.228599995,9.757199287,,111,0.203200042,-0.075399995,8.13969934
1.68301E+18,2.256399658,-0.456,-0.346199989,-1.352899909,,,0.948599994,0.225499988,9.75799942,,112,0.492599994,-0.120700002,8.405099511
1.68301E+18,2.276399658,-0.193499997,-0.40199998,-1.17719996,,,0.936199963,0.215799987,9.759399414,,113,0.742699966,-0.186199993,8.582199454
1.68301E+18,2.296399658,-0.033999998,-0.362899989,-1.031499982,,,0.913499951,0.196799994,9.762000084,,114,0.879499953,-0.166099995,8.730500102
1.68301E+18,2.316399658,0.027899999,-0.17719999,-0.690800011,,,0.886599958,0.166299999,9.76499939,,115,0.914499957,-0.010899991,9.074199378
1.68301E+18,2.336399658,0.113600001,0.078699999,-0.321199983,,,0.864099979,0.133299991,9.767499924,,116,0.97769998,0.21199999,9.44629994
1.68301E+18,2.356399658,0.096799999,0.298099995,0.039000001,,,0.84709996,0.104099996,9.769399643,,117,0.943899959,0.402199991,9.808399644
1.68301E+18,2.376401123,0.241299987,0.386099994,0.449000001,,,0.828399956,0.077299997,9.77120018,,118,1.069699943,0.463399991,10.22020018
1.68301E+18,2.396399658,0.367899984,0.393299997,1.113999963,,,0.816699982,0.054499999,9.772399902,,119,1.184599966,0.447799996,10.88639987
1.68301E+18,2.416399658,0.458099991,0.435699999,1.662099957,,,0.815599978,0.034899998,9.772600174,,120,1.273699969,0.470599998,11.43470013
1.68301E+18,2.436401123,0.665099978,0.288599998,2.760200024,,,0.805199981,0.0121,9.773499489,,121,1.470299959,0.300699998,12.53369951
1.68301E+18,2.456399658,0.695199966,0.331,4.279399872,,,0.797299981,-0.0103,9.77409935,,122,1.492499948,0.3207,14.05349922
1.68301E+18,2.476399658,0.555999994,0.363299996,4.93569994,,,0.799799979,-0.025799999,9.773900032,,123,1.355799973,0.337499997,14.70959997
1.68301E+18,2.496399658,0.278799981,0.163099989,5.347899914,,,0.792099953,-0.0263,9.774499893,,124,1.070899934,0.136799989,15.12239981
1.68301E+18,2.516399658,0.237499997,-0.052099999,5.376699924,,,0.804699957,-0.0211,9.773499489,,125,1.042199954,-0.073199999,15.15019941
1.68301E+18,2.536399658,0.381799996,-0.233799994,4.171499729,,,0.860300004,-0.0122,9.768799782,,126,1.2421,-0.245999994,13.94029951
1.68301E+18,2.556399658,0.728299975,-0.281899989,2.126600027,,,0.946199954,-0.0002,9.760799408,,127,1.674499929,-0.282099989,11.88739944
1.68301E+18,2.576401123,0.907199979,-0.382200003,-0.150299996,,,1.03489995,0.0178,9.751799583,,128,1.942099929,-0.364400003,9.601499587
1.68301E+18,2.596399658,0.730199993,-0.763099968,-1.778999925,,,1.096199989,0.037299998,9.745100021,,129,1.826399982,-0.72579997,7.966100097
1.68301E+18,2.616399658,0.404100001,-1.223899961,-2.243000031,,,1.109699965,0.041899998,9.743499756,,130,1.513799965,-1.181999963,7.500499725
1.68301E+18,2.636399658,-0.070199996,-1.503099918,-1.515699983,,,1.073699951,0.0175,9.747599602,,131,1.003499955,-1.485599918,8.231899619
1.68301E+18,2.656399658,-0.426499993,-1.390399933,-0.264599979,,,1.003299952,-0.030399999,9.755099297,,132,0.576799959,-1.420799932,9.490499318
1.68301E+18,2.676399658,-0.6699,-1.057999969,0.649699986,,,0.926099956,-0.078499995,9.762499809,,133,0.256199956,-1.136499964,10.4121998
1.68301E+18,2.696399658,-0.612299979,-0.647099972,0.740399957,,,0.887299955,-0.104399994,9.765799522,,134,0.274999976,-0.751499966,10.50619948
1.68301E+18,2.716399658,-0.073399998,-0.326999992,-0.302399993,,,0.897599995,-0.112599999,9.764800072,,135,0.824199997,-0.439599991,9.462400079
1.68301E+18,2.736401123,0.377199978,-0.377599984,-1.41929996,,,0.94569999,-0.116699994,9.760199547,,136,1.322899967,-0.494299978,8.340899587
1.68301E+18,2.756399658,0.937099993,-0.2852,-2.522899866,,,1.001600027,-0.122899994,9.754499435,,137,1.93870002,-0.408099994,7.231599569
1.68301E+18,2.776399658,1.39109993,-0.279100001,-2.723199844,,,1.02489996,-0.128899992,9.751999855,,138,2.415999889,-0.407999992,7.028800011
1.68301E+18,2.796399658,1.318799973,-0.155399993,-2.563799858,,,1.013499975,-0.134499997,9.753199577,,139,2.332299948,-0.28989999,7.189399719
1.68301E+18,2.816399658,0.614300013,-0.0517,-2.133399963,,,0.995999992,-0.128899992,9.755000114,,140,1.610300004,-0.180599991,7.621600151
1.68301E+18,2.836399658,1.014199972,0.462300003,-1.654699922,,,1.011299968,-0.107099995,9.753699303,,141,2.02549994,0.355200008,8.098999381
1.68301E+18,2.856399658,1.028399944,-0.079099998,-1.476899981,,,1.004699945,-0.029199999,9.755000114,,142,2.03309989,-0.108299997,8.278100133
1.68301E+18,2.876399658,0.3583,0.607800007,-2.282299995,,,0.952099979,0.037900001,9.760199547,,143,1.310399979,0.645700008,7.477899551
1.68301E+18,2.896399658,-0.589299977,-0.037900001,-1.414699912,,,0.90959996,0.074900001,9.763999939,,144,0.320299983,0.037,8.349300027
1.68301E+18,2.916399658,-0.497699976,-0.0062,-0.437899977,,,0.941999972,0.087200001,9.760899544,,145,0.444299996,0.081000001,9.322999567
1.68301E+18,2.936399658,-0.226099998,0.030399999,0.114299998,,,1.025399923,0.096699998,9.752399445,,146,0.799299926,0.127099996,9.866699442
1.68301E+18,2.956399658,0.425799996,-0.165399998,0.416999996,,,1.090199947,0.113399997,9.745100021,,147,1.515999943,-0.052000001,10.16210002
1.68301E+18,2.976399658,0.410099983,-0.348699987,0.708599985,,,1.114300013,0.130500004,9.742199898,,148,1.524399996,-0.218199983,10.45079988
1.68301E+18,2.996399658,0.5625,-0.424699992,1.0352,,,1.14380002,0.140599996,9.738599777,,149,1.70630002,-0.284099996,10.77379978
1.68301E+18,3.016399658,0.797800004,-0.483899981,0.813199997,,,1.167699933,0.14819999,9.735699654,,150,1.965499938,-0.33569999,10.54889965
1.68301E+18,3.036399658,0.685699999,-0.648299992,0.688699961,,,1.152599931,0.151299998,9.737500191,,151,1.83829993,-0.496999994,10.42620015
1.68301E+18,3.056399658,0.416399986,-0.357199997,0.794799984,,,1.122200012,0.156299993,9.74090004,,152,1.538599998,-0.200900003,10.53570002
1.68301E+18,3.076399658,0.211399987,-0.479900002,1.036499977,,,1.118600011,0.166199997,9.741199493,,153,1.329999998,-0.313700005,10.77769947
1.68301E+18,3.096399658,0.31309998,-0.470200002,1.457899928,,,1.112200022,0.16929999,9.741799355,,154,1.425300002,-0.300900012,11.19969928
1.68301E+18,3.116399658,0.172399998,-0.443899989,2.585000038,,,1.072299957,0.16139999,9.746500015,,155,1.244699955,-0.282499999,12.33150005
1.68301E+18,3.136399658,0.388799995,-0.475299984,4.188699722,,,1.011799932,0.155599996,9.752999306,,156,1.400599927,-0.319699988,13.94169903
1.68301E+18,3.156399658,0.468899995,-0.587099969,5.251100063,,,0.946999967,0.157099992,9.75949955,,157,1.415899962,-0.429999977,15.01059961
1.68301E+18,3.176399658,0.631699979,-0.657199979,4.685599804,,,0.934499979,0.161699995,9.76060009,,158,1.566199958,-0.495499983,14.44619989
1.68301E+18,3.196399658,0.840499997,-0.652099967,2.909499884,,,0.947699964,0.165699989,9.759299278,,159,1.788199961,-0.486399978,12.66879916
1.68301E+18,3.216399658,0.532999992,-0.469699979,1.20449996,,,0.95539999,0.166799992,9.758500099,,160,1.488399982,-0.302899987,10.96300006
1.68301E+18,3.236399658,0.0546,-0.1963,-0.040100001,,,0.953499973,0.17019999,9.758599281,,161,1.008099973,-0.02610001,9.718499281
1.68301E+18,3.256399658,-0.522000015,0.045399997,-0.77579999,,,0.93779999,0.18599999,9.759900093,,162,0.415799975,0.231399987,8.984100103
1.68301E+18,3.276399658,-0.93779999,0.0199,-1.179099917,,,0.916599989,0.208799988,9.761400223,,163,-0.021200001,0.228699988,8.582300305
1.68301E+18,3.296399658,-0.887199998,-0.110799998,-0.847199976,,,0.90169996,0.225099996,9.762499809,,164,0.014499962,0.114299998,8.915299833
1.68301E+18,3.316399658,-0.872199953,-0.038799997,-0.269600004,,,0.916499972,0.237799987,9.760799408,,165,0.04430002,0.19899999,9.491199404
1.68301E+18,3.336399658,-0.367300004,-0.110299997,-0.140499994,,,0.944099963,0.25909999,9.757599831,,166,0.576799959,0.148799993,9.617099836
1.68301E+18,3.356399658,0.0266,-0.239500001,-0.4903,,,0.966099977,0.287900001,9.754599571,,167,0.992699977,0.0484,9.264299572
1.68301E+18,3.376399658,0.279199988,-0.336999983,-0.908999979,,,0.990499973,0.317699999,9.751299858,,168,1.269699961,-0.019299984,8.842299879
1.68301E+18,3.396399658,0.225400001,-0.34709999,-1.484300017,,,1.026199937,0.347299993,9.746600151,,169,1.251599938,0.000200003,8.262300134
1.68301E+18,3.416399658,0.0034,-0.298299998,-2.077800035,,,1.05339992,0.373599976,9.742699623,,170,1.05679992,0.075299978,7.664899588
1.68301E+18,3.436399658,-0.435499996,-0.206900001,-2.387699842,,,1.0625,0.397799999,9.740699768,,171,0.627000004,0.190899998,7.352999926
1.68301E+18,3.456399658,-0.895799994,-0.123199999,-2.405400038,,,1.057899952,0.421299994,9.740300179,,172,0.162099957,0.298099995,7.334900141
1.68301E+18,3.476399658,-1.175599933,-0.019199999,-2.198899984,,,1.047099948,0.440899998,9.740599632,,173,-0.128499985,0.421699999,7.541699648
1.68301E+18,3.496399658,-0.949099958,0.0199,-1.885399938,,,1.039999962,0.457800001,9.740499496,,174,0.090900004,0.477700001,7.855099559
1.68301E+18,3.516399658,-0.637899995,0.052099999,-1.708899975,,,1.038699985,0.469699979,9.740099907,,175,0.40079999,0.521799978,8.031199932
1.68301E+18,3.536399658,-0.362100005,0.0009,-1.522099972,,,1.044799924,0.477899998,9.739099503,,176,0.682699919,0.478799998,8.216999531
1.68301E+18,3.556399658,-0.152400002,0.0221,-1.35439992,,,1.051699996,0.480399996,9.738200188,,177,0.899299994,0.502499996,8.383800268
1.68301E+18,3.576399658,0.036699999,0.0491,-1.088699937,,,1.056399941,0.478599995,9.737799644,,178,1.093099941,0.527699996,8.649099708
1.68301E+18,3.596399658,0.012499999,0.090099998,-0.666599989,,,1.052099943,0.475799978,9.738399506,,179,1.064599942,0.565899976,9.071799517
1.68301E+18,3.616399658,-0.120399997,0.210599989,-0.127899989,,,1.049099922,0.466600001,9.739099503,,180,0.928699926,0.67719999,9.611199513
1.68301E+18,3.636399658,-0.127299994,0.337399989,0.155699998,,,1.060199976,0.451199979,9.738699913,,181,0.932899982,0.788599968,9.894399911
1.68301E+18,3.656399658,-0.138400003,0.441100001,0.0973,,,1.075899959,0.437299997,9.737599373,,182,0.937499955,0.878399998,9.834899373
1.68301E+18,3.676399658,-0.065899998,0.425599992,0.314099997,,,1.087499976,0.421299994,9.736999512,,183,1.021599978,0.846899986,10.05109951
1.68301E+18,3.696399658,0.079399996,0.470999986,0.618699968,,,1.09920001,0.403599977,9.736399651,,184,1.178600006,0.874599963,10.35509962
1.68301E+18,3.716399658,0.204999998,0.567099988,0.815400004,,,1.12379992,0.385199994,9.734399796,,185,1.328799918,0.952299982,10.5497998
1.68301E+18,3.736399658,0.396099985,0.771899998,0.915600002,,,1.155799985,0.368999988,9.731200218,,186,1.55189997,1.140899986,10.64680022
1.68301E+18,3.756399658,0.089499995,0.856700003,1.046199918,,,1.189899921,0.364099979,9.72729969,,187,1.279399917,1.220799983,10.77349961
1.68301E+18,3.776399658,-0.454400003,0.685099959,1.442399979,,,1.212000012,0.365999997,9.724499702,,188,0.757600009,1.051099956,11.16689968
1.68301E+18,3.796399658,-0.564700007,0.3301,2.592499971,,,1.193699956,0.3671,9.726699829,,189,0.628999949,0.6972,12.3191998
1.68301E+18,3.816399658,-0.664099991,0.280000001,3.865199804,,,1.163499951,0.354799986,9.730899811,,190,0.49939996,0.634799987,13.59609962
1.68301E+18,3.836399658,-0.388799995,0.125599995,4.596600056,,,1.134500027,0.347499996,9.734499931,,191,0.745700032,0.473099992,14.33109999
1.68301E+18,3.856399658,0.042199999,-0.141499996,4.612499714,,,1.109799981,0.341499984,9.737599373,,192,1.15199998,0.199999988,14.35009909
1.68301E+18,3.876399658,0.929899991,-0.439599991,4.079899788,,,1.112200022,0.334199995,9.737599373,,193,2.042100012,-0.105399996,13.81749916
1.68301E+18,3.896399658,1.545300007,-0.4912,3.089399815,,,1.138499975,0.322699994,9.734899521,,194,2.683799982,-0.168500006,12.82429934
1.68301E+18,3.916399658,1.822999954,-0.224599987,2.013299942,,,1.184800029,0.317399979,9.729599953,,195,3.007799983,0.092799991,11.74289989
1.68301E+18,3.936399658,1.315799952,-0.033,0.312299997,,,1.253700018,0.340700001,9.720099449,,196,2.569499969,0.307700001,10.03239945
1.68301E+18,3.956399658,0.638899982,-0.281899989,-1.345299959,,,1.307299972,0.376499981,9.711799622,,197,1.946199954,0.094599992,8.366499662
1.68301E+18,3.976399658,-0.051999997,-0.964899957,-1.817399979,,,1.326900005,0.403799981,9.708000183,,198,1.274900008,-0.561099976,7.890600204
1.68301E+18,3.996399658,-0.238399997,-1.178499937,-1.078199983,,,1.313599944,0.395899981,9.710100174,,199,1.075199947,-0.782599956,8.631900191
1.68301E+18,4.016399658,-0.852699995,-0.964599967,-0.168300003,,,1.306900024,0.3671,9.712200165,,200,0.454200029,-0.597499967,9.543900162
1.68301E+18,4.036399658,-0.875400007,-0.543599963,-0.199699998,,,1.315699935,0.342399985,9.711899757,,201,0.440299928,-0.201199979,9.512199759
1.68301E+18,4.056399658,-0.315400004,-0.293300003,-0.562299967,,,1.317199945,0.33069998,9.712100029,,202,1.001799941,0.037399977,9.149800062
1.68301E+18,4.076399658,0.310599983,-0.320899993,-0.807699978,,,1.300699949,0.333999991,9.71420002,,203,1.611299932,0.013099998,8.906500041
1.68301E+18,4.096399658,0.650699973,-0.333999991,-1.11379993,,,1.289899945,0.336999983,9.715499878,,204,1.940599918,0.002999991,8.601699948
1.68301E+18,4.116399658,0.749799967,-0.258599997,-1.448499918,,,1.283200026,0.338799983,9.716400146,,205,2.032999992,0.080199987,8.267900229
1.68301E+18,4.136399658,0.550599992,-0.172099993,-1.802399993,,,1.278499961,0.343099982,9.716799736,,206,1.829099953,0.170999989,7.914399743
1.68301E+18,4.156399658,0.270899981,0.0196,-2.077499866,,,1.280300021,0.351599991,9.716300011,,207,1.551200002,0.371199992,7.638800144
1.68301E+18,4.176399658,-0.064199999,0.021,-2.322099924,,,1.291100025,0.36589998,9.714300156,,208,1.226900026,0.38689998,7.392200232
1.68301E+18,4.196399658,-0.231999993,-0.052099999,-2.52609992,,,1.305499911,0.382399976,9.711799622,,209,1.073499918,0.330299977,7.185699701
1.68301E+18,4.216399658,-0.148299992,-0.068599999,-2.435299873,,,1.316499949,0.393399984,9.709899902,,210,1.168199956,0.324799985,7.274600029
1.68301E+18,4.236399658,-0.080899999,-0.0403,-2.06069994,,,1.319999933,0.399399996,9.70909977,,211,1.239099935,0.359099995,7.64839983
1.68301E+18,4.256399658,-0.054899998,-0.0072,-1.363699913,,,1.312699914,0.403099984,9.710000038,,212,1.257799916,0.395899984,8.346300125
1.68301E+18,4.276399658,0.0504,0.028299998,-0.648599982,,,1.304700017,0.406599998,9.710899353,,213,1.355100017,0.434899997,9.062299371
1.68301E+18,4.296399658,0.372199982,0.0052,-0.0219,,,1.29460001,0.407899976,9.712200165,,214,1.666799992,0.413099976,9.690300165
1.68301E+18,4.316399658,0.588199973,-0.084299996,0.653299987,,,1.279699922,0.405699998,9.714300156,,215,1.867899895,0.321400002,10.36760014
1.68301E+18,4.336399658,0.720799983,-0.121299997,1.033699989,,,1.270900011,0.406599998,9.715399742,,216,1.991699994,0.285300002,10.74909973
1.68301E+18,4.356399658,0.729599953,-0.131999999,0.983599961,,,1.262699962,0.406800002,9.716400146,,217,1.992299914,0.274800003,10.70000011
1.68301E+18,4.376399658,0.737800002,-0.191100001,1.119799972,,,1.245299935,0.405699998,9.718699455,,218,1.983099937,0.214599997,10.83849943
1.68301E+18,4.396399658,0.637499988,-0.346799999,1.313599944,,,1.219200015,0.397100002,9.722399712,,219,1.856700003,0.050300002,11.03599966
1.68301E+18,4.416399658,0.673399985,-0.456,1.868999958,,,1.189499974,0.374300003,9.726999283,,220,1.862899959,-0.081699997,11.59599924
1.68301E+18,4.436399658,0.810899973,-0.374300003,2.835199833,,,1.153999925,0.33859998,9.732600212,,221,1.964899898,-0.035700023,12.56780005
1.68301E+18,4.456399658,0.807299972,-0.417099983,4.261399746,,,1.110599995,0.300799996,9.738900185,,222,1.917899966,-0.116299987,14.00029993
1.68301E+18,4.476399658,0.674099982,-0.702799976,5.882999897,,,1.041199923,0.260100007,9.747699738,,223,1.715299904,-0.442699969,15.63069963
1.68301E+18,4.496399658,0.214000002,-0.466099977,6.099799633,,,0.989600003,0.224099994,9.75399971,,224,1.203600004,-0.241999984,15.85379934
1.68301E+18,4.516399658,-0.175599992,-0.126100004,3.877199888,,,0.974399984,0.212200001,9.755799294,,225,0.798799992,0.086099997,13.63299918
1.68301E+18,4.536399658,-0.297699988,0.062199999,1.286399961,,,1.002300024,0.214599997,9.752900124,,226,0.704600036,0.276799995,11.03930008
1.68301E+18,4.556399658,0.193999991,-0.0381,-0.505199969,,,1.033299923,0.229099989,9.749300003,,227,1.227299914,0.190999988,9.244100034
1.68301E+18,4.576399658,0.24149999,-0.317399979,-1.001799941,,,1.03670001,0.246699989,9.74849987,,228,1.278200001,-0.07069999,8.746699929
1.68301E+18,4.596399658,-0.154100001,-0.589899957,-0.677399993,,,1.021899939,0.261700004,9.749699593,,229,0.867799938,-0.328199953,9.0722996
1.68301E+18,4.616399658,-0.639499962,-0.693199992,-0.462799996,,,1.004299998,0.273599982,9.751199722,,230,0.364800036,-0.41960001,9.288399726
1.68301E+18,4.636399658,-0.75909996,-0.60710001,-0.5722,,,0.991400003,0.284799993,9.752200127,,231,0.232300043,-0.322300017,9.180000126
1.68301E+18,4.656399658,-0.550099969,-0.539699972,-0.651600003,,,0.977699995,0.299199998,9.753099442,,232,0.427600026,-0.240499973,9.101499438
1.68301E+18,4.676399658,-0.261799991,-0.573799968,-1.044799924,,,0.963499963,0.322099984,9.753799438,,233,0.701699972,-0.251699984,8.708999515
1.68301E+18,4.696399658,-0.218199998,-0.665300012,-1.555499911,,,0.951399982,0.344599992,9.754300117,,234,0.733199984,-0.32070002,8.198800206
1.68301E+18,4.716399658,-0.284500003,-0.570100009,-2.232599974,,,0.947899997,0.354099989,9.754199982,,235,0.663399994,-0.216000021,7.521600008
1.68301E+18,4.736399658,-0.457599998,-0.354099989,-2.713099957,,,0.944499969,0.350899994,9.754699707,,236,0.486899972,-0.003199995,7.041599751
1.68301E+18,4.756399658,-0.640500009,-0.144899994,-2.831199884,,,0.937399983,0.345999986,9.755599976,,237,0.296899974,0.201099992,6.924400091
1.68301E+18,4.776399658,-0.82949996,0.0069,-2.920300007,,,0.925699949,0.340199977,9.756899834,,238,0.096199989,0.347099977,6.836599827
1.68301E+18,4.796399658,-0.83739996,0.100999996,-2.813799858,,,0.907399952,0.328999996,9.758999825,,239,0.069999993,0.429999992,6.945199966
1.68301E+18,4.816402832,-0.809399962,0.200399995,-2.394199848,,,0.881399989,0.315799981,9.761799812,,240,0.072000027,0.516199976,7.367599964
1.68301E+18,4.836399658,-0.763700008,0.311800003,-2.034199953,,,0.853399992,0.303799987,9.764699936,,241,0.089699984,0.61559999,7.730499983
1.68301E+18,4.856399658,-0.510199964,0.304100007,-1.536899924,,,0.831999958,0.291999996,9.766900063,,242,0.321799994,0.596100003,8.230000138
1.68301E+18,4.876401123,-0.165199995,0.178599998,-1.048799992,,,0.820599973,0.278600007,9.768199921,,243,0.655399978,0.457200006,8.719399929
1.68301E+18,4.896399658,0.257999986,0.231199995,-0.628399968,,,0.809199989,0.253699988,9.769899368,,244,1.067199975,0.484899983,9.1414994
1.68301E+18,4.916399658,0.298899978,0.334600002,0.075899996,,,0.79459995,0.225799993,9.771699905,,245,1.093499929,0.560399994,9.847599901
1.68301E+18,4.936399658,0.283999979,0.440899998,0.456499994,,,0.788199961,0.205799997,9.772699356,,246,1.072199941,0.646699995,10.22919935
1.68301E+18,4.956399658,0.270799994,0.490399987,0.494800001,,,0.789999962,0.190399989,9.772899628,,247,1.060799956,0.680799976,10.26769963
1.68301E+18,4.976399658,0.190499991,0.427299976,0.769199967,,,0.797100008,0.178800002,9.772500038,,248,0.987599999,0.606099978,10.54170001
1.68301E+18,4.996399658,0.075599998,0.429099977,1.004899979,,,0.814899981,0.172700003,9.77120018,,249,0.890499979,0.60179998,10.77610016
1.68301E+18,5.016399658,-0.030399999,0.415600002,1.114099979,,,0.836099982,0.167400002,9.769399643,,250,0.805699984,0.583000004,10.88349962
1.68301E+18,5.036399658,-0.198699996,0.479699999,0.841199994,,,0.862599969,0.171499997,9.76709938,,251,0.663899973,0.651199996,10.60829937
1.68301E+18,5.056399658,-0.440899998,0.534500003,0.343499988,,,0.90199995,0.183699995,9.763299942,,252,0.461099952,0.718199998,10.10679993
1.68301E+18,5.076399658,-0.539099991,0.47329998,0.219799995,,,0.94479996,0.194499999,9.758999825,,253,0.405699968,0.667799979,9.97879982
1.68301E+18,5.096399658,-0.542699993,0.285899997,0.773199975,,,0.979799986,0.198499992,9.75549984,,254,0.437099993,0.484399989,10.52869982
1.68301E+18,5.116399658,-0.352200001,0.036699999,1.933899999,,,0.98939997,0.196999997,9.754599571,,255,0.637199968,0.233699996,11.68849957
1.68301E+18,5.136399658,-0.126399994,-0.550000012,3.739300013,,,0.959699988,0.1787,9.757899284,,256,0.833299994,-0.371300012,13.4971993
1.68301E+18,5.156399658,0.344500005,-0.678799987,5.246200085,,,0.913699985,0.144099995,9.762899399,,257,1.25819999,-0.534699991,15.00909948
1.68301E+18,5.176401123,0.312000006,-0.546199977,5.751199722,,,0.877299964,0.103999995,9.766699791,,258,1.189299971,-0.442199983,15.51789951
1.68301E+18,5.196402832,0.0052,-0.251100004,4.972599983,,,0.876499951,0.077399999,9.767000198,,259,0.881699951,-0.173700005,14.73960018
1.68301E+18,5.216402832,-0.180199996,0.079399996,3.040299892,,,0.906099975,0.077299997,9.764299393,,260,0.725899979,0.156699993,12.80459929
1.68301E+18,5.236399658,-0.239299998,0.0403,1.189599991,,,0.957599998,0.099399999,9.759200096,,261,0.7183,0.139699999,10.94880009
1.68301E+18,5.256399658,-0.084799998,-0.109200001,-0.325199991,,,0.998699963,0.133699998,9.754699707,,262,0.913899966,0.024499997,9.429499716
1.68301E+18,5.276399658,-0.165099993,-0.653499961,-0.92869997,,,1.002200007,0.169499993,9.753799438,,263,0.837100014,-0.483999968,8.825099468
1.68301E+18,5.296401123,-0.158899993,-1.032500029,-1.006199956,,,0.98269999,0.185699999,9.75549984,,264,0.823799998,-0.846800029,8.749299884
1.68301E+18,5.316399658,0.0174,-1.048699975,-0.900099993,,,0.956200004,0.175300002,9.758299828,,265,0.973600004,-0.873399973,8.858199835
1.68301E+18,5.336399658,0.21069999,-0.842099965,-0.579299986,,,0.926599979,0.145400003,9.761599541,,266,1.13729997,-0.696699962,9.182299554
1.68301E+18,5.356399658,0.426599979,-0.586699963,-0.523800015,,,0.907000005,0.116999999,9.763899803,,267,1.333599985,-0.469699964,9.240099788
1.68301E+18,5.376401123,0.583499968,-0.509299994,-1.016299963,,,0.901199996,0.096000001,9.7645998,,268,1.484699965,-0.413299993,8.748299837
1.68301E+18,5.396399658,0.608900011,-0.449099988,-1.674099922,,,0.909500003,0.072299995,9.764100075,,269,1.518400013,-0.376799993,8.090000153
1.68301E+18,5.416399658,0.502600014,-0.307599992,-2.065799952,,,0.923299968,0.0403,9.762999535,,270,1.425899982,-0.267299991,7.697199583
1.68301E+18,5.436401123,0.31219998,-0.157999992,-2.280499935,,,0.933799982,0.006,9.762000084,,271,1.245999962,-0.151999992,7.481500149
1.68301E+18,5.456399658,0.085999995,-0.006,-2.132499933,,,0.937899947,-0.030599998,9.761599541,,272,1.023899943,-0.036599998,7.629099607
1.68301E+18,5.476399658,-0.1338,0.1875,-2.259500027,,,0.94509995,-0.065299995,9.760700226,,273,0.81129995,0.122200005,7.501200199
1.68301E+18,5.496399658,-0.1998,0.447799981,-2.121399879,,,0.955499947,-0.095699996,9.75949955,,274,0.755699947,0.352099985,7.63809967
1.68301E+18,5.516399658,-0.102299996,0.576299965,-2.002399921,,,0.969500005,-0.112899996,9.757899284,,275,0.86720001,0.463399969,7.755499363
1.68301E+18,5.536399658,-0.0084,0.573799968,-1.863499999,,,0.978499949,-0.117199995,9.756999969,,276,0.970099949,0.456599973,7.89349997
1.68301E+18,5.556399658,0.1197,0.489799976,-1.666499972,,,0.985099971,-0.1131,9.756299973,,277,1.104799971,0.376699977,8.0898
1.68301E+18,5.576399658,0.289599985,0.387600005,-1.440299988,,,0.986599982,-0.103199996,9.756299973,,278,1.276199967,0.284400009,8.315999985
1.68301E+18,5.596401123,0.503899992,0.299299985,-1.067600012,,,0.986599982,-0.094700001,9.756400108,,279,1.490499973,0.204599984,8.688800097
1.68301E+18,5.616399658,0.699999988,0.241799995,-0.616599977,,,0.990999997,-0.090300001,9.755999565,,280,1.690999985,0.151499994,9.139399588
1.68301E+18,5.636399658,0.852599978,0.28639999,-0.576999962,,,0.986699998,-0.088599995,9.756400108,,281,1.839299977,0.197799996,9.179400146
1.68301E+18,5.656399658,0.748999953,0.255400002,-0.253800005,,,0.957299948,-0.0942,9.759299278,,282,1.706299901,0.161200002,9.505499274
1.68301E+18,5.676399658,0.641099989,0.025599999,0.615999997,,,0.923099995,-0.101599999,9.762499809,,283,1.564199984,-0.075999999,10.37849981
1.68301E+18,5.696399658,0.645900011,0.180099994,1.43659997,,,0.886199951,-0.102699995,9.765899658,,284,1.532099962,0.077399999,11.20249963
1.68301E+18,5.716399658,0.594599962,0.406699985,2.433399916,,,0.841299951,-0.1109,9.769800186,,285,1.435899913,0.295799986,12.2032001
1.68301E+18,5.736401123,0.188299999,0.434599996,2.763000011,,,0.833399951,-0.117299996,9.770400047,,286,1.02169995,0.317299999,12.53340006
1.68301E+18,5.756399658,0.411899984,0.382099986,2.64470005,,,0.840399981,-0.113499999,9.769899368,,287,1.252299964,0.268599987,12.41459942
1.68301E+18,5.776399658,0.620700002,0.103699997,2.880599976,,,0.8495,-0.109899998,9.769100189,,288,1.470200002,-0.006200001,12.64970016
1.68301E+18,5.796399658,1.033299923,-0.243000001,3.734499931,,,0.851099968,-0.118599996,9.768899918,,289,1.884399891,-0.361599997,13.50339985
1.68301E+18,5.816399658,1.110100031,-0.430399984,4.92140007,,,0.840900004,-0.145799994,9.769399643,,290,1.951000035,-0.576199979,14.69079971
1.68301E+18,5.836399658,0.943799973,-0.383599997,5.695600033,,,0.828199983,-0.180099994,9.769899368,,291,1.771999955,-0.563699991,15.4654994
1.68301E+18,5.856399658,0.426999986,-0.153200001,5.73429966,,,0.824599981,-0.209099993,9.769599915,,292,1.251599967,-0.362299994,15.50389957
1.68301E+18,5.876399658,-0.128299996,0.120899998,4.50880003,,,0.846300006,-0.201199993,9.767899513,,293,0.71800001,-0.080299996,14.27669954
1.68301E+18,5.896399658,-0.58160001,0.25999999,2.28429985,,,0.887499988,-0.158199996,9.765099525,,294,0.305899978,0.101799995,12.04939938
1.68301E+18,5.916399658,-0.965900004,0.0013,-0.027099999,,,0.935199976,-0.087699994,9.761499405,,295,-0.030700028,-0.086399994,9.734399406
1.68301E+18,5.936399658,-1.278499961,-0.677100003,-1.984799981,,,0.975299954,0.0092,9.75799942,,296,-0.303200006,-0.667900003,7.773199439
1.68301E+18,5.956399658,-0.975299954,-1.078199983,-2.961999893,,,0.972000003,0.083399996,9.75799942,,297,-0.003299952,-0.994799986,6.795999527
1.68301E+18,5.976399658,-0.344399989,-0.995399952,-2.520599842,,,0.926199973,0.112099998,9.76210022,,298,0.581799984,-0.883299954,7.241500378
1.68301E+18,5.996399658,0.211300001,-0.739799976,-1.416700006,,,0.857899964,0.119899996,9.768300056,,299,1.069199964,-0.619899981,8.351600051
1.68301E+18,6.016399658,0.387499988,-0.345499992,-0.471599996,,,0.810400009,0.1215,9.772299767,,300,1.197899997,-0.223999992,9.30069977
1.68301E+18,6.036399658,0.621299982,-0.062600002,-0.289299995,,,0.801599979,0.128700003,9.772899628,,301,1.422899961,0.066100001,9.483599633
1.68301E+18,6.056399658,0.551599979,0.106599994,-0.603699982,,,0.819999993,0.144099995,9.77120018,,302,1.371599972,0.250699989,9.167500198
1.68301E+18,6.076399658,0.297800004,0.071599998,-1.121699929,,,0.847199976,0.160599992,9.76859951,,303,1.144999981,0.232199989,8.646899581
1.68301E+18,6.096399658,-0.092099994,0.035499997,-1.668299913,,,0.872699976,0.180999994,9.765999794,,304,0.780599982,0.216499992,8.097699881
1.68301E+18,6.116399658,-0.578499973,0.103299998,-2.303099871,,,0.894799948,0.198299989,9.763699532,,305,0.316299975,0.301599987,7.460599661
1.68301E+18,6.136399658,-0.894799948,0.115399994,-2.898999929,,,0.927999973,0.209899992,9.760299683,,306,0.033200026,0.325299986,6.861299753
1.68301E+18,6.156399658,-0.947599947,0.064599998,-3.229099989,,,0.965900004,0.211599991,9.756599426,,307,0.018300056,0.276199989,6.527499437
1.68301E+18,6.176399658,-0.877599955,0.1708,-3.323499918,,,0.993299961,0.202999994,9.75399971,,308,0.115700006,0.373799995,6.430499792
1.68301E+18,6.196399658,-0.561800003,0.21859999,-2.93840003,,,0.997999966,0.182300001,9.75399971,,309,0.436199963,0.400899991,6.81559968
1.68301E+18,6.216399658,-0.282199979,0.317699999,-2.19299984,,,0.978199959,0.160799995,9.756400108,,310,0.69599998,0.478499994,7.563400269
1.68301E+18,6.236399658,-0.134900004,0.349099994,-1.567799926,,,0.951999962,0.140799999,9.759299278,,311,0.817099959,0.489899993,8.191499352
1.68301E+18,6.256399658,-0.069399998,0.467099994,-1.158800006,,,0.93659997,0.121799998,9.76099968,,312,0.867199972,0.588899992,8.602199674
1.68301E+18,6.276402832,0.063599996,0.505699992,-0.895799994,,,0.935000002,0.107199997,9.761300087,,313,0.998599999,0.612899989,8.865500093
1.68301E+18,6.296399658,0.074999996,0.343799978,-0.533299983,,,0.935199976,0.097999997,9.761400223,,314,1.010199971,0.441799976,9.22810024
1.68301E+18,6.316399658,0.202299997,0.176499993,0.113799997,,,0.933599949,0.086999997,9.761699677,,315,1.135899946,0.26349999,9.875499673
1.68301E+18,6.336399658,0.331399977,-0.145899996,1.143199921,,,0.915600002,0.064599998,9.763500214,,316,1.246999979,-0.081299998,10.90670013
1.68301E+18,6.356402832,0.261099994,-0.064599998,1.896499991,,,0.900399983,0.023699999,9.765099525,,317,1.161499977,-0.040899999,11.66159952
1.68301E+18,6.376402832,0.188099995,0.378299981,1.855599999,,,0.907499969,-0.026899999,9.764499664,,318,1.095599964,0.351399982,11.62009966
1.68301E+18,6.396399658,-0.064099997,0.840799987,1.542500019,,,0.940400004,-0.069699995,9.761199951,,319,0.876300007,0.771099992,11.30369997
1.68301E+18,6.416399658,-0.391199976,1.148399949,0.898599982,,,1.002799988,-0.094099998,9.754699707,,320,0.611600012,1.054299951,10.65329969
1.68301E+18,6.436401123,-0.56159997,0.888499975,0.551999986,,,1.064199924,-0.096699998,9.748199463,,321,0.502599955,0.791799977,10.30019945
1.68301E+18,6.456399658,-0.681800008,0.204599991,1.499899983,,,1.084100008,-0.097899996,9.745999336,,322,0.4023,0.106699996,11.24589932
1.68301E+18,6.476399658,-0.593699992,-0.412,3.345799923,,,1.060400009,-0.118000001,9.748399734,,323,0.466700017,-0.530000001,13.09419966
1.68301E+18,6.496399658,-0.658399999,-0.372299999,4.382899761,,,1.042500019,-0.162900001,9.749699593,,324,0.38410002,-0.5352,14.13259935
1.68301E+18,6.516399658,-0.336499989,-0.415600002,4.744499683,,,1.040400028,-0.210999995,9.748999596,,325,0.703900039,-0.626599997,14.49349928
1.68301E+18,6.536399658,0.195199996,-0.269400001,4.244999886,,,1.049299955,-0.248599991,9.747099876,,326,1.244499952,-0.517999992,13.99209976
1.68301E+18,6.556399658,0.813899994,-0.339699984,3.295599937,,,1.085500002,-0.275999993,9.742400169,,327,1.899399996,-0.615699977,13.03800011
1.68301E+18,6.576399658,1.199399948,-0.126000002,1.701799989,,,1.149399996,-0.300699979,9.734399796,,328,2.348799944,-0.426699981,11.43619978
1.68301E+18,6.596399658,1.027599931,-0.071800001,0.0035,,,1.217700005,-0.314500004,9.725599289,,329,2.245299935,-0.386300005,9.729099289
1.68301E+18,6.616399658,0.557200015,-0.224799991,-1.046700001,,,1.235099912,-0.3125,9.723499298,,330,1.792299926,-0.537299991,8.676799297
1.68301E+18,6.636399658,-0.166199997,-0.560199976,-1.201499939,,,1.208599925,-0.315400004,9.726699829,,331,1.042399928,-0.87559998,8.52519989
1.68301E+18,6.656399658,-0.453399986,-0.625899971,-1.106699944,,,1.167400002,-0.337300003,9.730999947,,332,0.714000016,-0.963199973,8.624300003
1.68301E+18,6.676399658,-0.353499979,-0.466699988,-0.610799968,,,1.109399915,-0.37349999,9.736499786,,333,0.755899936,-0.840199977,9.125699818
1.68301E+18,6.696399658,-0.118899994,-0.312900007,-0.135800004,,,1.045099974,-0.407399982,9.742199898,,334,0.92619998,-0.720299989,9.606399894
1.68301E+18,6.716399658,0.386599988,-0.210299999,-0.151299998,,,0.992499948,-0.432300001,9.746699333,,335,1.379099935,-0.6426,9.595399335
1.68301E+18,6.736399658,0.958899975,-0.087399997,-0.606899977,,,0.959499955,-0.449799985,9.749199867,,336,1.91839993,-0.537199982,9.142299891
1.68301E+18,6.756399658,1.413599968,-0.040399998,-1.138899922,,,0.944999993,-0.46419999,9.749899864,,337,2.358599961,-0.504599988,8.610999942
1.68301E+18,6.776399658,1.555599928,-0.0162,-1.659399986,,,0.936800003,-0.476499975,9.750100136,,338,2.492399931,-0.492699975,8.09070015
1.68301E+18,6.796399658,1.416700006,0.0744,-2.100899935,,,0.931099951,-0.490399987,9.75,,339,2.347799957,-0.415999986,7.649100065
1.68301E+18,6.816399658,1.10860002,0.137400001,-2.355799913,,,0.924199998,-0.506900012,9.749799728,,340,2.032800019,-0.369500011,7.393999815
1.68301E+18,6.836399658,0.919399977,0.281399995,-2.335999966,,,0.915799975,-0.526300013,9.749499321,,341,1.835199952,-0.244900018,7.413499355
1.68301E+18,6.856399658,0.849299967,0.41839999,-2.394599915,,,0.912599981,-0.545899987,9.748799324,,342,1.761899948,-0.127499998,7.354199409
1.68301E+18,6.876399658,0.842700005,0.526300013,-2.354599953,,,0.911899984,-0.570299983,9.74739933,,343,1.754599988,-0.04399997,7.392799377
1.68301E+18,6.896399658,0.872799993,0.648699999,-2.07859993,,,0.908199966,-0.601499975,9.745900154,,344,1.780999959,0.047200024,7.667300224
1.68301E+18,6.916399658,0.876499951,0.689700007,-1.380800009,,,0.889599979,-0.633300006,9.745599747,,345,1.76609993,0.056400001,8.364799738
1.68301E+18,6.936399658,0.914699972,0.750899971,-0.546999991,,,0.859899998,-0.662099957,9.746399879,,346,1.774599969,0.088800013,9.199399889
1.68301E+18,6.956399658,0.973800004,0.819000006,0.040599998,,,0.83769995,-0.685299993,9.746699333,,347,1.811499953,0.133700013,9.787299331
1.68301E+18,6.976399658,0.956900001,0.910899997,0.324599981,,,0.826099992,-0.701099992,9.746600151,,348,1.782999992,0.209800005,10.07120013
1.68301E+18,6.996399658,0.997799993,0.975699961,0.49149999,,,0.82099998,-0.707599998,9.746500015,,349,1.818799973,0.268099964,10.23800001
1.68301E+18,7.016399658,0.934300005,0.97239995,0.256199986,,,0.826900005,-0.703199983,9.746299744,,350,1.761200011,0.269199967,10.00249973
1.68301E+18,7.036399658,1.036299944,0.938600004,-0.224099994,,,0.832499981,-0.692499995,9.746600151,,351,1.868799925,0.246100008,9.522500157
1.68301E+18,7.056399658,1.109200001,0.976899981,-0.7245,,,0.836999953,-0.688799977,9.746500015,,352,1.946199954,0.288100004,9.022000015
1.68301E+18,7.076399658,1.183099985,1.149699926,-0.949899971,,,0.834199965,-0.694199979,9.746399879,,353,2.01729995,0.455499947,8.796499908
1.68301E+18,7.096399658,1.127099991,1.282599926,-0.606599987,,,0.820299983,-0.704599977,9.746799469,,354,1.947399974,0.577999949,9.140199482
1.68301E+18,7.116399658,1.189999938,1.400900006,0.108799994,,,0.79369998,-0.719799995,9.747900009,,355,1.983699918,0.681100011,9.856700003
1.68301E+18,7.136399658,1.245899916,1.494499922,0.754899979,,,0.766099989,-0.734499991,9.748999596,,356,2.011999905,0.759999931,10.50389957
1.68301E+18,7.156399658,1.30309999,1.568099976,0.842099965,,,0.754499972,-0.7403,9.749499321,,357,2.057599962,0.827799976,10.59159929
1.68301E+18,7.176399658,1.19690001,1.554199934,0.802399993,,,0.762299955,-0.739799976,9.74889946,,358,1.959199965,0.814399958,10.55129945
1.68301E+18,7.196399658,1.277400017,1.082999945,1.312899947,,,0.762899995,-0.730799973,9.749499321,,359,2.040300012,0.352199972,11.06239927
1.68301E+18,7.216399658,1.355199933,0.367899984,2.753899813,,,0.729900002,-0.73210001,9.751899719,,360,2.085099936,-0.364200026,12.50579953
1.68301E+18,7.236399658,1.192099929,0.457499981,3.722299814,,,0.693499982,-0.752099991,9.753099442,,361,1.885599911,-0.29460001,13.47539926
1.68301E+18,7.256399658,0.826399982,0.555999994,2.779700041,,,0.690899968,-0.745199978,9.753799438,,362,1.51729995,-0.189199984,12.53349948
1.68301E+18,7.276399658,0.485799998,0.40199998,0.66079998,,,0.729399979,-0.707399964,9.753799438,,363,1.215199977,-0.305399984,10.41459942
1.68301E+18,7.296402832,1.065099955,0.2465,-1.692699909,,,0.801599979,-0.660899997,9.751399994,,364,1.866699934,-0.414399996,8.058700085
1.68301E+18,7.316402832,1.522499919,0.0039,-2.769099951,,,0.836999953,-0.629199982,9.750499725,,365,2.359499872,-0.625299982,6.981399775
1.68301E+18,7.336399658,1.173300028,-0.32189998,-1.355999947,,,0.783399999,-0.618900001,9.755599976,,366,1.956700027,-0.940799981,8.399600029
1.68301E+18,7.356399658,0.265899986,-0.587199986,0.629499972,,,0.682099998,-0.612800002,9.763599396,,367,0.947999984,-1.199999988,10.39309937
1.68301E+18,7.376401123,0.023899999,-0.514899969,1.719900012,,,0.581900001,-0.602899969,9.770699501,,368,0.605799999,-1.117799938,11.49059951
1.68301E+18,7.396399658,0.888999999,-0.328599989,1.791199923,,,0.562099993,-0.584500015,9.772999763,,369,1.451099992,-0.913100004,11.56419969
1.68301E+18,7.416399658,2.271899939,-0.513799965,0.906299949,,,0.609299958,-0.543599963,9.772500038,,370,2.881199896,-1.057399929,10.67879999
1.68301E+18,7.436399658,3.29369998,-0.731099963,-0.103199996,,,0.662199974,-0.506200016,9.771100044,,371,3.955899954,-1.237299979,9.667900048
1.68301E+18,7.456399658,3.417299986,-0.984299958,-0.582300007,,,0.700199962,-0.484399974,9.769599915,,372,4.117499948,-1.468699932,9.187299907
1.68301E+18,7.476399658,2.692800045,-1.172799945,-0.914199948,,,0.71239996,-0.471599996,9.769299507,,373,3.405200005,-1.644399941,8.855099559
1.68301E+18,7.496399658,1.474399924,-1.146399975,-1.188499928,,,0.698799968,-0.470499992,9.770299911,,374,2.173199892,-1.616899967,8.581799984
1.68301E+18,7.516399658,0.409199983,-1.049399972,-1.003199935,,,0.675399959,-0.481099993,9.771499634,,375,1.084599942,-1.530499965,8.768299699
1.68301E+18,7.536399658,0.118899994,-0.675999999,-0.602299988,,,0.651899993,-0.49969998,9.772099495,,376,0.770799987,-1.175699979,9.169799507
1.68301E+18,7.556399658,0.397399992,-0.265199989,-0.112599999,,,0.633599997,-0.515500009,9.772500038,,377,1.030999988,-0.780699998,9.659900039
1.68301E+18,7.576399658,0.945199966,-0.033599999,-0.0149,,,0.61619997,-0.516799986,9.773599625,,378,1.561399937,-0.550399985,9.758699625
1.68301E+18,7.596399658,1.403899908,0.0264,-0.123799995,,,0.605099976,-0.505499959,9.774799347,,379,2.008999884,-0.479099959,9.650999352
1.68301E+18,7.616399658,1.718999982,-0.0337,-0.380099982,,,0.60649997,-0.487199992,9.775699615,,380,2.325499952,-0.520899992,9.395599633
1.68301E+18,7.636399658,1.707700014,-0.0031,-0.60649997,,,0.617500007,-0.471199989,9.775799751,,381,2.325200021,-0.474299989,9.169299781
1.68301E+18,7.656399658,1.529999971,-0.0484,-0.704599977,,,0.631799996,-0.454599977,9.775699615,,382,2.161799967,-0.502999976,9.071099639
1.68301E+18,7.676399658,1.152899981,0.0526,-0.792800009,,,0.641200006,-0.436999977,9.775799751,,383,1.794099987,-0.384399977,8.982999742
1.68301E+18,7.696399658,0.810099959,0.15259999,-0.930199981,,,0.649199963,-0.4199,9.776100159,,384,1.459299922,-0.26730001,8.845900178
1.68301E+18,7.716399658,0.586399972,0.223799989,-0.81279999,,,0.650200009,-0.404599994,9.776599884,,385,1.236599982,-0.180800006,8.963799894
1.68301E+18,7.736399658,0.389200002,0.26729998,-0.538800001,,,0.648899972,-0.391499996,9.777299881,,386,1.038099974,-0.124200016,9.23849988
1.68301E+18,7.756399658,0.400299996,0.332699984,-0.323699981,,,0.644499958,-0.376800001,9.778100014,,387,1.044799954,-0.044100016,9.454400033
1.68301E+18,7.776399658,0.483199984,0.229699999,-0.079399996,,,0.636999965,-0.363599986,9.779099464,,388,1.120199949,-0.133899987,9.699699469
1.68301E+18,7.796399658,0.755400002,0.196899995,0.429499984,,,0.626999974,-0.357499987,9.779999733,,389,1.382399976,-0.160599992,10.20949972
1.68301E+18,7.816399658,0.824299991,0.298700005,0.987599969,,,0.613999963,-0.351799995,9.781000137,,390,1.438299954,-0.05309999,10.76860011
1.68301E+18,7.836399658,0.739199996,0.3125,1.221899986,,,0.599999964,-0.330899984,9.782599449,,391,1.33919996,-0.018399984,11.00449944
1.68301E+18,7.856399658,0.51789999,0.125,1.210500002,,,0.593899965,-0.287200004,9.784399986,,392,1.111799955,-0.162200004,10.99489999
1.68301E+18,7.876399658,0.504400015,-0.173599988,0.845899999,,,0.600399971,-0.229399994,9.785499573,,393,1.104799986,-0.402999982,10.63139957
1.68301E+18,7.896399658,0.62529999,-0.682500005,0.942900002,,,0.611699998,-0.1787,9.785900116,,394,1.236999989,-0.861200005,10.72880012
1.68301E+18,7.916399658,0.986699998,-1.047099948,1.579899907,,,0.615099967,-0.148000002,9.78619957,,395,1.601799965,-1.19509995,11.36609948
1.68301E+18,7.936399658,1.385299921,-0.940499961,1.6875,,,0.622900009,-0.129500002,9.785900116,,396,2.00819993,-1.069999963,11.47340012
1.68301E+18,7.956399658,1.593299985,-0.958899975,1.413200021,,,0.630899966,-0.107799999,9.785699844,,397,2.224199951,-1.066699974,11.19889987
1.68301E+18,7.976399658,1.840299964,-1.029699922,1.00150001,,,0.643000007,-0.083700001,9.785099983,,398,2.483299971,-1.113399923,10.78659999
1.68301E+18,7.996399658,2.151799917,-1.249899983,0.364600003,,,0.672800004,-0.060999997,9.783299446,,399,2.824599922,-1.31089998,10.14789945
1.68301E+18,8.016399658,2.171000004,-1.32159996,-0.310099989,,,0.715499997,-0.052299999,9.78030014,,400,2.886500001,-1.373899959,9.470200151
1.68301E+18,8.036399658,1.971399903,-1.340199947,-0.964100003,,,0.756199956,-0.056899998,9.777199745,,401,2.727599859,-1.397099946,8.813099742
1.68301E+18,8.056399658,1.675799966,-1.55129993,-1.118000031,,,0.778799951,-0.071199998,9.775400162,,402,2.454599917,-1.622499928,8.657400131
1.68301E+18,8.076399658,1.574699998,-1.546800017,-0.890499949,,,0.785600007,-0.107999995,9.774499893,,403,2.360300004,-1.654800013,8.883999944
1.68301E+18,8.096399658,1.666000009,-1.362900019,-0.379700005,,,0.786799967,-0.166299999,9.773599625,,404,2.452799976,-1.529200017,9.39389962
1.68301E+18,8.116399658,1.507799983,-1.147699952,0.150700003,,,0.788399994,-0.2289,9.772199631,,405,2.296199977,-1.376599953,9.922899634
1.68301E+18,8.136399658,1.290499926,-0.937999964,0.259900004,,,0.794799984,-0.284700006,9.770199776,,406,2.085299909,-1.22269997,10.03009978
1.68301E+18,8.156399658,1.107599974,-0.852799952,0.281499982,,,0.807699978,-0.332899988,9.76760006,,407,1.915299952,-1.18569994,10.04910004
1.68301E+18,8.176399658,1.173200011,-0.735899985,0.225299999,,,0.825699985,-0.376800001,9.764499664,,408,1.998899996,-1.112699986,9.989799663
1.68301E+18,8.196399658,1.30219996,-0.5449,-0.0559,,,0.850999951,-0.411799997,9.760899544,,409,2.153199911,-0.956699997,9.704999544
1.68301E+18,8.216402832,1.424099922,-0.431499988,-0.513199985,,,0.883699954,-0.440200001,9.756799698,,410,2.307799876,-0.871699989,9.243599713
1.68301E+18,8.236401123,1.352199912,-0.305000007,-1.058300018,,,0.925599992,-0.467799991,9.751599312,,411,2.277799904,-0.772799999,8.693299294
1.68301E+18,8.256399658,1.32980001,-0.247999996,-1.455199957,,,0.970499992,-0.496199995,9.745800018,,412,2.300300002,-0.744199991,8.290600061
1.68301E+18,8.276399658,1.353500009,-0.101899996,-1.478799939,,,1.003099918,-0.532599986,9.740599632,,413,2.356599927,-0.634499982,8.261799693
1.68301E+18,8.296401123,1.203299999,0.061899997,-1.032299995,,,1.019799948,-0.576799989,9.736399651,,414,2.223099947,-0.514899991,8.704099655
1.68301E+18,8.316399658,0.813899994,0.331599981,-0.361200005,,,1.023000002,-0.622900009,9.733200073,,415,1.836899996,-0.291300029,9.372000068
1.68301E+18,8.336399658,0.477399975,0.632699966,0.151799992,,,1.027400017,-0.657899976,9.730400085,,416,1.504799992,-0.025200009,9.882200077
1.68301E+18,8.356399658,0.384599984,0.961899996,0.282099992,,,1.041100025,-0.672800004,9.727899551,,417,1.425700009,0.289099991,10.00999954
1.68301E+18,8.376402832,0.410099983,1.016000032,0.255099982,,,1.06400001,-0.669699967,9.725699425,,418,1.474099994,0.346300066,9.980799407
1.68301E+18,8.396399658,0.759899974,1.032500029,-0.203400001,,,1.086799979,-0.655799985,9.724100113,,419,1.846699953,0.376700044,9.520700112
1.68301E+18,8.416399658,1.090199947,0.979399979,-0.43719998,,,1.091899991,-0.64230001,9.724399567,,420,2.182099938,0.337099969,9.287199587
1.68301E+18,8.436402832,1.173399925,0.926699996,-0.427699983,,,1.087100029,-0.62409997,9.726099968,,421,2.260499954,0.302600026,9.298399985
1.68301E+18,8.456402832,1.099699974,1.026199937,-0.115599997,,,1.072899938,-0.600300014,9.729199409,,422,2.172599912,0.425899923,9.613599412
1.68301E+18,8.476402832,0.819700003,1.031800032,0.891299963,,,1.047600031,-0.567200005,9.734000206,,423,1.867300034,0.464600027,10.62530017
1.68301E+18,8.496399658,0.580199957,0.969199955,1.43569994,,,1.009799957,-0.507499993,9.741299629,,424,1.589999914,0.461699963,11.17699957
1.68301E+18,8.516399658,0.843599975,0.625199974,1.222499967,,,0.967299998,-0.434899986,9.749099731,,425,1.810899973,0.190299988,10.9715997
1.68301E+18,8.536399658,1.219499946,0.317299992,0.734099984,,,0.93659997,-0.361399978,9.755099297,,426,2.156099916,-0.044099987,10.48919928
1.68301E+18,8.556399658,1.671800017,0.0084,0.100499995,,,0.918899953,-0.303000003,9.758699417,,427,2.590699971,-0.294600003,9.859199412
1.68301E+18,8.576399658,1.944599986,-0.245999992,0.086999997,,,0.891299963,-0.263300002,9.762499809,,428,2.835899949,-0.509299994,9.849499807
1.68301E+18,8.596399658,1.825099945,-0.579899967,1.093400002,,,0.82949996,-0.249799997,9.768300056,,429,2.654599905,-0.829699963,10.86170006
1.68301E+18,8.616399658,1.720199943,-0.750400007,2.529199839,,,0.748399973,-0.261599988,9.774499893,,430,2.468599916,-1.011999995,12.30369973
1.68301E+18,8.636399658,1.634499907,-0.336499989,2.807299852,,,0.703700006,-0.27609998,9.777400017,,431,2.338199914,-0.612599969,12.58469987
1.68301E+18,8.656399658,1.463400006,0.27609998,1.068599939,,,0.722199976,-0.252299994,9.77670002,,432,2.185599983,0.023799986,10.84529996
1.68301E+18,8.676399658,1.592000008,0.252299994,-1.009599924,,,0.778599977,-0.193800002,9.77369976,,433,2.370599985,0.058499992,8.764099836
1.68301E+18,8.696399658,1.849499941,-0.404300004,-1.281199932,,,0.814599991,-0.127999991,9.771900177,,434,2.664099932,-0.532299995,8.490700245
1.68301E+18,8.716399658,1.656599998,-1.127099991,-0.278999984,,,0.818300009,-0.075199999,9.772099495,,435,2.474900007,-1.20229999,9.493099511
1.68301E+18,8.736399658,0.966499984,-1.474099994,0.760100007,,,0.793500006,-0.0383,9.774399757,,436,1.75999999,-1.512399994,10.53449976
1.68301E+18,8.756399658,0.324399978,-1.540499926,1.581599951,,,0.76730001,-0.012,9.776499748,,437,1.091699988,-1.552499926,11.3580997
1.68301E+18,8.776399658,0.438899994,-1.272599936,1.363699913,,,0.766900003,0.017999999,9.776499748,,438,1.205799997,-1.254599936,11.14019966
1.68301E+18,8.796401123,1.037400007,-1.194800019,0.67719996,,,0.794099987,0.045699999,9.774299622,,439,1.831499994,-1.149100021,10.45149958
1.68301E+18,8.816399658,1.225899935,-1.114599943,0.051899999,,,0.817900002,0.065899998,9.772199631,,440,2.043799937,-1.048699945,9.82409963
1.68301E+18,8.836399658,1.055099964,-1.03670001,-0.230299994,,,0.822899997,0.081099994,9.771699905,,441,1.877999961,-0.955600016,9.541399911
1.68301E+18,8.856399658,0.530299962,-0.993099988,-0.494599998,,,0.815199971,0.094099998,9.772199631,,442,1.345499933,-0.898999989,9.277599633
1.68301E+18,8.876401123,0.086999997,-0.966899991,-0.602999985,,,0.804699957,0.103999995,9.772999763,,443,0.891699955,-0.862899996,9.169999778
1.68301E+18,8.896399658,0.107299998,-0.800300002,-0.525299966,,,0.800999999,0.1061,9.773200035,,444,0.908299997,-0.694200002,9.247900069
1.68301E+18,8.916399658,0.336400002,-0.625800014,-0.309799999,,,0.795899987,0.105799995,9.77369976,,445,1.132299989,-0.520000018,9.463899761
1.68301E+18,8.936401123,0.400399983,-0.566699982,-0.065099999,,,0.788999975,0.1087,9.774199486,,446,1.189399958,-0.457999982,9.709099486
1.68301E+18,8.956399658,0.515199959,-0.500899971,-0.104800001,,,0.789099991,0.118199997,9.77409935,,447,1.304299951,-0.382699974,9.669299349
1.68301E+18,8.976399658,0.583700001,-0.412399977,-0.379299998,,,0.79339999,0.127899989,9.773599625,,448,1.377099991,-0.284499988,9.394299626
1.68301E+18,8.996399658,0.510800004,-0.343699992,-0.516099989,,,0.795899987,0.139599994,9.773200035,,449,1.306699991,-0.204099998,9.257100046
1.68301E+18,9.016399658,0.272899985,-0.257299989,-0.73149997,,,0.797499955,0.154399991,9.772899628,,450,1.07039994,-0.102899998,9.041399658
1.68301E+18,9.036399658,0.0163,-0.272100002,-0.937099993,,,0.799299955,0.171099991,9.772500038,,451,0.815599956,-0.101000011,8.835400045
1.68301E+18,9.056399658,-0.0638,-0.337799996,-1.132799983,,,0.807999969,0.187899992,9.771399498,,452,0.744199969,-0.149900004,8.638599515
1.68301E+18,9.076399658,-0.0137,-0.364499986,-1.131799936,,,0.817399979,0.194699988,9.770500183,,453,0.803699979,-0.169799998,8.638700247
1.68301E+18,9.096401123,0.114099994,-0.302599996,-0.895500004,,,0.820899963,0.1884,9.770400047,,454,0.934999958,-0.114199996,8.874900043
1.68301E+18,9.116399658,0.1303,-0.149199992,-0.453999996,,,0.819399953,0.173099995,9.770799637,,455,0.949699953,0.023900002,9.316799641
1.68301E+18,9.136399658,0.112199999,0.170099989,0.065200001,,,0.821799994,0.157199994,9.770799637,,456,0.933999993,0.327299982,9.835999638
1.68301E+18,9.156399658,0.188199997,0.470299989,0.53579998,,,0.834800005,0.15609999,9.769800186,,457,1.023000002,0.626399979,10.30560017
1.68301E+18,9.176399658,0.214399993,0.667599976,0.82129997,,,0.852799952,0.176899999,9.767799377,,458,1.067199945,0.844499975,10.58909935
1.68301E+18,9.196399658,0.20629999,0.587899983,1.058599949,,,0.866299987,0.212099999,9.765999794,,459,1.072599977,0.799999982,10.82459974
1.68301E+18,9.216399658,0.133900002,0.5625,1.325299978,,,0.884399951,0.247899994,9.763500214,,460,1.018299952,0.810399994,11.08880019
1.68301E+18,9.236401123,0.233399987,0.154100001,2.063199997,,,0.9005,0.282000005,9.761099815,,461,1.133899987,0.436100006,11.82429981
1.68301E+18,9.256399658,0.374300003,-0.262400001,3.105099916,,,0.914399981,0.301699996,9.759200096,,462,1.288699985,0.039299995,12.86430001
1.68301E+18,9.276399658,0.527099967,-0.40959999,3.901399851,,,0.942499995,0.305000007,9.756400108,,463,1.469599962,-0.104599983,13.65779996
1.68301E+18,9.296399658,0.518599987,-0.59920001,4.149300098,,,0.980399966,0.307199985,9.752599716,,464,1.498999953,-0.292000026,13.90189981
1.68301E+18,9.316399658,0.686699986,-0.807299972,3.92750001,,,1.00999999,0.302399993,9.749799728,,465,1.696699977,-0.504899979,13.67729974
1.68301E+18,9.336399658,1.176800013,-0.939799964,3.832399845,,,1.031700015,0.281100005,9.748099327,,466,2.208500028,-0.65869996,13.58049917
1.68301E+18,9.356399658,1.292400002,-0.683200002,3.539799929,,,1.060500026,0.253499985,9.745800018,,467,2.352900028,-0.429700017,13.28559995
1.68301E+18,9.376401123,0.655499995,-0.380899996,2.129999876,,,1.110599995,0.243000001,9.740499496,,468,1.766099989,-0.137899995,11.87049937
1.68301E+18,9.396399658,-0.0515,-0.439099997,0.301400006,,,1.169499993,0.24939999,9.733399391,,469,1.117999993,-0.189700007,10.0347994
1.68301E+18,9.416399658,-0.071199998,-0.886799991,-0.838799953,,,1.216699958,0.256799996,9.727399826,,470,1.14549996,-0.629999995,8.888599873
1.68301E+18,9.436401123,0.401199996,-1.36500001,-1.450599909,,,1.240999937,0.243499994,9.724699974,,471,1.642199934,-1.121500015,8.274100065
1.68301E+18,9.456399658,0.837899983,-1.341799974,-1.555799961,,,1.23360002,0.1963,9.726699829,,472,2.071500003,-1.145499974,8.170899868
1.68301E+18,9.476399658,0.913899958,-0.961199999,-0.881099999,,,1.196699977,0.132399991,9.73239994,,473,2.110599935,-0.828800008,8.851299942
1.68301E+18,9.496399658,0.774399996,-0.603100002,-0.34739998,,,1.167199969,0.076399997,9.736599922,,474,1.941599965,-0.526700005,9.389199942
1.68301E+18,9.516399658,0.617500007,-0.331399977,0.0111,,,1.16079998,0.0405,9.737599373,,475,1.778299987,-0.290899977,9.748699373
1.68301E+18,9.536399658,0.417899996,-0.216999993,-0.146699995,,,1.16929996,0.0341,9.736599922,,476,1.587199956,-0.182899993,9.589899927
1.68301E+18,9.556399658,0.232999995,-0.377299994,-0.498699993,,,1.178599954,0.052699998,9.7354002,,477,1.411599949,-0.324599996,9.236700207
1.68301E+18,9.576399658,0.243299991,-0.641099989,-1.134899974,,,1.194599986,0.0854,9.733200073,,478,1.437899977,-0.555699989,8.598300099
1.68301E+18,9.596399658,0.374300003,-0.938499987,-1.81919992,,,1.215600014,0.119099997,9.730199814,,479,1.589900017,-0.81939999,7.910999894
1.68301E+18,9.616399658,0.57889998,-1.099699974,-2.502699852,,,1.235599995,0.143099993,9.727399826,,480,1.814499974,-0.956599981,7.224699974
1.68301E+18,9.636399658,0.657000005,-1.143399954,-2.764699936,,,1.248399973,0.14729999,9.725699425,,481,1.905399978,-0.996099964,6.960999489
1.68301E+18,9.656399658,0.604999959,-1.000499964,-2.419699907,,,1.247900009,0.132499993,9.725999832,,482,1.852899969,-0.867999971,7.306299925
1.68301E+18,9.676399658,0.31129998,-0.701299965,-1.80219996,,,1.236999989,0.107799999,9.72769928,,483,1.548299968,-0.593499966,7.92549932
1.68301E+18,9.696399658,0.086799994,-0.372500002,-1.186100006,,,1.223599911,0.085099995,9.729599953,,484,1.310399905,-0.287400007,8.543499947
1.68301E+18,9.716399658,0.060999997,-0.153699994,-0.785899997,,,1.208299994,0.071800001,9.731599808,,485,1.269299991,-0.081899993,8.945699811
1.68301E+18,9.736401123,0.037099998,-0.091399997,-0.415299982,,,1.195500016,0.068899997,9.733200073,,486,1.232600015,-0.022500001,9.317900091
1.68301E+18,9.756399658,0.059599999,-0.049199998,-0.308999985,,,1.191999912,0.0735,9.733599663,,487,1.251599912,0.024300002,9.424599677
1.68301E+18,9.776399658,0.219999999,0.034299999,-0.309399992,,,1.192799926,0.083099999,9.733399391,,488,1.412799925,0.117399998,9.423999399
1.68301E+18,9.796401123,0.385999978,0.063900001,-0.368099988,,,1.193499923,0.096699998,9.733200073,,489,1.5794999,0.160599999,9.365100086
1.68301E+18,9.816399658,0.404899985,0.128700003,-0.318800002,,,1.1954,0.114299998,9.73279953,,490,1.600299984,0.243000001,9.413999528
1.68301E+18,9.836399658,0.461799979,0.071899995,-0.132100001,,,1.199199915,0.137899995,9.731999397,,491,1.660999894,0.20979999,9.599899396
1.68301E+18,9.856399658,0.438499987,0.107199997,0.054899998,,,1.20449996,0.163900003,9.730999947,,492,1.642999947,0.2711,9.785899945
1.68301E+18,9.876401123,0.482199997,-0.007,0.428599983,,,1.211599946,0.194699988,9.729499817,,493,1.693799943,0.187699988,10.1580998
1.68301E+18,9.896399658,0.563399971,-0.194699988,0.861599982,,,1.225099921,0.22739999,9.727099419,,494,1.788499892,0.032700002,10.5886994
1.68301E+18,9.916399658,0.853799999,-0.286199987,1.726999998,,,1.237699986,0.250200003,9.724999428,,495,2.091499984,-0.035999984,11.45199943
1.68301E+18,9.936402832,0.988299966,-0.152199998,2.54309988,,,1.249599934,0.26879999,9.722899437,,496,2.237899899,0.116599992,12.26599932
1.68301E+18,9.956399658,0.760699987,-0.023599999,2.966799974,,,1.259599924,0.288899988,9.721099854,,497,2.020299911,0.265299989,12.68789983
1.68301E+18,9.976399658,0.32889998,-0.131999999,3.145200014,,,1.272199988,0.304100007,9.718999863,,498,1.601099968,0.172100008,12.86419988
1.68301E+18,9.996399658,0.071199998,-0.372799993,3.529699802,,,1.301999927,0.31219998,9.714799881,,499,1.373199925,-0.060600013,13.24449968
1.68301E+18,10.01640112,0.159099996,-0.8222,4.543999672,,,1.314299941,0.297199994,9.713600159,,500,1.473399937,-0.525000006,14.25759983
1.68301E+18,10.03639966,0.323300004,-1.081799984,5.417999744,,,1.315500021,0.262099981,9.714399338,,501,1.638800025,-0.819700003,15.13239908
1.68301E+18,10.05639966,0.508399963,-0.81129998,4.387399673,,,1.330899954,0.239299998,9.712900162,,502,1.839299917,-0.571999982,14.10029984
1.68301E+18,10.07640283,0.434199989,-0.474599987,2.192299843,,,1.36589992,0.225899994,9.708399773,,503,1.800099909,-0.248699993,11.90069962
1.68301E+18,10.09640112,0.408999979,-0.353399992,0.460999995,,,1.398199916,0.226199999,9.703800201,,504,1.807199895,-0.127199993,10.1648002
1.68301E+18,10.11639966,-0.0252,-0.48119998,-0.583599985,,,1.401499987,0.239799991,9.703000069,,505,1.376299987,-0.241399989,9.119400084
1.68301E+18,10.13639966,-0.460099995,-0.690899968,-0.916199982,,,1.378399968,0.261000007,9.705699921,,506,0.918299973,-0.429899961,8.789499938
1.68301E+18,10.15639966,-0.760599971,-0.898399949,-0.958199978,,,1.349900007,0.280000001,9.709199905,,507,0.589300036,-0.618399948,8.750999928
1.68301E+18,10.17639966,-0.51639998,-0.838999987,-0.88319999,,,1.330500007,0.284199983,9.711799622,,508,0.814100027,-0.554800004,8.828599632
1.68301E+18,10.19639966,-0.124199994,-0.666700006,-0.640599966,,,1.318199992,0.288199991,9.713299751,,509,1.193999998,-0.378500015,9.072699785
1.68301E+18,10.21639966,0.1822,-0.601999998,-0.799099982,,,1.304099917,0.304499984,9.714699745,,510,1.486299917,-0.297500014,8.915599763
1.68301E+18,10.23639966,0.264799982,-0.677100003,-1.21239996,,,1.287299991,0.325199991,9.716300011,,511,1.552099973,-0.351900011,8.503900051
1.68301E+18,10.25639966,0.183599994,-0.638999999,-1.635599971,,,1.275699973,0.344399989,9.717199326,,512,1.459299967,-0.29460001,8.081599355
1.68301E+18,10.27639966,-0.226399988,-0.569899976,-2.244499922,,,1.27639997,0.359899998,9.716499329,,513,1.049999982,-0.209999979,7.471999407
1.68301E+18,10.29640112,-0.736999989,-0.457899988,-2.940099955,,,1.275399923,0.369499981,9.716300011,,514,0.538399935,-0.088400006,6.776200056
1.68301E+18,10.31639966,-1.118399978,-0.359699994,-3.351799965,,,1.268700004,0.374799997,9.717000008,,515,0.150300026,0.015100002,6.365200043
1.68301E+18,10.33639966,-1.288299918,-0.296399981,-3.558399916,,,1.257399917,0.375799984,9.718400002,,516,-0.030900002,0.079400003,6.160000086
1.68301E+18,10.35639966,-1.247599959,-0.277700007,-3.353899956,,,1.235800028,0.361000001,9.721699715,,517,-0.011799932,0.083299994,6.367799759
1.68301E+18,10.37640112,-0.912099957,-0.115800001,-2.827600002,,,1.203400016,0.333900005,9.726799965,,518,0.291300058,0.218100004,6.899199963
1.68301E+18,10.39639966,-0.516900003,0.028899999,-1.979499936,,,1.160899997,0.301499993,9.732999802,,519,0.643999994,0.330399992,7.753499866
1.68301E+18,10.41639966,-0.258699983,0.188799992,-1.073699951,,,1.122599959,0.272100002,9.73829937,,520,0.863899976,0.460899994,8.664599419
1.68301E+18,10.43640112,-0.122299999,0.345599979,-0.539699972,,,1.095499992,0.249499992,9.741999626,,521,0.973199993,0.595099971,9.202299654
1.68301E+18,10.45639966,-0.016799999,0.427100003,-0.131499991,,,1.081399918,0.235199988,9.743899345,,522,1.064599918,0.662299991,9.612399355
1.68301E+18,10.47639966,-0.012499999,0.421700001,0.062600002,,,1.073599935,0.230799988,9.74489975,,523,1.061099935,0.652499989,9.807499751
1.68301E+18,10.49639966,-0.0145,0.3477,0.22829999,,,1.067499995,0.228199989,9.745699883,,524,1.052999996,0.575899988,9.973999873
1.68301E+18,10.51639966,0.128899992,0.183599994,0.570800006,,,1.06099999,0.219699994,9.746600151,,525,1.189899981,0.403299987,10.31740016
1.68301E+18,10.53639966,0.194099993,0.172399998,1.177999973,,,1.055899978,0.199999988,9.747499466,,526,1.24999997,0.372399986,10.92549944
1.68301E+18,10.55639966,0.218899995,0.447099984,1.147599936,,,1.065599918,0.177499995,9.746899605,,527,1.284499913,0.624599978,10.89449954
1.68301E+18,10.57639966,0.052299999,0.724599957,0.608799994,,,1.084599972,0.166099995,9.744999886,,528,1.13689997,0.890699953,10.35379988
1.68301E+18,10.59640112,-0.2412,0.814499974,0.336099982,,,1.104099989,0.16139999,9.742899895,,529,0.862899989,0.975899965,10.07899988
1.68301E+18,10.61639966,-0.535299957,0.868200004,0.455899984,,,1.118000031,0.159799993,9.741299629,,530,0.582700074,1.027999997,10.19719961
1.68301E+18,10.63639966,-0.863099992,0.918799996,0.682999969,,,1.123600006,0.167499989,9.740599632,,531,0.260500014,1.086299986,10.4235996
1.68301E+18,10.65639966,-0.996099949,0.616899967,1.458499908,,,1.110700011,0.180399999,9.741799355,,532,0.114600062,0.797299966,11.20029926
1.68301E+18,10.67639966,-0.7773,0.300099999,2.849799871,,,1.086699963,0.183799997,9.74450016,,533,0.309399962,0.483899996,12.59430003
1.68301E+18,10.69639966,-0.390499979,0.218199998,3.661099911,,,1.082399964,0.179299995,9.744999886,,534,0.691899985,0.397499993,13.4060998
1.68301E+18,10.71639966,0.329699993,0.104899995,3.738999844,,,1.0898,0.182399988,9.744099617,,535,1.419499993,0.287299983,13.48309946
1.68301E+18,10.73639966,1.185199976,-0.182399988,3.985099792,,,1.103600025,0.180500001,9.742599487,,536,2.288800001,-0.001899987,13.72769928
1.68301E+18,10.75639966,1.789199948,-0.474699974,4.329800129,,,1.117200017,0.165999994,9.741299629,,537,2.906399965,-0.30869998,14.07109976
1.68301E+18,10.77639966,1.736400008,-0.391599983,4.272299767,,,1.133000016,0.13849999,9.739899635,,538,2.869400024,-0.253099993,14.0121994
1.68301E+18,10.79640112,1.112599969,0.106599994,3.243999958,,,1.161399961,0.122899994,9.736800194,,539,2.273999929,0.229499988,12.98080015
1.68301E+18,10.81640283,0.142800003,0.445799977,1.207299948,,,1.209599972,0.1373,9.730699539,,540,1.352399975,0.583099976,10.93799949
1.68301E+18,10.83640283,-0.081900001,0.254900008,-0.973399997,,,1.275300026,0.171499997,9.72179985,,541,1.193400025,0.426400006,8.748399854
1.68301E+18,10.85639966,0.156399995,-0.220499992,-1.896099925,,,1.326599956,0.193800002,9.714499474,,542,1.482999951,-0.02669999,7.818399549
1.68301E+18,10.87640112,0.301200002,-0.703700006,-1.486699939,,,1.345700026,0.199900001,9.711799622,,543,1.646900028,-0.503800005,8.225099683
1.68301E+18,10.89639966,-0.0218,-0.827600002,-1.179999948,,,1.324800014,0.185499996,9.714900017,,544,1.303000014,-0.642100006,8.534900069
1.68301E+18,10.91639966,-0.471599996,-0.59740001,-0.575100005,,,1.26609993,0.1505,9.72329998,,545,0.794499934,-0.44690001,9.148199975
1.68301E+18,10.93639966,-0.618900001,-0.45449999,0.279300004,,,1.20630002,0.114799999,9.731399536,,546,0.587400019,-0.339699991,10.01069954
1.68301E+18,10.95639966,-0.362899989,-0.340399981,0.359499991,,,1.172399998,0.098699994,9.735799789,,547,0.809500009,-0.241699986,10.09529978
1.68301E+18,10.97639966,0.219999999,-0.196799994,-0.213499993,,,1.170899987,0.098699994,9.735899925,,548,1.390899986,-0.098099999,9.522399932
1.68301E+18,10.99639966,0.682500005,-0.196799994,-1.017799973,,,1.160699964,0.105099998,9.737099648,,549,1.843199968,-0.091699995,8.719299674
1.68301E+18,11.01639966,0.123899996,-0.654299974,-1.352399945,,,1.160399914,0.1175,9.736999512,,550,1.28429991,-0.536799975,8.384599566
1.68301E+18,11.03639966,0.281100005,-0.254799992,-2.29369998,,,1.168599963,0.136199996,9.735799789,,551,1.449699968,-0.118599996,7.44209981
1.68301E+18,11.05639966,0.0081,-0.283299983,-2.782899857,,,1.186999917,0.142800003,9.733399391,,552,1.195099917,-0.140499979,6.950499535
1.68301E+18,11.07639966,-0.216099992,-0.211499989,-2.809999943,,,1.209499955,0.140199989,9.730699539,,553,0.993399963,-0.0713,6.920699596
1.68301E+18,11.09640112,-0.415199995,-0.0127,-2.66989994,,,1.236899972,0.13319999,9.727399826,,554,0.821699977,0.12049999,7.057499886
1.68301E+18,11.11639966,-0.452299982,0.111899994,-2.235100031,,,1.257799983,0.12969999,9.724699974,,555,0.805500001,0.241599984,7.489599943
1.68301E+18,11.13639966,-0.414399981,0.203599989,-1.761699915,,,1.260100007,0.135600001,9.724399567,,556,0.845700026,0.33919999,7.962699652
1.68301E+18,11.15639966,-0.1127,0.305599988,-1.14349997,,,1.229200006,0.14289999,9.728199959,,557,1.116500005,0.448499978,8.584699988
1.68301E+18,11.17639966,-0.356399983,-0.0154,-0.088299997,,,1.199299932,0.145799994,9.731900215,,558,0.842899948,0.130399995,9.643600218
1.68301E+18,11.19639966,0.114699997,0.236499995,0.457099974,,,1.174799919,0.156199992,9.734700203,,559,1.289499916,0.392699987,10.19180018
1.68301E+18,11.21639966,0.207800001,0.147699997,0.856399953,,,1.171000004,0.170900002,9.734899521,,560,1.378800005,0.318599999,10.59129947
1.68301E+18,11.23639966,0.613699973,0.172299996,1.013100028,,,1.175300002,0.188999996,9.734099388,,561,1.788999975,0.361299992,10.74719942
1.68301E+18,11.25639966,0.844799995,0.124699995,1.239499927,,,1.185799956,0.212799996,9.732299805,,562,2.030599952,0.337499991,10.97179973
1.68301E+18,11.27639966,0.981299996,0.120499998,1.300099969,,,1.193599939,0.243099988,9.730699539,,563,2.174899936,0.363599986,11.03079951
1.68301E+18,11.29639966,1.06190002,0.139300004,1.203699946,,,1.193799973,0.277399987,9.729700089,,564,2.255699992,0.416699991,10.93340003
1.68301E+18,11.31639966,0.816399992,-0.042099997,1.233999968,,,1.187299967,0.310699999,9.729499817,,565,2.003699958,0.268600002,10.96349978
1.68301E+18,11.33639966,0.567999959,-0.075300001,1.39109993,,,1.178799987,0.337799996,9.729599953,,566,1.746799946,0.262499996,11.12069988
1.68301E+18,11.35639966,0.566699982,-0.269099981,2.087300062,,,1.161299944,0.34799999,9.731399536,,567,1.727999926,0.078900009,11.8186996
1.68301E+18,11.37639966,0.554799974,-0.750099957,3.527099848,,,1.122200012,0.334899992,9.736399651,,568,1.676999986,-0.415199965,13.2634995
1.68301E+18,11.39639966,0.505599976,-0.972299993,4.865600109,,,1.068599939,0.307699978,9.743299484,,569,1.574199915,-0.664600015,14.60889959
1.68301E+18,11.41639966,0.01,-1.082399964,4.976299763,,,1.028100014,0.302300006,9.747900009,,570,1.038100014,-0.780099958,14.72419977
1.68301E+18,11.43639966,-0.420100003,-0.733799994,3.383100033,,,1.021799922,0.31309998,9.748199463,,571,0.601699919,-0.420700014,13.1312995
1.68301E+18,11.45639966,0.0372,-0.577899992,1.725499988,,,1.045499921,0.313999981,9.745599747,,572,1.082699921,-0.263900012,11.47109973
1.68301E+18,11.47639966,0.307699978,-0.559199989,0.335500002,,,1.072299957,0.321199983,9.742499352,,573,1.379999936,-0.238000005,10.07799935
1.68301E+18,11.49639966,0.104399994,-0.458499998,-1.04400003,,,1.08949995,0.3292,9.740300179,,574,1.193899944,-0.129299998,8.696300149
1.68301E+18,11.51640112,-0.167699993,-0.436999977,-1.747900009,,,1.086599946,0.335299999,9.740399361,,575,0.918899953,-0.101699978,7.992499352
1.68301E+18,11.53639966,-0.40989998,-0.4824,-1.689199924,,,1.069100022,0.328700006,9.742599487,,576,0.659200042,-0.153699994,8.053399563
1.68301E+18,11.55639966,-0.421900004,-0.436499983,-0.94599998,,,1.051499963,0.315699995,9.74489975,,577,0.629599959,-0.120799989,8.79889977
1.68301E+18,11.57639966,-0.512099981,-0.345099986,-0.458099991,,,1.035300016,0.315799981,9.746699333,,578,0.523200035,-0.029300004,9.288599342
1.68301E+18,11.59640112,-0.5352,-0.315799981,-0.312700003,,,1.021399975,0.329600006,9.747699738,,579,0.486199975,0.013800025,9.434999734
1.68301E+18,11.61639966,-0.354599983,-0.329600006,-0.294099987,,,1.018100023,0.355100006,9.747099876,,580,0.663500041,0.0255,9.45299989
1.68301E+18,11.63639966,-0.145300001,-0.355100006,-0.528899968,,,1.030900002,0.387199998,9.744599342,,581,0.885600001,0.032099992,9.215699375
1.68301E+18,11.65639966,-0.060099997,-0.289199978,-0.869499981,,,1.049499989,0.421199977,9.741199493,,582,0.989399992,0.131999999,8.871699512
1.68301E+18,11.67639966,-0.157099992,-0.244599998,-1.15049994,,,1.065099955,0.4551,9.73789978,,583,0.907999963,0.210500002,8.58739984
1.68301E+18,11.69639966,-0.33949998,-0.151099995,-1.480700016,,,1.077000022,0.491099983,9.734899521,,584,0.737500042,0.339999989,8.254199505
1.68301E+18,11.71639966,-0.537599981,-0.088999994,-1.830699921,,,1.088799953,0.523499966,9.731900215,,585,0.551199973,0.434499972,7.901200294
1.68301E+18,11.73640112,-0.637699962,-0.033199999,-2.112099886,,,1.099900007,0.550899982,9.729100227,,586,0.462200046,0.517699983,7.617000341
1.68301E+18,11.75639966,-0.648799956,0.057,-2.256500006,,,1.10589993,0.569499969,9.727399826,,587,0.457099974,0.62649997,7.47089982
1.68301E+18,11.77639966,-0.61559999,0.15609999,-2.205699921,,,1.104099989,0.578099966,9.727099419,,588,0.488499999,0.734199956,7.521399498
1.68301E+18,11.79640112,-0.505899966,0.167099997,-1.871899962,,,1.09739995,0.575299978,9.727999687,,589,0.591499984,0.742399976,7.856099725
1.68301E+18,11.81639966,-0.518799961,0.218999997,-1.304099917,,,1.083199978,0.562999964,9.73029995,,590,0.564400017,0.781999961,8.426200032
1.68301E+18,11.83639966,-0.465299994,0.358699977,-0.708199978,,,1.069299936,0.540499985,9.733099937,,591,0.603999943,0.899199963,9.02489996
1.68301E+18,11.85639966,-0.363199979,0.420399994,-0.171599999,,,1.062699914,0.514299989,9.735300064,,592,0.699499935,0.934699982,9.563700065
1.68301E+18,11.87640112,-0.131099999,0.515299976,0.139899999,,,1.061999917,0.493199974,9.736399651,,593,0.930899918,1.00849995,9.876299649
1.68301E+18,11.89639966,0.075499997,0.62470001,0.0995,,,1.066499949,0.477899998,9.736700058,,594,1.141999945,1.102600008,9.836200058
1.68301E+18,11.91639966,0.208299994,0.620299995,0.069799997,,,1.072899938,0.466600001,9.736599922,,595,1.281199932,1.086899996,9.806399919
1.68301E+18,11.93639966,0.182300001,0.562999964,0.148399994,,,1.077000022,0.455499977,9.736599922,,596,1.259300023,1.018499941,9.884999916
1.68301E+18,11.95639966,0.158500001,0.534799993,0.472000003,,,1.075600028,0.446399987,9.737199783,,597,1.234100029,0.98119998,10.20919979
1.68301E+18,11.97639966,-0.0263,0.622500002,0.942099988,,,1.071699977,0.445899993,9.737699509,,598,1.045399977,1.068399996,10.6797995
1.68301E+18,11.99640283,-0.198899999,0.681699991,1.216300011,,,1.065500021,0.457299978,9.737799644,,599,0.866600022,1.138999969,10.95409966
1.68301E+18,12.01639966,-0.594799995,0.709599972,1.422099948,,,1.056800008,0.480099976,9.737699509,,600,0.462000012,1.189699948,11.15979946
1.68301E+18,12.03640283,-0.684099972,0.618200004,1.58889997,,,1.064700007,0.508700013,9.735300064,,601,0.380600035,1.126900017,11.32420003
1.68301E+18,12.05640283,-0.211599991,0.0208,2.444399834,,,1.084399939,0.522700012,9.73239994,,602,0.872799948,0.543500012,12.17679977
1.68301E+18,12.07639966,0.35709998,-0.336400002,2.98669982,,,1.109399915,0.519599974,9.729800224,,603,1.466499895,0.183199972,12.71650004
1.68301E+18,12.09639966,0.508599997,-0.519599974,2.979499817,,,1.117499948,0.507799983,9.729499817,,604,1.626099944,-0.011799991,12.70899963
1.68301E+18,12.11639966,0.147499993,-0.694099963,2.744499922,,,1.114300013,0.477499992,9.731399536,,605,1.261800006,-0.216599971,12.47589946
1.68301E+18,12.13639966,0.062399998,-0.644199967,2.53670001,,,1.111199975,0.425699979,9.734099388,,606,1.173599973,-0.218499988,12.2707994
1.68301E+18,12.15639966,-0.022599999,-0.710099995,2.435799837,,,1.111500025,0.363899976,9.736599922,,607,1.088900026,-0.346200019,12.17239976
1.68301E+18,12.17639966,-0.0033,0.1655,1.315400004,,,1.134500027,0.326999992,9.735300064,,608,1.131200027,0.492499992,11.05070007
1.68301E+18,12.19639966,-0.143999994,0.114199996,-0.046299998,,,1.164399981,0.317900002,9.731999397,,609,1.020399988,0.432099998,9.6856994
1.68301E+18,12.21639966,0.129999995,-0.043399997,-0.778599977,,,1.180999994,0.314999998,9.730099678,,610,1.31099999,0.271600001,8.951499701
1.68301E+18,12.23640112,0.064300001,-0.501299977,-0.541299999,,,1.175999999,0.294200003,9.731399536,,611,1.2403,-0.207099974,9.190099537
1.68301E+18,12.25639966,-0.195299998,-0.451099992,-0.052199997,,,1.143199921,0.260499984,9.736199379,,612,0.947899923,-0.190600008,9.683999382
1.68301E+18,12.27639966,-0.682299972,-0.44689998,0.5704,,,1.099300027,0.237899989,9.74189949,,613,0.417000055,-0.208999991,10.31229949
1.68301E+18,12.29640112,-0.805099964,-0.237899989,0.398099989,,,1.065199971,0.2368,9.745699883,,614,0.260100007,-0.001099989,10.14379987
1.68301E+18,12.31640112,-0.398299992,-0.275999993,-0.1646,,,1.048499942,0.240099996,9.74739933,,615,0.65019995,-0.035899997,9.58279933
1.68301E+18,12.33639966,0.432199985,-0.367599994,-0.470299989,,,1.038900018,0.241399989,9.748399734,,616,1.471100003,-0.126200005,9.278099746
1.68301E+18,12.35639966,0.922299981,-0.398299992,-0.902799964,,,1.028599977,0.244899988,9.749400139,,617,1.950899959,-0.153400004,8.846600175
1.68301E+18,12.37639966,1.030699968,-0.480199993,-1.48239994,,,1.015900016,0.248999998,9.750699997,,618,2.046599984,-0.231199995,8.268300056
1.68301E+18,12.39639966,0.915899992,-0.435299993,-2.062199831,,,0.999300003,0.244299993,9.75249958,,619,1.915199995,-0.191,7.690299749
1.68301E+18,12.41639966,0.746199965,-0.312999994,-2.132699966,,,0.981700003,0.226199999,9.754699707,,620,1.727899969,-0.086799994,7.621999741
1.68301E+18,12.43639966,0.646099985,-0.236000001,-1.919199944,,,0.965299964,0.204399988,9.756799698,,621,1.611399949,-0.031600013,7.837599754
1.68301E+18,12.45639966,0.5546,-0.1259,-1.735000014,,,0.944099963,0.179499999,9.759399414,,622,1.498699963,0.053599998,8.0243994
1.68301E+18,12.47639966,0.565999985,-0.022599999,-1.296299934,,,0.919699967,0.155900002,9.76210022,,623,1.485699952,0.133300003,8.465800285
1.68301E+18,12.49639966,0.600199997,0.059699997,-0.945899963,,,0.902799964,0.140000001,9.763899803,,624,1.502999961,0.199699998,8.81799984
1.68301E+18,12.51639966,0.675899982,-0.041899998,-0.781099975,,,0.896999955,0.131400004,9.7645998,,625,1.572899938,0.089500006,8.983499825
1.68301E+18,12.53639966,0.926999986,0.407899976,-0.791499972,,,0.901199996,0.1285,9.764200211,,626,1.828199983,0.536399975,8.972700238
1.68301E+18,12.55639966,0.79519999,0.106799997,-0.712700009,,,0.907499969,0.127399996,9.763699532,,627,1.702699959,0.234199993,9.050999522
1.68301E+18,12.57639966,0.769400001,0.147100002,-0.839599967,,,0.913599968,0.122599997,9.763199806,,628,1.682999969,0.269699998,8.923599839
1.68301E+18,12.59639966,0.675000012,0.171499997,-0.456699997,,,0.913199961,0.110199995,9.763400078,,629,1.588199973,0.281699993,9.306700081
1.68301E+18,12.61639966,0.606700003,0.232899994,-0.0155,,,0.914900005,0.103299998,9.763299942,,630,1.521600008,0.336199991,9.747799942
1.68301E+18,12.63639966,0.428499997,0.3477,0.072700001,,,0.914900005,0.0986,9.763299942,,631,1.343400002,0.4463,9.835999943
1.68301E+18,12.65639966,0.379500002,0.362199992,0.464899987,,,0.911300004,0.093399994,9.763699532,,632,1.290800005,0.455599986,10.22859952
1.68301E+18,12.67639966,0.402699977,0.318399996,0.944999993,,,0.905399978,0.090099998,9.764299393,,633,1.308099955,0.408499993,10.70929939
1.68301E+18,12.69639966,0.369299978,0.351099998,1.375999928,,,0.903099954,0.090300001,9.764499664,,634,1.272399932,0.441399999,11.14049959
1.68301E+18,12.71639966,0.2148,0.380299985,1.650299907,,,0.905299962,0.098399997,9.764200211,,635,1.120099962,0.478699982,11.41450012
1.68301E+18,12.73639966,0.094799995,0.205499992,2.190000057,,,0.898399949,0.112799995,9.764699936,,636,0.993199944,0.318299986,11.95469999
1.68301E+18,12.75639966,-0.1237,-0.35799998,3.405499935,,,0.885999978,0.116599999,9.765799522,,637,0.762299977,-0.241399981,13.17129946
1.68301E+18,12.77639966,0.065200001,-0.950100005,4.169399738,,,0.880499959,0.112199999,9.766300201,,638,0.94569996,-0.837900005,13.93569994
1.68301E+18,12.79639966,0.296200007,-1.122300029,4.119800091,,,0.886099994,0.095299996,9.765999794,,639,1.182300001,-1.027000032,13.88579988
1.68301E+18,12.81639966,0.496499985,-0.781799972,3.296299934,,,0.909799993,0.076699995,9.763999939,,640,1.406299978,-0.705099978,13.06029987
1.68301E+18,12.83639966,0.345400006,-0.498399973,2.092099905,,,0.931799948,0.077699997,9.761899948,,641,1.277199954,-0.420699976,11.85399985
1.68301E+18,12.85639966,-0.0099,-0.067900002,0.956599951,,,0.947599947,0.112999998,9.760000229,,642,0.937699948,0.045099996,10.71660018
1.68301E+18,12.87639966,-0.525900006,-0.397399992,-1.100799918,,,0.964699984,0.157499999,9.757800102,,643,0.438799977,-0.239899993,8.657000184
1.68301E+18,12.89639966,-0.474399984,-0.314399987,-1.431899905,,,0.974999964,0.182399988,9.756299973,,644,0.50059998,-0.131999999,8.324400067
1.68301E+18,12.91639966,-0.690599978,-0.927699983,-0.8028,,,0.962300003,0.187999994,9.757499695,,645,0.271700025,-0.73969999,8.954699695
1.68301E+18,12.93639966,-0.579899967,-0.580299973,-0.1175,,,0.933899999,0.173799992,9.760499954,,646,0.354000032,-0.406499982,9.642999955
1.68301E+18,12.95639966,-0.688699961,-0.605199993,0.840399981,,,0.89289999,0.159999996,9.764499664,,647,0.204200029,-0.445199996,10.60489964
1.68301E+18,12.97639966,-0.333900005,-0.473799974,1.159999967,,,0.861199975,0.157600001,9.767399788,,648,0.52729997,-0.316199973,10.92739975
1.68301E+18,12.99639966,-0.0473,-0.451799989,1.137499928,,,0.850099981,0.161799997,9.768300056,,649,0.802799981,-0.289999992,10.90579998
1.68301E+18,13.01639966,0.159899995,-0.348099977,0.724699974,,,0.856899977,0.179399997,9.767399788,,650,1.016799971,-0.16869998,10.49209976
1.68301E+18,13.03639966,0.1237,-0.297099978,-0.176499993,,,0.872999966,0.207299992,9.765500069,,651,0.996699966,-0.089799985,9.589000076
1.68301E+18,13.05639966,-0.108099997,-0.305399984,-0.959099948,,,0.889699996,0.232099995,9.763400078,,652,0.781599998,-0.073299989,8.804300129
1.68301E+18,13.07639966,-0.419,-0.232099995,-1.584599972,,,0.899499953,0.251399994,9.762000084,,653,0.480499953,0.019299999,8.177400112
1.68301E+18,13.09639966,-0.772099972,-0.153399989,-2.152099848,,,0.903499961,0.262800008,9.761300087,,654,0.131399989,0.109400019,7.609200239
1.68301E+18,13.11639966,-0.952600002,-0.056899998,-2.563299894,,,0.902199984,0.263300002,9.761499405,,655,-0.050400019,0.206400003,7.198199511
1.68301E+18,13.13639966,-1.000200033,0.128899992,-2.906599998,,,0.894499958,0.255799979,9.762399673,,656,-0.105700076,0.38469997,6.855799675
1.68301E+18,13.15639966,-0.894499958,0.352200001,-2.985999823,,,0.876699984,0.241299987,9.764299393,,657,-0.017799973,0.593499988,6.77829957
1.68301E+18,13.17639966,-0.788499951,0.503899992,-2.73300004,,,0.849699974,0.227499992,9.76709938,,658,0.061200023,0.731399983,7.03409934
1.68301E+18,13.19639966,-0.653599977,0.547100008,-2.421900034,,,0.816500008,0.221399993,9.769999504,,659,0.162900031,0.7685,7.34809947
1.68301E+18,13.21639966,-0.404599994,0.4551,-2.013000011,,,0.782899976,0.219999999,9.772799492,,660,0.378299981,0.675099999,7.75979948
1.68301E+18,13.23639966,-0.164999992,0.348699987,-1.574499965,,,0.75,0.219799995,9.775400162,,661,0.585000008,0.568499982,8.200900197
1.68301E+18,13.25639966,0.073600002,0.250799984,-1.037699938,,,0.724900007,0.215599999,9.777400017,,662,0.798500009,0.466399983,8.739700079
1.68301E+18,13.27639966,0.255699992,0.215799987,-0.38259998,,,0.709800005,0.20539999,9.778699875,,663,0.965499997,0.421199977,9.396099895
1.68301E+18,13.29639966,0.211899996,0.284799993,0.273000002,,,0.708599985,0.196999997,9.778999329,,664,0.92049998,0.48179999,10.05199933
1.68301E+18,13.31639966,0.016999999,0.420699984,0.566900015,,,0.725899994,0.19749999,9.777699471,,665,0.742899993,0.618199974,10.34459949
1.68301E+18,13.33639966,-0.108099997,0.479099989,0.656499982,,,0.755999982,0.203999996,9.775300026,,666,0.647899985,0.683099985,10.43180001
1.68301E+18,13.35639966,-0.1087,0.521600008,0.776600003,,,0.791999996,0.216399997,9.772199631,,667,0.683299996,0.738000005,10.54879963
1.68301E+18,13.37639966,-0.144799992,0.509199977,0.858099997,,,0.82979995,0.2324,9.768699646,,668,0.684999958,0.741599977,10.62679964
1.68301E+18,13.39639966,-0.153099999,0.375499994,1.155799985,,,0.861599982,0.239899993,9.765699387,,669,0.708499983,0.615399987,10.92149937
1.68301E+18,13.41639966,0.0209,0.289599985,1.688300014,,,0.88349998,0.241599992,9.763699532,,670,0.90439998,0.531199977,11.45199955
1.68301E+18,13.43639966,0.067699999,-0.084699996,2.886799812,,,0.878999949,0.224699989,9.764499664,,671,0.946699947,0.139999993,12.65129948
1.68301E+18,13.45639966,0.189799994,-0.0187,3.846999884,,,0.878199995,0.186399996,9.765399933,,672,1.067999989,0.167699996,13.61239982
1.68301E+18,13.47639966,0.200499997,-0.058899999,4.120699883,,,0.87379998,0.158399999,9.766300201,,673,1.074299976,0.0995,13.88700008
1.68301E+18,13.49639966,0.302899987,-0.138799995,4.021699905,,,0.881199956,0.13759999,9.765999794,,674,1.184099942,-0.001200005,13.7876997
1.68301E+18,13.51639966,0.570100009,-0.461299986,3.865199804,,,0.900299966,0.120699994,9.764399529,,675,1.470399976,-0.340599991,13.62959933
1.68301E+18,13.53639966,0.560699999,-0.55219996,3.337199926,,,0.920099974,0.1039,9.762800217,,676,1.480799973,-0.448299959,13.10000014
1.68301E+18,13.55639966,0.482199997,-0.398099989,2.456199884,,,0.949599981,0.090499997,9.760099411,,677,1.431799978,-0.307599992,12.2162993
1.68301E+18,13.57639966,0.423299998,-0.149299994,1.046700001,,,0.988299966,0.094299994,9.756199837,,678,1.411599964,-0.055,10.80289984
1.68301E+18,13.59639966,0.384499997,-0.094299994,-0.537999988,,,1.035099983,0.114099994,9.751199722,,679,1.41959998,0.0198,9.213199735
1.68301E+18,13.61639966,0.347599983,-0.221900001,-1.690099955,,,1.082099915,0.135199994,9.745800018,,680,1.429699898,-0.086700007,8.055700064
1.68301E+18,13.63639966,0.43779999,-0.615700006,-1.763199925,,,1.093699932,0.138400003,9.744400024,,681,1.531499922,-0.477300003,7.981200099
1.68301E+18,13.65639966,0.298700005,-0.785699964,-1.055699944,,,1.063599944,0.115999997,9.748099327,,682,1.362299949,-0.669699967,8.692399383
1.68301E+18,13.67639966,-0.279100001,-0.625899971,-0.1866,,,1.004199982,0.077799998,9.754699707,,683,0.725099981,-0.548099972,9.568099707
1.68301E+18,13.69639966,-0.670699954,-0.528899968,0.57159996,,,0.946699977,0.041999999,9.760700226,,684,0.276000023,-0.486899968,10.33230019
1.68301E+18,13.71639966,-0.731000006,-0.326399982,0.52639997,,,0.915600002,0.0206,9.763699532,,685,0.184599996,-0.305799982,10.2900995
1.68301E+18,13.73639966,-0.238899991,-0.295100003,0.0526,,,0.905200005,0.0089,9.764699936,,686,0.666300014,-0.286200004,9.817299936
1.68301E+18,13.75639966,0.359699994,-0.361999989,-0.428799987,,,0.898299992,0.0002,9.765399933,,687,1.257999986,-0.361799989,9.336599946
1.68301E+18,13.77639966,0.729499996,-0.363000005,-0.890299976,,,0.886799991,-0.0072,9.766399384,,688,1.616299987,-0.370200005,8.876099408
1.68301E+18,13.79639966,0.740999997,-0.277099997,-1.430799961,,,0.880499959,-0.0126,9.767000198,,689,1.621499956,-0.289699997,8.336200237
1.68301E+18,13.81639966,0.521699965,-0.17369999,-2.127599955,,,0.88229996,-0.0173,9.766799927,,690,1.403999925,-0.19099999,7.639199972
1.68301E+18,13.83639966,0.206100002,-0.110099994,-2.539299965,,,0.89199996,-0.027199998,9.765899658,,691,1.098099962,-0.137299992,7.226599693
1.68301E+18,13.85639966,-0.019199999,-0.021699999,-2.724699974,,,0.901499987,-0.0405,9.76499939,,692,0.882299988,-0.062199999,7.040299416
1.68301E+18,13.87639966,-0.175799996,0.07,-2.733599901,,,0.906299949,-0.062699996,9.764399529,,693,0.730499953,0.007300004,7.030799627
1.68301E+18,13.89639966,-0.239399999,0.190200001,-2.370199919,,,0.904599965,-0.091899998,9.764399529,,694,0.665199965,0.098300003,7.39419961
1.68301E+18,13.91639966,-0.257299989,0.307699978,-1.703299999,,,0.9023,-0.1175,9.764299393,,695,0.645000011,0.190199979,8.060999393
1.68301E+18,13.93639966,-0.176599994,0.382200003,-1.173699975,,,0.901199996,-0.136699989,9.764100075,,696,0.724600002,0.245500013,8.5904001
1.68301E+18,13.95639966,0.069600001,0.342599988,-0.516499996,,,0.896599948,-0.145999998,9.764399529,,697,0.966199949,0.19659999,9.247899532
1.68301E+18,13.97639966,0.407599986,0.234299988,0.042099997,,,0.887399971,-0.147699997,9.765199661,,698,1.294999957,0.086599991,9.807299659
1.68301E+18,13.99639966,0.75999999,0.157499999,0.58069998,,,0.872199953,-0.146499991,9.766599655,,699,1.632199943,0.011000007,10.34729964
1.68301E+18,14.01639966,0.853699982,0.146499991,0.912699997,,,0.853199959,-0.145499989,9.768300056,,700,1.706899941,0.001000002,10.68100005
1.68301E+18,14.03639966,0.794200003,0.135700002,1.214999914,,,0.833399951,-0.142999992,9.77009964,,701,1.627599955,-0.007299989,10.98509955
1.68301E+18,14.05640112,0.578599989,0.103799999,1.321200013,,,0.81129998,-0.140499994,9.771999359,,702,1.389899969,-0.036699995,11.09319937
1.68301E+18,14.07639966,0.433999985,0.012999999,1.603599906,,,0.779299974,-0.146699995,9.774499893,,703,1.21329996,-0.133699995,11.3780998
1.68301E+18,14.09640112,0.416999996,-0.059099998,2.179699898,,,0.751399994,-0.160599992,9.776399612,,704,1.16839999,-0.21969999,11.95609951
1.68301E+18,14.11639966,0.435099989,-0.133499995,2.69749999,,,0.734899998,-0.177100003,9.777400017,,705,1.169999987,-0.310599998,12.47490001
1.68301E+18,14.13639966,0.608500004,-0.342500001,3.147599936,,,0.710099995,-0.199000001,9.778800011,,706,1.318599999,-0.541500002,12.92639995
1.68301E+18,14.15640112,0.937299967,-0.703099966,4.568200111,,,0.650299966,-0.243499994,9.781999588,,707,1.587599933,-0.94659996,14.3501997
1.68301E+18,14.17639966,1.006899953,-1.031199932,6.25180006,,,0.585699975,-0.311499983,9.784099579,,708,1.592599928,-1.342699915,16.03589964
1.68301E+18,14.19639966,0.7773,-0.933799982,6.681099892,,,0.565400004,-0.371999979,9.78319931,,709,1.342700005,-1.305799961,16.4642992
1.68301E+18,14.21639966,0.46419999,-0.020199999,4.397099972,,,0.608799994,-0.392399997,9.779799461,,710,1.072999984,-0.412599996,14.17689943
1.68301E+18,14.23640112,0.097199999,0.412,1.654599905,,,0.691799998,-0.38439998,9.774600029,,711,0.788999997,0.02760002,11.42919993
1.68301E+18,14.25639966,-0.034699999,0.678599954,-0.575999975,,,0.778099954,-0.346799999,9.769499779,,712,0.743399955,0.331799954,9.193499804
1.68301E+18,14.27639966,-0.179899991,0.493900001,-1.835899949,,,0.83949995,-0.290699989,9.766300201,,713,0.65959996,0.203200012,7.930400252
1.68301E+18,14.29640112,-0.280499995,0.182899997,-2.019000053,,,0.85709995,-0.226099998,9.766499519,,714,0.576599956,-0.043200001,7.747499466
1.68301E+18,14.31640112,-0.396200001,-0.322999984,-1.6171,,,0.859200001,-0.160999998,9.76760006,,715,0.463,-0.483999982,8.150500059
1.68301E+18,14.33639966,-0.457099974,-0.574400008,-1.588799953,,,0.862800002,-0.094499998,9.768099785,,716,0.405700028,-0.668900006,8.179299831
1.68301E+18,14.35639966,-0.480399996,-0.709599972,-1.814899921,,,0.871199965,-0.034499999,9.767799377,,717,0.390799969,-0.744099971,7.952899456
1.68301E+18,14.37640112,-0.302399993,-0.769499958,-2.00090003,,,0.876299977,0.0118,9.767399788,,718,0.573899984,-0.757699958,7.766499758
1.68301E+18,14.39639966,-0.140799999,-0.766900003,-2.098599911,,,0.873099983,0.038599998,9.76760006,,719,0.732299984,-0.728300005,7.669000149
1.68301E+18,14.41639966,-0.0493,-0.528899968,-2.030099869,,,0.859999955,0.044299997,9.768699646,,720,0.810699955,-0.48459997,7.738599777
1.68301E+18,14.43639966,-0.104899995,-0.250200003,-1.893999934,,,0.844699979,0.0425,9.77009964,,721,0.739799984,-0.207700003,7.876099706
1.68301E+18,14.45639966,-0.148499995,-0.0229,-2.022799969,,,0.832399964,0.051199999,9.771100044,,722,0.683899969,0.028299998,7.748300076
1.68301E+18,14.47639966,-0.400899976,-0.0414,-2.3671,,,0.82919997,0.065499999,9.771299362,,723,0.428299993,0.024099998,7.404199362
1.68301E+18,14.49639966,-0.456599981,-0.065499999,-2.631999969,,,0.832300007,0.075199999,9.770899773,,724,0.375700027,0.0097,7.138899803
1.68301E+18,14.51639966,-0.430199981,-0.085000001,-2.700299978,,,0.826399982,0.077399999,9.771399498,,725,0.396200001,-0.007600002,7.07109952
1.68301E+18,14.53639966,-0.443899989,0.0107,-2.651799917,,,0.81279999,0.074999996,9.772600174,,726,0.368900001,0.085699995,7.120800257
1.68301E+18,14.55639966,-0.469599992,0.170099989,-2.62349987,,,0.804199994,0.073600002,9.773300171,,727,0.334600002,0.24369999,7.149800301
1.68301E+18,14.57639966,-0.382499993,0.308799982,-2.496799946,,,0.799299955,0.070599996,9.77369976,,728,0.416799963,0.379399978,7.276899815
1.68301E+18,14.59640112,-0.161899999,0.154899999,-1.634199977,,,0.78579998,0.054499999,9.774899483,,729,0.623899981,0.209399998,8.140699506
1.68301E+18,14.61639966,0.282999992,-0.054499999,-0.056499999,,,0.746299982,0.0233,9.778100014,,730,1.029299974,-0.031199999,9.721600015
1.68301E+18,14.63639966,0.557900012,-0.131200001,1.577899933,,,0.690999985,-0.0244,9.78219986,,731,1.248899996,-0.1556,11.36009979
1.68301E+18,14.65640112,0.819099963,0.014599999,2.289700031,,,0.654899955,-0.076899998,9.784399986,,732,1.473999918,-0.062299998,12.07410002
1.68301E+18,14.67639966,0.992499948,0.371099979,1.630399942,,,0.657799959,-0.114099994,9.783800125,,733,1.650299907,0.256999984,11.41420007
1.68301E+18,14.69639966,1.166199923,0.663299978,0.640500009,,,0.698399961,-0.141199991,9.78069973,,734,1.864599884,0.522099987,10.42119974
1.68301E+18,14.71639966,1.272599936,0.827699959,-0.062299997,,,0.761699975,-0.166699991,9.775499344,,735,2.03429991,0.660999969,9.713199347
1.68301E+18,14.73640112,0.679699957,0.853199959,-0.0081,,,0.805000007,-0.195599988,9.771499634,,736,1.484699965,0.657599971,9.763399634
1.68301E+18,14.75639966,-0.393099993,0.862499952,0.495899975,,,0.828199983,-0.220899999,9.769100189,,737,0.435099989,0.641599953,10.26500016
1.68301E+18,14.77639966,-1.171399951,0.936800003,0.851399958,,,0.836199999,-0.226699993,9.768300056,,738,-0.335199952,0.71010001,10.61970001
1.68301E+18,14.79640112,-1.718799949,0.726899981,1.244499922,,,0.838799953,-0.2192,9.768199921,,739,-0.879999995,0.507699981,11.01269984
1.68301E+18,14.81639966,-1.329100013,0.278099984,2.078099966,,,0.838499963,-0.213599995,9.768300056,,740,-0.490600049,0.064499989,11.84640002
1.68301E+18,14.83639966,-0.416799992,-0.325599998,3.833400011,,,0.823699951,-0.238600001,9.769000053,,741,0.406899959,-0.564199999,13.60240006
1.68301E+18,14.85639966,0.549199998,-0.506599963,5.156599998,,,0.821699977,-0.28489998,9.767999649,,742,1.370899975,-0.791499943,14.92459965
1.68301E+18,14.87640112,0.953199983,-0.411300004,5.461699963,,,0.839899957,-0.317299992,9.765399933,,743,1.79309994,-0.728599995,15.2270999
1.68301E+18,14.89639966,1.0625,-0.280799985,5.003299713,,,0.876800001,-0.339299977,9.761400223,,744,1.939300001,-0.620099962,14.76469994
1.68301E+18,14.91639966,0.976599991,-0.288300008,4.183499813,,,0.922999978,-0.347799987,9.756899834,,745,1.899599969,-0.636099994,13.94039965
1.68301E+18,14.93639966,0.714599967,-0.18159999,2.73669982,,,0.985899985,-0.340199977,9.750999451,,746,1.700499952,-0.521799967,12.48769927
1.68301E+18,14.95639966,0.131999999,-0.061799999,0.732199967,,,1.074999928,-0.317900002,9.742300034,,747,1.206999928,-0.379700001,10.4745
1.68301E+18,14.97639966,-0.447399974,-0.035,-1.03399992,,,1.155699968,-0.283999979,9.734099388,,748,0.708299994,-0.31899998,8.700099468
1.68301E+18,14.99639966,-0.792800009,-0.245499998,-1.967299938,,,1.196299911,-0.266000003,9.729700089,,749,0.403499901,-0.511500001,7.76240015
1.68301E+18,15.01640112,-1.00999999,-0.253600001,-1.619599938,,,1.181599975,-0.289900005,9.730799675,,750,0.171599984,-0.543500006,8.111199737
1.68301E+18,15.03639966,-0.965799987,-0.043399997,-0.139899999,,,1.11379993,-0.335899979,9.737299919,,751,0.147999942,-0.379299976,9.59739992
1.68301E+18,15.05640283,-1.152999997,0.335899979,0.785099983,,,1.022799969,-0.361200005,9.746399879,,752,-0.130200028,-0.025300026,10.53149986
1.68301E+18,15.07639966,-1.130599976,0.439699978,0.834899962,,,0.95569998,-0.357499987,9.753399849,,753,-0.174899995,0.082199991,10.58829981
1.68301E+18,15.09640112,-0.171199992,0.220199987,0.151299998,,,0.936199963,-0.331200004,9.756199837,,754,0.764999971,-0.111000016,9.907499835
1.68301E+18,15.11639966,0.897599995,-0.0414,-1.165599942,,,0.940099955,-0.294400007,9.756999969,,755,1.83769995,-0.335800007,8.591400027
1.68301E+18,15.13639966,1.423200011,-0.244899988,-2.225499868,,,0.94629997,-0.270399988,9.757100105,,756,2.369499981,-0.515299976,7.531600237
1.68301E+18,15.15639966,1.691599965,-0.298199981,-3.010099888,,,0.942999959,-0.25759998,9.757699966,,757,2.634599924,-0.555799961,6.747600079
1.68301E+18,15.17639966,1.302600026,-0.213,-3.785499811,,,0.928199947,-0.261199981,9.75909996,,758,2.230799973,-0.47419998,5.973600149
1.68301E+18,15.19639966,0.513300002,0.045499999,-4.041800022,,,0.907799959,-0.29429999,9.760000229,,759,1.421099961,-0.248799991,5.718200207
1.68301E+18,15.21639966,-0.093899995,0.274599999,-3.572099924,,,0.884599984,-0.344699979,9.760499954,,760,0.790699989,-0.07009998,6.18840003
1.68301E+18,15.23639966,-0.247199997,0.511399984,-3.072399855,,,0.855699956,-0.392499983,9.761300087,,761,0.608499959,0.118900001,6.688900232
1.68301E+18,15.25639966,-0.26729998,0.539600015,-2.416100025,,,0.809199989,-0.437599987,9.763299942,,762,0.541900009,0.102000028,7.347199917
1.68301E+18,15.27639966,-0.142399997,0.52579999,-1.309999943,,,0.745599985,-0.48209998,9.766300201,,763,0.603199989,0.04370001,8.456300259
1.68301E+18,15.29639966,0.205599993,0.609600008,-0.253899992,,,0.676599979,-0.521099985,9.769299507,,764,0.882199973,0.088500023,9.515399516
1.68301E+18,15.31640283,0.539299965,0.609299958,0.62559998,,,0.617999971,-0.545399964,9.771900177,,765,1.157299936,0.063899994,10.39750016
1.68301E+18,15.33639966,0.892099977,0.623899996,1.083999991,,,0.582799971,-0.541799963,9.774299622,,766,1.474899948,0.082100034,10.85829961
1.68301E+18,15.35639966,1.348999977,0.541799963,0.757999957,,,0.569199979,-0.511399984,9.77670002,,767,1.918199956,0.030399978,10.53469998
1.68301E+18,15.37640112,1.676499963,0.364299983,0.177000001,,,0.557900012,-0.472799987,9.779299736,,768,2.234399974,-0.108500004,9.956299737
1.68301E+18,15.39639966,1.864199996,0.090399995,0.0076,,,0.544999957,-0.444299996,9.781399727,,769,2.409199953,-0.3539,9.788999727
1.68301E+18,15.41639966,1.739799976,0.091299996,-0.25909999,,,0.537499964,-0.432199985,9.782299995,,770,2.277299941,-0.340899989,9.523200005
1.68301E+18,15.43639966,1.46299994,0.324399978,-0.544399977,,,0.531300008,-0.438499987,9.782400131,,771,1.994299948,-0.114100009,9.238000154
1.68301E+18,15.45639966,1.018000007,0.654199958,-0.603299975,,,0.523199975,-0.455199987,9.781999588,,772,1.541199982,0.198999971,9.178699613
1.68301E+18,15.47639966,0.575100005,0.906299949,-0.622599959,,,0.507699966,-0.471899986,9.782099724,,773,1.082799971,0.434399962,9.159499764
1.68301E+18,15.49639966,0.217899993,1.148499966,-0.632499993,,,0.477899998,-0.486499995,9.782899857,,774,0.695799991,0.661999971,9.150399864
1.68301E+18,15.51639966,0.237899989,1.251399994,-0.299799979,,,0.439199984,-0.49939999,9.783999443,,775,0.677099973,0.752000004,9.484199464
1.68301E+18,15.53639966,0.502099991,1.323199987,0.238299996,,,0.393999994,-0.509800017,9.785399437,,776,0.896099985,0.813399971,10.02369943
1.68301E+18,15.55639966,0.821999967,1.255100012,0.903699994,,,0.343299985,-0.512199998,9.787199974,,777,1.165299952,0.742900014,10.69089997
1.68301E+18,15.57639966,1.274699926,1.022199988,1.588400006,,,0.291799992,-0.503300011,9.789299965,,778,1.566499919,0.518899977,11.37769997
1.68301E+18,15.59639966,1.767499924,0.395500004,2.664999962,,,0.237799987,-0.494699985,9.791199684,,779,2.005299911,-0.09919998,12.45619965
1.68301E+18,15.61639966,2.037299871,-0.201499999,3.928200006,,,0.175300002,-0.504899979,9.791999817,,780,2.212599874,-0.706399977,13.72019982
1.68301E+18,15.63639966,2.021299839,0.093099996,3.348799944,,,0.158399999,-0.514100015,9.791799545,,781,2.179699838,-0.421000019,13.14059949
1.68301E+18,15.65639966,1.645999908,0.543500006,1.367999911,,,0.18249999,-0.504199982,9.791899681,,782,1.828499898,0.039300025,11.15989959
1.68301E+18,15.67639966,1.513999939,0.827799976,-0.671700001,,,0.236000001,-0.487800002,9.791600227,,783,1.74999994,0.339999974,9.119900227
1.68301E+18,15.69639966,1.323099971,0.860399961,-2.299299955,,,0.270099998,-0.45479998,9.792300224,,784,1.593199968,0.405599982,7.493000269
1.68301E+18,15.71639966,1.043900013,0.650999963,-2.672699928,,,0.253299981,-0.432699978,9.7937994,,785,1.297199994,0.218299985,7.121099472
1.68301E+18,15.73640112,0.795899987,0.0502,-1.173699975,,,0.189699993,-0.439599991,9.79489994,,786,0.98559998,-0.38939999,8.621199965
1.68301E+18,15.75639966,0.810499966,-0.119199999,0.913899958,,,0.106799997,-0.468199998,9.794799805,,787,0.917299964,-0.587399997,10.70869976
1.68301E+18,15.77639966,0.805199981,-0.0123,2.24759984,,,0.038399998,-0.486599982,9.794400215,,788,0.843599979,-0.498899981,12.04200006
1.68301E+18,15.79640112,1.354099989,0.153200001,1.993099928,,,0.01,-0.465399981,9.795499802,,789,1.364099989,-0.31219998,11.78859973
1.68301E+18,15.81640112,2.108099937,-0.054299999,1.021099925,,,0.024699999,-0.420100003,9.797599792,,790,2.132799936,-0.474400003,10.81869972
1.68301E+18,15.83639966,2.828999996,-0.295699984,0.077599995,,,0.067299999,-0.385099977,9.798799515,,791,2.896299995,-0.680799961,9.87639951
1.68301E+18,15.85639966,2.894199848,-0.467899978,-0.28639999,,,0.104499996,-0.372699976,9.798999786,,792,2.998699844,-0.840599954,9.512599796
1.68301E+18,15.87640112,1.974399924,-0.558799982,-0.237499997,,,0.114799999,-0.369199991,9.798999786,,793,2.089199923,-0.927999973,9.561499789
1.68301E+18,15.89639966,0.581399977,-0.6505,-0.345400006,,,0.104699999,-0.361900002,9.799399376,,794,0.686099976,-1.012400001,9.45399937
1.68301E+18,15.91639966,-0.192999989,-0.746100008,-0.424199998,,,0.100599997,-0.351399988,9.799799919,,795,-0.092399992,-1.097499996,9.375599921
1.68301E+18,15.93639966,-0.100599997,-0.658599973,-0.601099968,,,0.103999995,-0.342899978,9.800000191,,796,0.003399998,-1.001499951,9.198900223
1.68301E+18,15.95639966,0.45479998,-0.569000006,-0.777899981,,,0.098799996,-0.340399981,9.800199509,,797,0.553599976,-0.909399986,9.022299528
1.68301E+18,15.97639966,1.048499942,-0.46359998,-0.866299987,,,0.078699999,-0.342099994,9.800299644,,798,1.12719994,-0.805699974,8.933999658
1.68301E+18,15.99639966,1.421599984,-0.393299997,-0.925300002,,,0.056399997,-0.347499996,9.800299644,,799,1.477999981,-0.740799993,8.874999642
1.68301E+18,16.01639966,1.777399898,-0.348699987,-0.817399979,,,0.044599999,-0.358399987,9.799900055,,800,1.821999896,-0.707099974,8.982500076
1.68301E+18,16.03639966,1.995099902,-0.425999999,-0.75819999,,,0.0383,-0.374499977,9.799399376,,801,2.033399902,-0.800499976,9.041199386
1.68301E+18,16.05639966,2.001399994,-0.390299976,-0.649800003,,,0.0296,-0.394600004,9.798600197,,802,2.030999994,-0.78489998,9.148800194
1.68301E+18,16.07639966,1.715899944,-0.331,-0.423500001,,,0.0189,-0.416199982,9.797699928,,803,1.734799944,-0.747199982,9.374199927
1.68301E+18,16.09639966,1.285300016,-0.299499989,-0.216600001,,,0.0154,-0.432199985,9.797100067,,804,1.300700016,-0.731699973,9.580500066
1.68301E+18,16.11639966,0.994599998,-0.224799991,-0.274800003,,,0.0218,-0.438999981,9.796699524,,805,1.016399998,-0.663799971,9.521899521
1.68301E+18,16.13639966,0.939199984,-0.060999997,-0.568699956,,,0.036699999,-0.434299976,9.796899796,,806,0.975899983,-0.495299973,9.22819984
1.68301E+18,16.15639966,0.992899954,-0.046099998,-0.794399977,,,0.056899998,-0.425699979,9.797200203,,807,1.049799953,-0.471799977,9.002800226
1.68301E+18,16.17639966,1.07069993,-0.0352,-0.775099993,,,0.081199996,-0.4199,9.797299385,,808,1.151899926,-0.4551,9.022199392
1.68301E+18,16.19639966,0.987599969,0.0178,-0.677100003,,,0.103299998,-0.423899978,9.796899796,,809,1.090899967,-0.406099979,9.119799793
1.68301E+18,16.21639966,0.936100006,0.139499992,-0.196199998,,,0.118000001,-0.434799999,9.796199799,,810,1.054100007,-0.295300007,9.5999998
1.68301E+18,16.23640112,0.911599994,0.336699992,0.245699987,,,0.134900004,-0.439899981,9.795800209,,811,1.046499997,-0.103199989,10.0415002
1.68301E+18,16.25639966,0.904499948,0.400700003,0.39319998,,,0.158999994,-0.439699978,9.795399666,,812,1.063499942,-0.038999975,10.18859965
1.68301E+18,16.27639966,0.850999951,0.420100003,0.530900002,,,0.191799998,-0.438799977,9.79489994,,813,1.04279995,-0.018699974,10.32579994
1.68301E+18,16.29639966,0.73969996,0.438799977,0.717700005,,,0.226099998,-0.433099985,9.794400215,,814,0.965799958,0.005699992,10.51210022
1.68301E+18,16.31640112,0.577899992,0.305599988,1.188899994,,,0.25849998,-0.421599984,9.794099808,,815,0.836399972,-0.115999997,10.9829998
1.68301E+18,16.33639966,0.614199996,0.097999997,2.052199841,,,0.288899988,-0.414399981,9.793600082,,816,0.903099984,-0.316399984,11.84579992
1.68301E+18,16.35639966,0.52489996,0.081,2.680399895,,,0.322400004,-0.407399982,9.79279995,,817,0.847299963,-0.326399982,12.47319984
1.68301E+18,16.37640112,0.354200006,0.221099988,2.661499977,,,0.357600003,-0.379899979,9.792699814,,818,0.711800009,-0.158799991,12.45419979
1.68301E+18,16.39639966,0.358199984,0.066,2.534099817,,,0.393700004,-0.32949999,9.793099403,,819,0.751899987,-0.26349999,12.32719922
1.68301E+18,16.41639966,0.8222,-0.307899982,2.278699875,,,0.43689999,-0.261999995,9.793399811,,820,1.25909999,-0.569899976,12.07209969
1.68301E+18,16.43639966,1.141799927,-0.581299961,1.503799915,,,0.484499991,-0.190399989,9.79279995,,821,1.626299918,-0.77169995,11.29659986
1.68301E+18,16.45639966,1.094300032,-0.809799969,0.307999998,,,0.534399986,-0.125100002,9.791199684,,822,1.628700018,-0.934899971,10.09919968
1.68301E+18,16.47639966,1.024699926,-0.953599989,-0.778899968,,,0.574999988,-0.074699998,9.789400101,,823,1.599699914,-1.028299987,9.010500133
1.68301E+18,16.49639966,1.131199956,-1.082399964,-1.051699996,,,0.593499959,-0.055299997,9.788499832,,824,1.724699914,-1.137699962,8.736799836
1.68301E+18,16.51639966,1.377499938,-1.111599922,-0.766299963,,,0.591499984,-0.059699997,9.788599968,,825,1.968999922,-1.171299919,9.022300005
1.68301E+18,16.53639966,1.369699955,-1.107200027,-0.501699984,,,0.565999985,-0.076099999,9.789999962,,826,1.93569994,-1.183300026,9.288299978
1.68301E+18,16.55639966,1.414899945,-1.06129992,-0.130400002,,,0.528499961,-0.1017,9.791799545,,827,1.943399906,-1.162999921,9.661399543
1.68301E+18,16.57639966,1.471899986,-1.123999953,0.308899999,,,0.501899958,-0.129600003,9.792900085,,828,1.973799944,-1.253599957,10.10180008
1.68301E+18,16.59640112,1.449599981,-1.174600005,0.4648,,,0.484999985,-0.157299995,9.793299675,,829,1.934599966,-1.331900001,10.25809968
1.68301E+18,16.61639966,1.279999971,-1.156700015,0.513399959,,,0.470200002,-0.184799999,9.793600082,,830,1.750199974,-1.341500014,10.30700004
1.68301E+18,16.63639966,0.99089998,-1.040899992,0.238499999,,,0.461199999,-0.204899997,9.793600082,,831,1.452099979,-1.245799989,10.03210008
1.68301E+18,16.65639966,0.764499962,-0.765899956,-0.477299988,,,0.459499985,-0.215700001,9.793499947,,832,1.223999947,-0.981599957,9.316199958
1.68301E+18,16.67639966,0.697600007,-0.637299955,-1.12440002,,,0.46449998,-0.224399999,9.793000221,,833,1.162099987,-0.861699954,8.668600202
1.68301E+18,16.69639966,0.957399964,-0.608999968,-1.506399989,,,0.47239998,-0.23709999,9.792300224,,834,1.429799944,-0.846099958,8.285900235
1.68301E+18,16.71640283,1.21420002,-0.61589998,-1.456699967,,,0.474599987,-0.263099998,9.791600227,,835,1.688800007,-0.878999978,8.33490026
1.68301E+18,16.73640112,1.427699924,-0.550799966,-1.200899959,,,0.4648,-0.304800004,9.790800095,,836,1.892499924,-0.85559997,8.589900136
1.68301E+18,16.75640283,1.251199961,-0.361900002,-0.719699979,,,0.447899997,-0.358500004,9.78979969,,837,1.699099958,-0.720400006,9.070099711
1.68301E+18,16.77640283,1.277999997,-0.063099995,-0.238099992,,,0.428799987,-0.413699985,9.788499832,,838,1.706799984,-0.47679998,9.55039984
1.68301E+18,16.79640283,1.257799983,0.168599993,-0.089699998,,,0.414099991,-0.461299986,9.786999702,,839,1.671899974,-0.292699993,9.697299704
1.68301E+18,16.81640283,1.262699962,0.343600005,-0.097999997,,,0.403899997,-0.504700005,9.785299301,,840,1.666599959,-0.1611,9.687299304
1.68301E+18,16.83639966,1.302399993,0.504700005,-0.125699997,,,0.40079999,-0.540600002,9.783499718,,841,1.703199983,-0.035899997,9.657799721
1.68301E+18,16.85639966,1.344699979,0.589599967,-0.192599997,,,0.398000002,-0.568799973,9.781999588,,842,1.742699981,0.020799994,9.589399591
1.68301E+18,16.87639966,1.317999959,0.657099962,-0.191100001,,,0.39379999,-0.592299998,9.780799866,,843,1.711799949,0.064799964,9.589699864
1.68301E+18,16.89639966,1.243799925,0.817900002,-0.248699993,,,0.387999982,-0.608599961,9.779999733,,844,1.631799906,0.209300041,9.53129974
1.68301E+18,16.91639966,1.190799952,0.922499955,-0.120399997,,,0.3838,-0.619499981,9.779500008,,845,1.574599952,0.302999973,9.659100011
1.68301E+18,16.93639966,1.136099935,0.952899992,0.223199993,,,0.3741,-0.623600006,9.779600143,,846,1.510199934,0.329299986,10.00280014
1.68301E+18,16.95639966,1.057600021,0.927599967,0.654599965,,,0.354499996,-0.615399957,9.780799866,,847,1.412100017,0.31220001,10.43539983
1.68301E+18,16.97639966,1.145799994,0.791899979,0.908299983,,,0.332699984,-0.595499992,9.782799721,,848,1.478499979,0.196399987,10.6910997
1.68301E+18,16.99639966,1.393100023,0.595499992,1.014199972,,,0.314300001,-0.568799973,9.784999847,,849,1.707400024,0.02670002,10.79919982
1.68301E+18,17.01639966,1.578299999,0.421700001,0.972799957,,,0.301400006,-0.540899992,9.786999702,,850,1.879700005,-0.119199991,10.75979966
1.68301E+18,17.03639966,1.6401999,0.168200001,1.108099937,,,0.287299991,-0.51699996,9.788700104,,851,1.92749989,-0.348799959,10.89680004
1.68301E+18,17.05639966,1.72299993,-0.15959999,2.037999868,,,0.265499979,-0.508899987,9.78979969,,852,1.98849991,-0.668499976,11.82779956
1.68301E+18,17.07639966,1.813399911,-0.206900001,2.752799988,,,0.253499985,-0.503699958,9.790399551,,853,2.066899896,-0.710599959,12.54319954
1.68301E+18,17.09639966,1.658699989,0.140900001,1.91869998,,,0.262999982,-0.475499988,9.791500092,,854,1.921699971,-0.334599987,11.71020007
1.68301E+18,17.11639966,1.443300009,0.269600004,0.789699972,,,0.282099992,-0.429099977,9.793099403,,855,1.725400001,-0.159499973,10.58279938
1.68301E+18,17.13639966,1.45359993,0.301599979,-0.319900006,,,0.307799995,-0.359899998,9.795199394,,856,1.761399925,-0.058300018,9.475299388
1.68301E+18,17.15639966,1.44749999,-0.071499996,-1.145699978,,,0.331999987,-0.267499983,9.797299385,,857,1.779499978,-0.338999979,8.651599407
1.68301E+18,17.17639966,1.315400004,-0.938600004,-1.069399953,,,0.343799978,-0.174400002,9.798999786,,858,1.659199983,-1.113000005,8.729599833
1.68301E+18,17.19639966,1.362499952,-1.590699911,-0.561199963,,,0.344099998,-0.1083,9.800000191,,859,1.706599951,-1.698999912,9.238800228
1.68301E+18,17.21639966,1.528899908,-1.754799962,0.310599983,,,0.337799996,-0.085599996,9.80039978,,860,1.866699904,-1.840399958,10.11099976
1.68301E+18,17.23639966,1.750899911,-1.463699937,1.133899927,,,0.339599997,-0.083999999,9.80039978,,861,2.090499908,-1.547699936,10.93429971
1.68301E+18,17.25639966,1.896199942,-1.180999994,1.241799951,,,0.362399995,-0.077799998,9.799599648,,862,2.258599937,-1.258799993,11.0413996
1.68301E+18,17.27639966,1.902799964,-0.981299996,0.644400001,,,0.405499995,-0.061999999,9.797999382,,863,2.308299959,-1.043299995,10.44239938
1.68301E+18,17.29639966,1.63409996,-0.938199997,-0.030599998,,,0.449499995,-0.045899998,9.796199799,,864,2.083599955,-0.984099995,9.7655998
