time,seconds_elapsed,z,y,x
1683010588668838700,0.060838623046875,-1.5343999862670898,0.7389000058174133,0.2595999836921692
1683010588688837000,0.080837158203125,-1.5343999862670898,0.7389000058174133,0.2595999836921692
1683010588708845000,0.100844970703125,-1.5343999862670898,0.7389000058174133,0.2595999836921692
1683010588728838700,0.120838623046875,0.001999999862164259,-0.00029999998514540493,0.01209999993443489
1683010588748838700,0.140838623046875,0.26489999890327454,-0.07930000126361847,-0.09009999781847
1683010588768838700,0.160838623046875,0.31859999895095825,-0.13809999823570251,-0.003399999812245369
1683010588788838700,0.180838623046875,0.3164999783039093,-0.2733999788761139,0.2441999912261963
1683010588808838700,0.200838623046875,0.38999998569488525,-0.3181999921798706,0.32569998502731323
1683010588828837000,0.220837158203125,0.2402999997138977,-0.22509999573230743,0.28929999470710754
1683010588848838700,0.240838623046875,0.20469999313354492,-0.14000000059604645,0.46709999442100525
1683010588868838700,0.260838623046875,0.21239998936653137,-0.05790000036358833,0.34199997782707214
1683010588888838700,0.280838623046875,0.34450000524520874,-0.06769999861717224,-0.1459999978542328
1683010588908838700,0.300838623046875,0.2525999844074249,0.08259999752044678,-0.3077999949455261
1683010588928837000,0.320837158203125,0.34379997849464417,0.10260000079870224,-0.16269999742507935
1683010588948840200,0.340840087890625,0.9079999923706055,0.06209999695420265,0.39329999685287476
1683010588968838700,0.360838623046875,0.17589999735355377,0.03359999880194664,0.00989999994635582
1683010588988840200,0.380840087890625,0.08509999513626099,0.003399999812245369,0.44579997658729553
1683010589008840200,0.400840087890625,0.2979999780654907,0.5777999758720398,0.36640000343322754
1683010589028837000,0.420837158203125,0.517799973487854,0.7863999605178833,0.6054999828338623
1683010589048837000,0.440837158203125,0.10260000079870224,1.0724999904632568,0.7361999750137329
1683010589068840200,0.460840087890625,-0.06520000100135803,1.07069993019104,0.6000999808311462
1683010589088840200,0.480840087890625,0.2888999879360199,0.5200999975204468,0.38179999589920044
1683010589108838700,0.500838623046875,0.6305999755859375,0.3716000020503998,0.3102000057697296
1683010589128838700,0.520838623046875,0.8233999609947205,0.234499990940094,-0.2947999835014343
1683010589148838700,0.540838623046875,0.32499998807907104,0.42329999804496765,-0.9151999950408936
1683010589168838700,0.560838623046875,0.056199997663497925,0.28849998116493225,-0.948699951171875
1683010589188838700,0.580838623046875,-0.07479999959468842,-0.06439999490976334,-0.3982999920845032
1683010589208837000,0.600837158203125,0.1039000004529953,-0.3018999993801117,-0.4415999948978424
1683010589228837000,0.620837158203125,0.09109999984502792,-0.20739999413490295,-0.599299967288971
1683010589248837000,0.640837158203125,-0.1647000014781952,-0.06949999928474426,-0.7299000024795532
1683010589268838700,0.660838623046875,-0.10009999573230743,-0.02029999904334545,-0.6428999900817871
1683010589288838700,0.680838623046875,-0.18060000240802765,0.10089999437332153,-0.07800000160932541
1683010589308838700,0.700838623046875,-0.46480000019073486,0.05139999836683273,0.24889999628067017
1683010589328837000,0.720837158203125,-0.2728999853134155,0.03889999911189079,0.0867999941110611
1683010589348838700,0.740838623046875,-0.15489999949932098,0.4740999937057495,0.25699999928474426
1683010589368838700,0.760838623046875,-1.228600025177002,0.10480000078678131,0.6225000023841858
1683010589388838700,0.780838623046875,-0.42800000309944153,0.3652999997138977,0.25859999656677246
1683010589408838700,0.800838623046875,-0.9091999530792236,0.799299955368042,-0.01549999974668026
1683010589428837000,0.820837158203125,0.022599998861551285,-0.17649999260902405,0.49859997630119324
1683010589448838700,0.840838623046875,0.04129999876022339,0.31700000166893005,0.10819999873638153
1683010589468840200,0.860840087890625,-0.20469999313354492,0.4860999882221222,-0.4682999849319458
1683010589488840200,0.880840087890625,-0.6747999787330627,0.5709999799728394,-0.46469998359680176
1683010589508838700,0.900838623046875,-0.5899999737739563,0.39100000262260437,0.2554999887943268
1683010589528838700,0.920838623046875,-0.05769999697804451,0.16659998893737793,1.4453999996185303
1683010589548838700,0.940838623046875,0.35179999470710754,0.3301999866962433,2.026700019836426
1683010589568838700,0.960838623046875,0.48659998178482056,0.1890999972820282,2.7597999572753906
1683010589588838700,0.980838623046875,0.4400999844074249,-0.09889999777078629,3.238999843597412
1683010589608838700,1.000838623046875,0.6954999566078186,-0.5525999665260315,3.8302998542785645
1683010589628838700,1.020838623046875,1.11489999294281,-1.1888999938964844,4.555599689483643
1683010589648838700,1.040838623046875,1.6827999353408813,-1.2483999729156494,5.026099681854248
1683010589668838700,1.060838623046875,2.026399850845337,-1.4731999635696411,5.713299751281738
1683010589688840200,1.080840087890625,2.0790998935699463,-0.8473999500274658,5.372999668121338
1683010589708840200,1.100840087890625,1.1312999725341797,-0.003499999875202775,3.3783998489379883
1683010589728840200,1.120840087890625,-0.4617999792098999,0.36409997940063477,0.24899999797344208
1683010589748838700,1.140838623046875,-1.1000999212265015,-0.06799999624490738,-1.6532999277114868
1683010589768838700,1.160838623046875,-0.8057999610900879,-0.7470999956130981,-2.022599935531616
1683010589788838700,1.180838623046875,-0.15039999783039093,-1.1414999961853027,-1.8431999683380127
1683010589808838700,1.200838623046875,0.3649999797344208,-0.899899959564209,-1.4142999649047852
1683010589828838700,1.220838623046875,0.2538999915122986,-0.6453999876976013,-0.8035999536514282
1683010589848838700,1.240838623046875,-0.019500000402331352,-0.3199999928474426,-0.5097000002861023
1683010589868838700,1.260838623046875,-0.35499998927116394,-0.08370000123977661,-0.4592999815940857
1683010589888838700,1.280838623046875,-0.7601000070571899,0.1078999936580658,-1.149399995803833
1683010589908838700,1.300838623046875,-1.1121000051498413,0.14669999480247498,-1.9326999187469482
1683010589928837000,1.320837158203125,-1.1567000150680542,0.15299999713897705,-2.6847000122070312
1683010589948838700,1.340838623046875,-0.9509999752044678,0.09559999406337738,-3.2300000190734863
1683010589968838700,1.360838623046875,-0.4887999892234802,-0.0925000011920929,-3.6584999561309814
1683010589988838700,1.380838623046875,0.17170000076293945,-0.3105999827384949,-3.760499954223633
1683010590008838700,1.400838623046875,0.7548999786376953,-0.5020999908447266,-3.3101999759674072
1683010590028838700,1.420838623046875,0.9490000009536743,-0.6092000007629395,-2.4967000484466553
1683010590048838700,1.440838623046875,0.819599986076355,-0.7125999927520752,-1.479599952697754
1683010590068838700,1.460838623046875,0.6259999871253967,-0.899899959564209,-0.5146999955177307
1683010590088838700,1.480838623046875,0.5263000130653381,-0.9860999584197998,0.243599995970726
1683010590108838700,1.500838623046875,0.5647000074386597,-0.9375999569892883,0.8174999952316284
1683010590128838700,1.520838623046875,0.37549999356269836,-0.8139999508857727,1.2166999578475952
1683010590148840200,1.540840087890625,0.18159998953342438,-0.6434999704360962,1.264799952507019
1683010590168840200,1.560840087890625,0.1907999962568283,-0.5263999700546265,0.9906999468803406
1683010590188838700,1.580838623046875,0.4293999969959259,-0.6079999804496765,0.9048999547958374
1683010590208838700,1.600838623046875,0.7459999918937683,-0.7250999808311462,1.1919000148773193
1683010590228838700,1.620838623046875,0.9395999908447266,-0.9178999662399292,1.9011999368667603
1683010590248838700,1.640838623046875,0.9788999557495117,-1.206399917602539,2.7107999324798584
1683010590268838700,1.660838623046875,1.2275999784469604,-1.715999960899353,4.07450008392334
1683010590288838700,1.680838623046875,1.597000002861023,-2.0451998710632324,5.940199851989746
1683010590308838700,1.700838623046875,1.4117000102996826,-2.0688998699188232,6.825399875640869
1683010590328838700,1.720838623046875,0.5550999641418457,-1.8111000061035156,5.943599700927734
1683010590348838700,1.740838623046875,-0.4397999942302704,-1.4637999534606934,3.988799810409546
1683010590368840200,1.760840087890625,-1.0188000202178955,-0.9893999695777893,1.5123000144958496
1683010590388838700,1.780838623046875,-1.427899956703186,-0.6886000037193298,-1.142300009727478
1683010590408838700,1.800838623046875,-1.2595999240875244,-0.5584999918937683,-3.111599922180176
1683010590428838700,1.820838623046875,-0.6992999911308289,-0.5656999945640564,-3.415099859237671
1683010590448838700,1.840838623046875,-0.1678999960422516,-0.44749999046325684,-2.6511998176574707
1683010590468838700,1.860838623046875,0.15919999778270721,-0.42080000042915344,-1.5647000074386597
1683010590488840200,1.880840087890625,0.2653000056743622,-0.3806999921798706,-0.9205999970436096
1683010590508840200,1.900840087890625,0.15489999949932098,-0.19669999182224274,-0.914900004863739
1683010590528838700,1.920838623046875,-0.03319999948143959,-0.02850000001490116,-1.2896000146865845
1683010590548838700,1.940838623046875,-0.09299999475479126,0.2689000070095062,-1.7314000129699707
1683010590568838700,1.960838623046875,-0.33959999680519104,0.5737000107765198,-1.9869999885559082
1683010590588840200,1.980840087890625,-0.8295999765396118,0.6578999757766724,-2.233599901199341
1683010590608838700,2.000838623046875,-0.9914999604225159,0.8251999616622925,-2.3327999114990234
1683010590628838700,2.020838623046875,-0.8331999778747559,0.7087999582290649,-1.9030998945236206
1683010590648840200,2.040840087890625,-0.5796999931335449,0.5001999735832214,-1.9062999486923218
1683010590668838700,2.060838623046875,-0.3617999851703644,0.27489998936653137,-2.065999984741211
1683010590688840200,2.080840087890625,0.04600000008940697,0.13729999959468842,-1.6662999391555786
1683010590708838700,2.100838623046875,0.409199982881546,0.1160999983549118,-1.0496000051498413
1683010590728838700,2.120838623046875,0.5116999745368958,0.09149999916553497,-0.5015000104904175
1683010590748838700,2.140838623046875,0.5295999646186829,0.07979999482631683,0.01679999940097332
1683010590768838700,2.160838623046875,0.4107999801635742,0.10509999841451645,0.2126999944448471
1683010590788838700,2.180838623046875,0.22989998757839203,0.12449999898672104,0.2922999858856201
1683010590808838700,2.200838623046875,-0.0737999975681305,0.06679999828338623,0.2736999988555908
1683010590828838700,2.220838623046875,-0.31439998745918274,0.03240000084042549,0.2848999798297882
1683010590848840200,2.240840087890625,-0.5636999607086182,0.07660000026226044,0.37449997663497925
1683010590868840200,2.260840087890625,-0.6728000044822693,0.11319999396800995,0.6208999752998352
1683010590888838700,2.280838623046875,-0.5900999903678894,0.05829999968409538,1.2020000219345093
1683010590908838700,2.300838623046875,-0.4204999804496765,-0.033399999141693115,1.6282999515533447
1683010590928837000,2.320837158203125,0.0031999999191612005,-0.5016999840736389,2.5267999172210693
1683010590948838700,2.340838623046875,0.44839999079704285,-0.9457999467849731,4.02209997177124
1683010590968838700,2.360838623046875,0.5264999866485596,-1.1866999864578247,4.996699810028076
1683010590988838700,2.380838623046875,0.461899995803833,-1.657599925994873,5.734799861907959
1683010591008840200,2.400840087890625,0.4323999881744385,-1.630199909210205,4.696000099182129
1683010591028838700,2.420838623046875,0.47859999537467957,-1.3779000043869019,2.8676998615264893
1683010591048838700,2.440838623046875,0.4219000041484833,-0.9858999848365784,1.2680000066757202
1683010591068838700,2.460838623046875,0.1816999912261963,-0.7565000057220459,-0.3118000030517578
1683010591088840200,2.480840087890625,0.000699999975040555,-0.779699981212616,-1.6878999471664429
1683010591108838700,2.500838623046875,0.07329999655485153,-1.1198999881744385,-2.1377999782562256
1683010591128838700,2.520838623046875,0.10659999400377274,-1.3772000074386597,-1.8389999866485596
1683010591148837000,2.540837158203125,0.03849999979138374,-1.3431999683380127,-1.298200011253357
1683010591168838700,2.560838623046875,-0.11829999834299088,-1.1204999685287476,-0.7785999774932861
1683010591188838700,2.580838623046875,-0.3440999984741211,-0.8021000027656555,-0.6827999949455261
1683010591208838700,2.600838623046875,-0.4875999987125397,-0.545199990272522,-1.0084999799728394
1683010591228838700,2.620838623046875,-0.30140000581741333,-0.2541999816894531,-1.506500005722046
1683010591248838700,2.640838623046875,0.016999999061226845,-0.04099999740719795,-1.9204999208450317
1683010591268838700,2.660838623046875,0.25529998540878296,0.18219999969005585,-2.223099946975708
1683010591288838700,2.680838623046875,0.249099999666214,0.3077999949455261,-2.211899995803833
1683010591308838700,2.700838623046875,0.04939999803900719,0.42069998383522034,-2.2318999767303467
1683010591328840200,2.720840087890625,-0.17260000109672546,0.4666999876499176,-2.371299982070923
1683010591348840200,2.740840087890625,-0.25609999895095825,0.4120999872684479,-2.1577999591827393
1683010591368838700,2.760838623046875,-0.17749999463558197,0.3889999985694885,-1.7680999040603638
1683010591388838700,2.780838623046875,-0.06989999860525131,0.3109000027179718,-1.1239999532699585
1683010591408838700,2.800838623046875,0.08859999477863312,0.289000004529953,-0.26319998502731323
1683010591428837000,2.820837158203125,0.19769999384880066,0.3146999776363373,0.323199987411499
1683010591448838700,2.840838623046875,0.32009997963905334,0.361299991607666,0.6056999564170837
1683010591468838700,2.860838623046875,0.40129998326301575,0.3797000050544739,0.5651999711990356
1683010591488838700,2.880838623046875,0.5719000101089478,0.22119998931884766,0.769599974155426
1683010591508838700,2.900838623046875,0.6873999834060669,0.10379999876022339,0.8265999555587769
1683010591528838700,2.920838623046875,0.823699951171875,0.12889999151229858,0.8046000003814697
1683010591548838700,2.940838623046875,0.9799999594688416,0.07580000162124634,1.1944999694824219
1683010591568838700,2.960838623046875,0.9508999586105347,-0.07569999992847443,1.8991999626159668
1683010591588840200,2.980840087890625,1.0080000162124634,-0.2222999930381775,2.761699914932251
1683010591608840200,3.000840087890625,1.0570999383926392,-0.517799973487854,3.7925000190734863
1683010591628838700,3.020838623046875,1.333299994468689,-0.6627999544143677,4.5777997970581055
1683010591648838700,3.040838623046875,1.3903999328613281,-1.7533999681472778,5.205100059509277
1683010591668838700,3.060838623046875,1.311900019645691,-1.8050999641418457,5.2241997718811035
1683010591688838700,3.080838623046875,0.8919999599456787,-1.7424999475479126,3.8989999294281006
1683010591708838700,3.100838623046875,0.32189998030662537,-1.3460999727249146,2.17330002784729
1683010591728838700,3.120838623046875,-0.33949998021125793,-0.8136999607086182,0.3804999887943268
1683010591748838700,3.140838623046875,-0.7716999650001526,-0.373199999332428,-1.0598000288009644
1683010591768838700,3.160838623046875,-0.9524999856948853,-0.18159998953342438,-1.8942999839782715
1683010591788838700,3.180838623046875,-0.7892000079154968,-0.23539999127388,-1.827699899673462
1683010591808838700,3.200838623046875,-0.4596000015735626,-0.24279999732971191,-1.5260999202728271
1683010591828837000,3.220837158203125,-0.23569999635219574,-0.289000004529953,-1.214900016784668
1683010591848840200,3.240840087890625,0.08150000125169754,-0.31219998002052307,-1.2077000141143799
1683010591868838700,3.260838623046875,0.2784999907016754,-0.3806999921798706,-1.3075000047683716
1683010591888840200,3.280840087890625,0.2911999821662903,-0.21789999306201935,-1.5929999351501465
1683010591908838700,3.300838623046875,-0.026599999517202377,-0.023000000044703484,-2.0636000633239746
1683010591928837000,3.320837158203125,-0.5058000087738037,0.26440000534057617,-2.484099864959717
1683010591948838700,3.340838623046875,-0.8725999593734741,0.503600001335144,-2.7578999996185303
1683010591968838700,3.360838623046875,-1.067199945449829,0.5748000144958496,-2.7674999237060547
1683010591988840200,3.380840087890625,-1.255199909210205,0.5450999736785889,-2.7388999462127686
1683010592008840200,3.400840087890625,-1.46999990940094,0.3669999837875366,-2.592900037765503
1683010592028837000,3.420837158203125,-1.3055999279022217,0.2744999825954437,-1.9764999151229858
1683010592048837000,3.440837158203125,-0.9475999474525452,0.1816999912261963,-1.17330002784729
1683010592068837000,3.460837158203125,-0.6056999564170837,0.19689999520778656,-0.6345999836921692
1683010592088837000,3.480837158203125,-0.3773999810218811,0.23799999058246613,-0.14509999752044678
1683010592108837000,3.500837158203125,-0.3452000021934509,0.30539998412132263,0.2272000014781952
1683010592128838700,3.520838623046875,-0.3446999788284302,0.40529999136924744,0.462799996137619
1683010592148840200,3.540840087890625,-0.5428000092506409,0.36149999499320984,0.7767999768257141
1683010592168840200,3.560840087890625,-0.6229000091552734,0.28619998693466187,1.12909996509552
1683010592188838700,3.580838623046875,-0.729200005531311,0.14169999957084656,1.4127999544143677
1683010592208838700,3.600838623046875,-0.6703000068664551,0.05790000036358833,1.4606000185012817
1683010592228838700,3.620838623046875,-0.45350000262260437,-0.07090000063180923,1.2345999479293823
1683010592248838700,3.640838623046875,-0.5101000070571899,0.010599999688565731,0.5374999642372131
1683010592268840200,3.660840087890625,-0.32409998774528503,-0.515999972820282,0.7820999622344971
1683010592288838700,3.680838623046875,0.0038999998942017555,-0.7491999864578247,2.1912999153137207
1683010592308838700,3.700838623046875,-0.07729999721050262,-0.3385999798774719,2.669800043106079
1683010592328838700,3.720838623046875,-0.2630999982357025,-0.20109999179840088,2.6921000480651855
1683010592348838700,3.740838623046875,0.05179999768733978,-0.6315999627113342,3.5759999752044678
1683010592368838700,3.760838623046875,0.6905999779701233,-0.8402999639511108,4.389899730682373
1683010592388838700,3.780838623046875,0.9596999883651733,-0.6187999844551086,4.607800006866455
1683010592408840200,3.800840087890625,0.9713999629020691,0.022699998691678047,3.6608998775482178
1683010592428838700,3.820838623046875,0.8362999558448792,0.7741999626159668,1.795300006866455
1683010592448840200,3.840840087890625,0.4152999818325043,1.2358999252319336,-0.14790000021457672
1683010592468840200,3.860840087890625,0.09640000015497208,1.1210999488830566,-1.1018999814987183
1683010592488840200,3.880840087890625,-0.09189999848604202,0.4757999777793884,-0.9129999876022339
1683010592508840200,3.900840087890625,-0.4001999795436859,0.10130000114440918,-0.42669999599456787
1683010592528838700,3.920838623046875,-0.6434000134468079,-0.025299999862909317,0.38920000195503235
1683010592548838700,3.940838623046875,-0.5406000018119812,-0.14379999041557312,1.0677000284194946
1683010592568838700,3.960838623046875,0.042899999767541885,-0.15439999103546143,0.7978000044822693
1683010592588838700,3.980838623046875,0.49570000171661377,-0.20399999618530273,-0.3125999867916107
1683010592608838700,4.000838623046875,0.8007999658584595,-0.15729999542236328,-1.5388000011444092
1683010592628838700,4.020838623046875,0.7803999781608582,-0.147599995136261,-2.352599859237671
1683010592648838700,4.040838623046875,0.5956000089645386,-0.1816999912261963,-2.756899833679199
1683010592668838700,4.060838623046875,0.33309999108314514,-0.18119999766349792,-3.1915998458862305
1683010592688838700,4.080838623046875,-0.07069999724626541,-0.25220000743865967,-3.3812999725341797
1683010592708840200,4.100840087890625,-0.22429999709129333,-0.2556999921798706,-3.2181999683380127
1683010592728838700,4.120838623046875,-0.12060000002384186,-0.3456999957561493,-2.6721999645233154
1683010592748838700,4.140838623046875,0.06469999998807907,-0.5060999989509583,-1.7533999681472778
1683010592768838700,4.160838623046875,0.23669999837875366,-0.6715999841690063,-0.8840999603271484
1683010592788838700,4.180838623046875,0.45419999957084656,-0.8262999653816223,-0.32909998297691345
1683010592808838700,4.200838623046875,0.5961999893188477,-0.8646000027656555,-0.1753999888896942
1683010592828838700,4.220838623046875,0.7234999537467957,-0.9718999862670898,-0.16699999570846558
1683010592848838700,4.240838623046875,0.7699999809265137,-1.0310999155044556,-0.35359999537467957
1683010592868838700,4.260838623046875,0.8540999889373779,-1.1456999778747559,-0.33379998803138733
1683010592888838700,4.280838623046875,0.9387999773025513,-1.1917999982833862,-0.3527999818325043
1683010592908838700,4.300838623046875,0.9509999752044678,-1.0196999311447144,-0.3910999894142151
1683010592928838700,4.320838623046875,0.7304999828338623,-0.7035999894142151,-0.14499999582767487
1683010592948837000,4.340837158203125,0.4626999795436859,-0.3337000012397766,0.30719998478889465
1683010592968840200,4.360840087890625,0.29099997878074646,0.03280000016093254,0.7402999997138977
1683010592988838700,4.380838623046875,0.24740000069141388,0.0616999976336956,1.311900019645691
1683010593008840200,4.400840087890625,0.21040000021457672,-0.13859999179840088,2.128200054168701
1683010593028840200,4.420840087890625,0.4189999997615814,-0.28369998931884766,2.856299877166748
1683010593048838700,4.440838623046875,0.6647999882698059,-0.23629999160766602,3.194000005722046
1683010593068838700,4.460838623046875,0.8604999780654907,-0.028199998661875725,3.240000009536743
1683010593088838700,4.480838623046875,0.899899959564209,0.008499999530613422,3.3551998138427734
1683010593108838700,4.500838623046875,0.9185999631881714,-0.1973000019788742,3.803299903869629
1683010593128838700,4.520838623046875,0.6923999786376953,-0.3642999827861786,3.8874998092651367
1683010593148838700,4.540838623046875,0.10099999606609344,-0.1273999959230423,3.1374998092651367
1683010593168838700,4.560838623046875,-0.9097999930381775,0.23819999396800995,1.895900011062622
1683010593188838700,4.580838623046875,-1.705399990081787,0.4761999845504761,0.6018999814987183
1683010593208838700,4.600838623046875,-1.9965999126434326,0.3034999966621399,-0.5098000168800354
1683010593228838700,4.620838623046875,-1.8312000036239624,-0.07329999655485153,-1.1049000024795532
1683010593248838700,4.640838623046875,-1.354599952697754,-0.37950000166893005,-0.9551999568939209
1683010593268838700,4.660838623046875,-0.9054999947547913,-0.4148999750614166,-0.4503999948501587
1683010593288838700,4.680838623046875,-0.611799955368042,-0.35929998755455017,0.006000000052154064
1683010593308838700,4.700838623046875,-0.2516999840736389,-0.24279999732971191,0.04039999842643738
1683010593328838700,4.720838623046875,0.020499998703598976,-0.12370000034570694,-0.4838999807834625
1683010593348838700,4.740838623046875,0.1946999877691269,0.08980000019073486,-1.1931999921798706
1683010593368838700,4.760838623046875,0.1533999890089035,0.2328999936580658,-1.8025999069213867
1683010593388838700,4.780838623046875,-0.03500000014901161,0.2671999931335449,-2.205199956893921
1683010593408838700,4.800838623046875,-0.2004999965429306,0.3790999948978424,-2.195199966430664
1683010593428837000,4.820837158203125,-0.3231000006198883,0.5065000057220459,-1.9299999475479126
1683010593448838700,4.840838623046875,-0.5210999846458435,0.6273999810218811,-1.8011999130249023
1683010593468838700,4.860838623046875,-0.4779999852180481,0.8259999752044678,-1.7395999431610107
1683010593488840200,4.880840087890625,-0.3920999765396118,0.8637999892234802,-1.7953999042510986
1683010593508840200,4.900840087890625,-0.38909998536109924,0.748699963092804,-1.9577999114990234
1683010593528838700,4.920838623046875,-0.6038999557495117,0.6351000070571899,-2.2467000484466553
1683010593548838700,4.940838623046875,-0.7307999730110168,0.4634999930858612,-2.2995998859405518
1683010593568838700,4.960838623046875,-0.6969000101089478,0.2863999903202057,-2.0787999629974365
1683010593588838700,4.980838623046875,-0.5961999893188477,0.11259999871253967,-1.6832000017166138
1683010593608838700,5.000838623046875,-0.46709999442100525,0.02979999966919422,-1.0521999597549438
1683010593628837000,5.020837158203125,-0.17229999601840973,-0.007699999958276749,-0.037299998104572296
1683010593648840200,5.040840087890625,-0.0414000004529953,-0.11979999393224716,1.1646000146865845
1683010593668838700,5.060838623046875,0.2613999843597412,-0.22819998860359192,2.6220998764038086
1683010593688840200,5.080840087890625,0.179299995303154,-0.21139998733997345,4.099100112915039
1683010593708838700,5.100838623046875,0.5267999768257141,-0.44449999928474426,5.568699836730957
1683010593728838700,5.120838623046875,0.7049999833106995,-0.468099981546402,6.423500061035156
1683010593748838700,5.140838623046875,0.7676999568939209,-0.2662999927997589,5.552999973297119
1683010593768838700,5.160838623046875,0.8136000037193298,-0.30379998683929443,4.310999870300293
1683010593788838700,5.180838623046875,1.0845999717712402,-0.6482999920845032,3.8519999980926514
1683010593808838700,5.200838623046875,1.2595000267028809,-0.7325999736785889,3.1194000244140625
1683010593828838700,5.220838623046875,0.630899965763092,-0.40829998254776,1.7878999710083008
1683010593848838700,5.240838623046875,-0.2599000036716461,0.07970000058412552,-0.015399999916553497
1683010593868838700,5.260838623046875,-1.051800012588501,0.4018999934196472,-1.632200002670288
1683010593888838700,5.280838623046875,-1.1883999109268188,0.3385999798774719,-2.0954999923706055
1683010593908838700,5.300838623046875,-1.0232999324798584,0.33229997754096985,-2.0241000652313232
1683010593928838700,5.320838623046875,-1.0856999158859253,0.36169999837875366,-1.7125999927520752
1683010593948838700,5.340838623046875,-1.2655999660491943,0.335099995136261,-1.063599944114685
1683010593968838700,5.360838623046875,-1.1201000213623047,0.3344999849796295,-0.5364999771118164
1683010593988838700,5.380838623046875,-0.7985000014305115,0.27469998598098755,-0.4805999994277954
1683010594008840200,5.400840087890625,-0.40609997510910034,0.1590999960899353,-1.0210000276565552
1683010594028838700,5.420838623046875,-0.125,-0.029999999329447746,-1.8233000040054321
1683010594048838700,5.440838623046875,0.32749998569488525,-0.16459999978542328,-2.427000045776367
1683010594068838700,5.460838623046875,0.5785999894142151,-0.35850000381469727,-2.6275999546051025
1683010594088838700,5.480838623046875,0.6965999603271484,-0.5342000126838684,-2.4143998622894287
1683010594108838700,5.500838623046875,0.46379998326301575,-0.5946999788284302,-1.9950000047683716
1683010594128837000,5.520837158203125,0.10599999874830246,-0.6761999726295471,-1.3906999826431274
1683010594148837000,5.540837158203125,-0.1808999925851822,-0.6114000082015991,-0.9854999780654907
1683010594168837000,5.560837158203125,-0.15529999136924744,-0.5001000165939331,-0.7378000020980835
1683010594188837000,5.580837158203125,0.07199999690055847,-0.5227999687194824,-0.4104999899864197
1683010594208837000,5.600837158203125,0.259799987077713,-0.4465999901294708,-0.2692999839782715
1683010594228837000,5.620837158203125,0.45019999146461487,-0.3441999852657318,-0.24379999935626984
1683010594248837000,5.640837158203125,0.6729999780654907,-0.2296999990940094,-0.37389999628067017
1683010594268837000,5.660837158203125,0.7777000069618225,-0.2272999882698059,-0.4747999906539917
1683010594288837000,5.680837158203125,0.8538999557495117,-0.21689999103546143,-0.09539999812841415
1683010594308837000,5.700837158203125,0.9935999512672424,-0.24740000069141388,0.5895000100135803
1683010594328837000,5.720837158203125,0.9625999927520752,-0.1022999957203865,1.1680999994277954
1683010594348837000,5.740837158203125,0.9591999650001526,0.13239999115467072,1.5411999225616455
1683010594368837000,5.760837158203125,0.5877000093460083,0.27410000562667847,1.5924999713897705
1683010594388837000,5.780837158203125,0.26809999346733093,0.17739999294281006,1.5943999290466309
1683010594408837000,5.800837158203125,0.2696000039577484,-0.4034999907016754,3.0354998111724854
1683010594428837000,5.820837158203125,0.5098999738693237,-0.8316999673843384,4.6001996994018555
1683010594448837000,5.840837158203125,0.7056999802589417,-0.849399983882904,4.900199890136719
1683010594468837000,5.860837158203125,0.6980999708175659,-1.0719000101089478,4.969899654388428
1683010594488837000,5.880837158203125,0.538599967956543,-1.3447999954223633,4.728899955749512
1683010594508837000,5.900837158203125,-0.020399998873472214,-1.1902999877929688,4.017499923706055
1683010594528837000,5.920837158203125,-0.8941999673843384,-0.649399995803833,2.5316998958587646
1683010594548837000,5.940837158203125,-1.4794999361038208,-0.07440000027418137,0.4870999753475189
1683010594568837000,5.960837158203125,-1.420300006866455,0.15539999306201935,-0.9614999890327454
1683010594588837000,5.980837158203125,-0.9247999787330627,0.1410999894142151,-1.4532999992370605
1683010594608837000,6.000837158203125,-0.3360999822616577,0.0674000009894371,-1.0950000286102295
1683010594628837000,6.020837158203125,0.0004999999655410647,0.10409999638795853,-0.9045999646186829
1683010594648837000,6.040837158203125,0.04749999940395355,0.07069999724626541,-1.087399959564209
1683010594668837000,6.060837158203125,-0.0674000009894371,-0.03229999914765358,-1.6049998998641968
1683010594688837000,6.080837158203125,-0.2280000001192093,-0.13359999656677246,-2.2214999198913574
1683010594708837000,6.100837158203125,-0.3675999939441681,-0.18019999563694,-2.660399913787842
1683010594728837000,6.120837158203125,-0.4047999978065491,-0.15160000324249268,-2.9896998405456543
1683010594748837000,6.140837158203125,-0.35349997878074646,-0.05480000004172325,-3.1805999279022217
1683010594768837000,6.160837158203125,-0.3912999927997589,-0.15689998865127563,-3.1952998638153076
1683010594788837000,6.180837158203125,-0.27469998598098755,-0.04699999839067459,-2.9453999996185303
1683010594808837000,6.200837158203125,-0.08980000019073486,0.0648999959230423,-2.1554999351501465
1683010594828837000,6.220837158203125,-0.0015999999595806003,0.08379999548196793,-1.452799916267395
1683010594848837000,6.240837158203125,0.16920000314712524,0.09179999679327011,-0.9946999549865723
1683010594868837000,6.260837158203125,0.407399982213974,-0.028199998661875725,-0.486299991607666
1683010594888837000,6.280837158203125,0.45829999446868896,-0.10909999907016754,-0.14339999854564667
1683010594908837000,6.300837158203125,0.4219000041484833,-0.13840000331401825,-0.16120000183582306
1683010594928837000,6.320837158203125,0.17489999532699585,-0.13490000367164612,-0.2369999885559082
1683010594948838700,6.340838623046875,0.04209999740123749,-0.13239999115467072,-0.3901999890804291
1683010594968840200,6.360840087890625,-0.01599999889731407,-0.07090000063180923,-0.5027999877929688
1683010594988838700,6.380838623046875,0.005799999926239252,-0.004600000102072954,-0.17309999465942383
1683010595008838700,6.400838623046875,0.02579999901354313,0.21699999272823334,0.29580000042915344
1683010595028838700,6.420838623046875,-0.09119999408721924,0.38999998569488525,0.5798999667167664
1683010595048838700,6.440838623046875,-0.23099999129772186,0.5928999781608582,0.7080000042915344
1683010595068838700,6.460838623046875,-0.24969999492168427,0.7526999711990356,0.8860999941825867
1683010595088838700,6.480838623046875,-0.2825999855995178,0.9256999492645264,1.2889000177383423
1683010595108838700,6.500838623046875,-0.34459999203681946,1.0949000120162964,1.6033999919891357
1683010595128838700,6.520838623046875,-0.14419999718666077,0.7906999588012695,2.4480998516082764
1683010595148838700,6.540838623046875,0.045099999755620956,0.3628000020980835,4.052099704742432
1683010595168838700,6.560838623046875,0.5357999801635742,0.17319999635219574,4.966300010681152
1683010595188838700,6.580838623046875,0.6653000116348267,0.06719999760389328,3.9801998138427734
1683010595208838700,6.600838623046875,0.704800009727478,-0.19990000128746033,2.7804999351501465
1683010595228838700,6.620838623046875,0.8210999965667725,-0.3434999883174896,2.198699951171875
1683010595248838700,6.640838623046875,0.8168999552726746,-0.08479999750852585,2.0778000354766846
1683010595268838700,6.660838623046875,0.09619999676942825,0.32409998774528503,1.5597000122070312
1683010595288838700,6.680838623046875,-0.7798999547958374,0.19460000097751617,0.5453999638557434
1683010595308838700,6.700838623046875,-1.1193000078201294,-0.21379999816417694,0.02630000002682209
1683010595328838700,6.720838623046875,-0.8425999879837036,-0.49539998173713684,0.18320000171661377
1683010595348838700,6.740838623046875,-0.45409998297691345,-0.4966000020503998,0.5907999873161316
1683010595368838700,6.760838623046875,-0.3158999979496002,-0.5166000127792358,0.941100001335144
1683010595388840200,6.780840087890625,-0.09529999643564224,-0.6161999702453613,0.8574999570846558
1683010595408838700,6.800838623046875,0.09269999712705612,-0.6111999750137329,0.3499999940395355
1683010595428837000,6.820837158203125,0.16259999573230743,-0.5299999713897705,-0.5299999713897705
1683010595448838700,6.840838623046875,-0.03519999980926514,-0.3527999818325043,-1.7710999250411987
1683010595468838700,6.860838623046875,-0.06059999763965607,-0.20509999990463257,-2.854599952697754
1683010595488840200,6.880840087890625,-0.07209999859333038,-0.11499999463558197,-3.8290998935699463
1683010595508840200,6.900840087890625,-0.2272999882698059,-0.033799998462200165,-4.439599990844727
1683010595528838700,6.920838623046875,-0.37860000133514404,0.03849999979138374,-4.783599853515625
1683010595548837000,6.940837158203125,-0.4569000005722046,0.015099999494850636,-4.566699981689453
1683010595568837000,6.960837158203125,-0.34529998898506165,0.028999999165534973,-3.8593997955322266
1683010595588837000,6.980837158203125,-0.17309999465942383,-0.11729999631643295,-2.6054999828338623
1683010595608837000,7.000837158203125,0.01529999915510416,-0.35979998111724854,-1.0303000211715698
1683010595628837000,7.020837158203125,0.17559999227523804,-0.42659997940063477,0.3874000012874603
1683010595648837000,7.040837158203125,0.40219998359680176,-0.3131999969482422,1.0017999410629272
1683010595668837000,7.060837158203125,0.6703999638557434,-0.17870000004768372,1.3041999340057373
1683010595688837000,7.080837158203125,1.0885999202728271,-0.27239999175071716,1.921199917793274
1683010595708837000,7.100837158203125,1.2990999221801758,-0.20069999992847443,2.262500047683716
1683010595728837000,7.120837158203125,1.2312999963760376,-0.04609999805688858,2.043599843978882
1683010595748837000,7.140837158203125,1.1556999683380127,-0.006399999838322401,1.775999903678894
1683010595768837000,7.160837158203125,1.0190999507904053,0.07889999449253082,1.440999984741211
1683010595788837000,7.180837158203125,0.7063999772071838,0.10189999639987946,0.9311999678611755
1683010595808837000,7.200837158203125,0.8234999775886536,0.26489999890327454,1.0627999305725098
1683010595828837000,7.220837158203125,0.7805999517440796,-0.10969999432563782,1.7561999559402466
1683010595848837000,7.240837158203125,0.6965999603271484,-0.21629999577999115,2.8964998722076416
1683010595868837000,7.260837158203125,0.4730999767780304,-0.3709000051021576,3.9377999305725098
1683010595888837000,7.280837158203125,0.3141999840736389,-0.43949997425079346,4.930299758911133
1683010595908837000,7.300837158203125,0.1379999965429306,-0.3130999803543091,5.146599769592285
1683010595928837000,7.320837158203125,-0.03779999911785126,-0.07289999723434448,4.058300018310547
1683010595948837000,7.340837158203125,-0.14579999446868896,0.13840000331401825,2.0083000659942627
1683010595968837000,7.360837158203125,-0.22859999537467957,0.2256999909877777,-0.1605999916791916
1683010595988837000,7.380837158203125,-0.22899998724460602,0.19929999113082886,-1.5164999961853027
1683010596008840200,7.400840087890625,-0.0803999975323677,-0.04169999808073044,-1.8840999603271484
1683010596028838700,7.420838623046875,0.09459999948740005,-0.20349998772144318,-1.6845999956130981
1683010596048838700,7.440838623046875,0.10939999669790268,-0.12109999358654022,-1.348599910736084
1683010596068838700,7.460838623046875,-0.11140000075101852,-0.0340999998152256,-0.8659999966621399
1683010596088838700,7.480838623046875,-0.3999999761581421,-0.07159999758005142,-0.6485999822616577
1683010596108838700,7.500838623046875,-0.5030999779701233,-0.22439999878406525,-0.6074000000953674
1683010596128838700,7.520838623046875,-0.6521999835968018,-0.34450000524520874,-1.0444999933242798
1683010596148838700,7.540838623046875,-0.886199951171875,-0.44020000100135803,-1.4596999883651733
1683010596168838700,7.560838623046875,-1.1345999240875244,-0.47209998965263367,-1.9332998991012573
1683010596188838700,7.580838623046875,-1.2171999216079712,-0.41659998893737793,-2.4351999759674072
1683010596208838700,7.600838623046875,-1.166700005531311,-0.3625999987125397,-2.662299871444702
1683010596228838700,7.620838623046875,-0.977899968624115,-0.28139999508857727,-2.4484000205993652
1683010596248838700,7.640838623046875,-0.835099995136261,-0.21299999952316284,-2.2047998905181885
1683010596268838700,7.660838623046875,-0.6829999685287476,-0.27730000019073486,-1.7055999040603638
1683010596288838700,7.680838623046875,-0.47029998898506165,-0.26749998331069946,-1.274899959564209
1683010596308838700,7.700838623046875,-0.3799999952316284,-0.14339999854564667,-0.764799952507019
1683010596328838700,7.720838623046875,-0.3976999819278717,-0.06579999625682831,-0.35249999165534973
1683010596348838700,7.740838623046875,-0.3709000051021576,-0.007799999788403511,-0.24379999935626984
1683010596368838700,7.760838623046875,-0.3959999978542328,0.00559999980032444,-0.2622999846935272
1683010596388838700,7.780838623046875,-0.4343999922275543,0.03370000049471855,-0.34919998049736023
1683010596408840200,7.800840087890625,-0.4805999994277954,-0.05609999969601631,-0.29789999127388
1683010596428840200,7.820840087890625,-0.5806999802589417,-0.1127999946475029,-0.000699999975040555
1683010596448840200,7.840840087890625,-0.6152999997138977,-0.0050999997183680534,0.5422999858856201
1683010596468840200,7.860840087890625,-0.6477999687194824,0.10189999639987946,1.2523999214172363
1683010596488840200,7.880840087890625,-0.6829999685287476,0.1143999993801117,2.0109000205993652
1683010596508837000,7.900837158203125,-0.7915999889373779,-0.10189999639987946,2.629699945449829
1683010596528838700,7.920838623046875,-0.6592000126838684,-0.27799999713897705,2.345900058746338
1683010596548838700,7.940838623046875,-0.03720000013709068,-0.597599983215332,1.987399935722351
1683010596568838700,7.960838623046875,0.6211999654769897,-0.9866999983787537,2.8859000205993652
1683010596588838700,7.980838623046875,1.1176999807357788,-1.0073000192642212,4.313299655914307
1683010596608838700,8.000838623046874,1.180799961090088,-0.8032000064849854,5.3292999267578125
1683010596628838700,8.020838623046876,0.6055999994277954,-0.6161999702453613,5.1290998458862305
1683010596648838700,8.040838623046875,-0.04809999838471413,-0.001999999862164259,3.1442999839782715
1683010596668838700,8.060838623046875,-0.2985999882221222,0.2125999927520752,0.8402000069618225
1683010596688838700,8.080838623046875,-0.06780000030994415,0.31129997968673706,-0.6459000110626221
1683010596708838700,8.100838623046876,0.1444000005722046,-0.011799999512732029,-0.8587999939918518
1683010596728838700,8.120838623046875,0.1589999943971634,-0.11569999903440475,-0.6754999756813049
1683010596748838700,8.140838623046875,0.0009999999310821295,0.12069999426603317,-0.7028999924659729
1683010596768838700,8.160838623046875,-0.40379998087882996,0.3059999942779541,-0.9585999846458435
1683010596788838700,8.180838623046874,-0.5785999894142151,0.3181000053882599,-1.1352999210357666
1683010596808838700,8.200838623046875,-0.5352999567985535,0.21050000190734863,-1.6412999629974365
1683010596828838700,8.220838623046875,-0.614300012588501,0.005799999926239252,-2.1236000061035156
1683010596848838700,8.240838623046875,-0.7770999670028687,-0.2599000036716461,-2.3417999744415283
1683010596868838700,8.260838623046874,-0.9682999849319458,-0.31540000438690186,-2.418299913406372
1683010596888838700,8.280838623046876,-1.1477999687194824,-0.2458999902009964,-2.274899959564209
1683010596908838700,8.300838623046875,-1.2213000059127808,-0.07609999924898148,-2.181299924850464
1683010596928838700,8.320838623046875,-1.177899956703186,0.013499999418854713,-1.9577999114990234
1683010596948838700,8.340838623046874,-0.8229999542236328,-0.01209999993443489,-1.6434999704360962
1683010596968838700,8.360838623046876,-0.5239999890327454,-0.05909999832510948,-1.4163999557495117
1683010596988838700,8.380838623046875,-0.36969998478889465,-0.1825999915599823,-1.1606999635696411
1683010597008837000,8.400837158203124,-0.2976999878883362,-0.2777999937534332,-0.896399974822998
1683010597028838700,8.420838623046874,-0.1462000012397766,-0.2911999821662903,-0.7791999578475952
1683010597048838700,8.440838623046876,0.03319999948143959,-0.19299998879432678,-0.6908999681472778
1683010597068838700,8.460838623046875,0.17219999432563782,-0.015699999406933784,-0.4643999934196472
1683010597088838700,8.480838623046875,0.15289999544620514,0.14159999787807465,-0.2565999925136566
1683010597108838700,8.500838623046874,0.12029999494552612,0.2615000009536743,-0.11659999936819077
1683010597128838700,8.520838623046876,0.09649999439716339,0.36069998145103455,0.06269999593496323
1683010597148838700,8.540838623046875,-0.0965999960899353,0.44029998779296875,0.1525999903678894
1683010597168838700,8.560838623046875,-0.3560999929904938,0.4114999771118164,0.1832999885082245
1683010597188838700,8.580838623046875,-0.2110999971628189,0.34579998254776,0.09799999743700027
1683010597208838700,8.600838623046876,-0.15699999034404755,0.26589998602867126,-0.19020000100135803
1683010597228838700,8.620838623046875,-0.08139999955892563,0.06549999862909317,0.25209999084472656
1683010597248838700,8.640838623046875,0.16439999639987946,0.1379999965429306,0.9556999802589417
1683010597268838700,8.660838623046875,0.08659999817609787,0.23899999260902405,1.6288999319076538
1683010597288838700,8.680838623046874,-0.20409999787807465,0.33149999380111694,2.226799964904785
1683010597308838700,8.700838623046875,-0.6067000031471252,0.3569999933242798,2.4659998416900635
1683010597328838700,8.720838623046875,-0.814300000667572,0.10869999974966049,2.487799882888794
1683010597348838700,8.740838623046875,-0.5167999863624573,-0.1306999921798706,2.4131999015808105
1683010597368838700,8.760838623046874,0.012999999336898327,-0.13089999556541443,1.8514999151229858
1683010597388838700,8.780838623046876,0.41019999980926514,-0.3116999864578247,1.494399905204773
1683010597408838700,8.800838623046875,0.9419999718666077,-0.2549000084400177,1.1167999505996704
1683010597428838700,8.820838623046875,0.651699960231781,0.15770000219345093,1.0153999328613281
1683010597448838700,8.840838623046874,-0.49729999899864197,0.33009999990463257,0.6983999609947205
1683010597468838700,8.860838623046876,-1.5286999940872192,0.5067999958992004,0.351500004529953
1683010597488838700,8.880838623046875,-1.7039999961853027,0.5706999897956848,0.3840000033378601
1683010597508837000,8.900837158203124,-1.402999997138977,0.503600001335144,0.3172999918460846
1683010597528838700,8.920838623046874,-1.0547000169754028,0.11009999364614487,0.4593999981880188
1683010597548838700,8.940838623046876,-0.5331999659538269,-0.3292999863624573,0.5925999879837036
1683010597568838700,8.960838623046875,-0.20419999957084656,-0.6323999762535095,0.6062999963760376
1683010597588838700,8.980838623046875,-0.2671999931335449,-0.8301999568939209,0.28689998388290405
1683010597608838700,9.000838623046874,-0.43949997425079346,-0.8779999613761902,-0.21699999272823334
1683010597628838700,9.020838623046876,-0.6240000128746033,-0.9911999702453613,-0.4057999849319458
1683010597648838700,9.040838623046875,-0.6714999675750732,-0.8661999702453613,-0.4174000024795532
1683010597668838700,9.060838623046875,-0.7976999878883362,-0.5353999733924866,-0.32009997963905334
1683010597688838700,9.080838623046875,-1.0455999374389648,-0.1598999947309494,-0.39809998869895935
1683010597708838700,9.100838623046876,-1.263700008392334,0.03819999843835831,-0.8470999598503113
1683010597728838700,9.120838623046875,-1.2036999464035034,0.13679999113082886,-1.2847999334335327
1683010597748838700,9.140838623046875,-0.9957000017166138,0.13899999856948853,-1.3773999214172363
1683010597768838700,9.160838623046875,-1.0056999921798706,0.19839999079704285,-1.4000999927520752
1683010597788838700,9.180838623046874,-1.016700029373169,0.33629998564720154,-1.372499942779541
1683010597808838700,9.200838623046875,-0.9424999952316284,0.5011999607086182,-1.305899977684021
1683010597828838700,9.220838623046875,-0.7908999919891357,0.6607999801635742,-1.2975000143051147
1683010597848838700,9.240838623046875,-0.628600001335144,0.8315999507904053,-1.3366999626159668
1683010597868838700,9.260838623046874,-0.5745999813079834,0.9739999771118164,-1.4817999601364136
1683010597888838700,9.280838623046876,-0.5852000117301941,1.056999921798706,-1.5377999544143677
1683010597908838700,9.300838623046875,-0.6388999819755554,0.9843999743461609,-1.4067000150680542
1683010597928838700,9.320838623046875,-0.5375999808311462,0.9536999464035034,-0.8629999756813049
1683010597948838700,9.340838623046874,-0.49129998683929443,0.9359999895095825,-0.044999998062849045
1683010597968838700,9.360838623046876,-0.6123999953269958,0.8962000012397766,0.6827999949455261
1683010597988838700,9.380838623046875,-0.5697000026702881,0.8769999742507935,0.7319999933242798
1683010598008837000,9.400837158203124,-0.3937999904155731,0.7343999743461609,0.965999960899353
1683010598028838700,9.420838623046874,0.03350000083446503,0.521399974822998,1.5741000175476074
1683010598048838700,9.440838623046876,0.29409998655319214,0.16259999573230743,2.5379998683929443
1683010598068838700,9.460838623046875,0.6887999773025513,-0.6836000084877014,4.230199813842773
1683010598088838700,9.480838623046875,0.5152999758720398,-0.87909996509552,4.874499797821045
1683010598108838700,9.500838623046874,-0.11829999834299088,-1.097000002861023,4.484600067138672
1683010598128838700,9.520838623046876,-0.9417999982833862,-0.9317999482154846,2.866999864578247
1683010598148838700,9.540838623046875,-1.195599913597107,-0.5601999759674072,0.2502000033855438
1683010598168838700,9.560838623046875,-0.9437999725341797,-0.5625999569892883,-1.2858999967575073
1683010598188838700,9.580838623046875,-0.26729997992515564,-1.0789999961853027,-0.7498999834060669
1683010598208838700,9.600838623046876,0.2533999979496002,-0.9894999861717224,-0.3652999997138977
1683010598228838700,9.620838623046875,-0.10679999738931656,-0.7297999858856201,-0.1462000012397766
1683010598248838700,9.640838623046875,-0.5809999704360962,-0.38819998502731323,0.141199991106987
1683010598268838700,9.660838623046875,-0.9475999474525452,-0.21789999306201935,0.3093999922275543
1683010598288838700,9.680838623046874,-1.2019000053405762,-0.19119998812675476,0.25220000743865967
1683010598308838700,9.700838623046875,-1.3672000169754028,-0.3247999846935272,0.36069998145103455
1683010598328838700,9.720838623046875,-1.312600016593933,-0.3441999852657318,0.6924999952316284
1683010598348838700,9.740838623046875,-1.1922999620437622,-0.45170000195503235,0.7690999507904053
1683010598368838700,9.760838623046874,-0.8585999608039856,-0.4497999846935272,0.4641999900341034
1683010598388838700,9.780838623046876,-0.6008999943733215,-0.5622999668121338,-0.04490000009536743
1683010598408838700,9.800838623046875,-0.3937999904155731,-0.539900004863739,-0.38359999656677246
1683010598428838700,9.820838623046875,-0.2401999980211258,-0.432699978351593,-0.3367999792098999
1683010598448838700,9.840838623046874,-0.19829998910427094,-0.20489999651908875,-0.21050000190734863
1683010598468838700,9.860838623046876,-0.38339999318122864,-0.09690000116825104,-0.5069999694824219
1683010598488838700,9.880838623046875,-0.5019999742507935,-0.03280000016093254,-0.7263999581336975
1683010598508838700,9.900838623046875,-0.42819997668266296,0.06839999556541443,-0.8868999481201172
1683010598528838700,9.920838623046874,-0.31379997730255127,0.23399999737739563,-0.8896999955177307
1683010598548838700,9.940838623046876,-0.14999999105930328,0.3434000015258789,-0.7148000001907349
1683010598568838700,9.960838623046875,0.1419999897480011,0.40199998021125793,-0.4902999997138977
1683010598588838700,9.980838623046875,0.4242999851703644,0.5460999608039856,-0.06149999797344208
1683010598608838700,10.000838623046874,0.4625999927520752,0.7965999841690063,0.37529999017715454
1683010598628838700,10.020838623046876,0.23339998722076416,1.0469999313354492,0.729699969291687
1683010598648838700,10.040838623046875,-0.05769999697804451,1.5465999841690063,0.8934999704360962
1683010598668838700,10.060838623046875,-0.23229999840259552,1.8686000108718872,1.3199999332427979
1683010598688838700,10.080838623046875,-0.07689999788999557,2.0520999431610107,1.865399956703186
1683010598708840200,10.100840087890624,0.11329999566078186,2.0553998947143555,2.4704999923706055
1683010598728838700,10.120838623046875,-0.08630000054836273,1.9875999689102173,3.0052998065948486
1683010598748838700,10.140838623046875,-0.3166999816894531,1.6243999004364014,3.666599988937378
1683010598768838700,10.160838623046875,-0.503600001335144,0.8930000066757202,4.403599739074707
1683010598788838700,10.180838623046874,-0.3156999945640564,0.17350000143051147,4.894199848175049
1683010598808838700,10.200838623046875,-0.19039998948574066,-0.32179999351501465,4.100899696350098
1683010598828838700,10.220838623046875,-0.0746999979019165,-0.724299967288971,2.9168999195098877
1683010598848838700,10.240838623046875,0.1664000004529953,-0.9545999765396118,1.94979989528656
1683010598868838700,10.260838623046874,0.12780000269412994,-0.6998999714851379,0.8071999549865723
1683010598888838700,10.280838623046876,-0.3515999913215637,-0.3163999915122986,-0.5974999666213989
1683010598908838700,10.300838623046875,-0.8468999862670898,-0.14459998905658722,-1.8550999164581299
1683010598928838700,10.320838623046875,-0.7174999713897705,-0.21220000088214874,-2.063199996948242
1683010598948838700,10.340838623046874,-0.20059999823570251,-0.12700000405311584,-1.288699984550476
1683010598968838700,10.360838623046876,0.11969999969005585,-0.12129999697208405,-0.16939999163150787
1683010598988838700,10.380838623046875,0.15770000219345093,-0.09619999676942825,0.7813999652862549
1683010599008837000,10.400837158203124,-0.06679999828338623,-0.09160000085830688,1.070599913597107
1683010599028838700,10.420838623046874,-0.3407999873161316,-0.23959998786449432,0.9530999660491943
1683010599048838700,10.440838623046876,-0.4351999759674072,-0.400299996137619,0.6107000112533569
1683010599068838700,10.460838623046875,-0.6090999841690063,-0.7670999765396118,0.02669999934732914
1683010599088838700,10.480838623046875,-0.8586999773979187,-0.9307999610900879,-0.6818000078201294
1683010599108838700,10.500838623046874,-1.1588000059127808,-0.7936999797821045,-1.184000015258789
1683010599128838700,10.520838623046876,-1.6131999492645264,-0.640500009059906,-1.4917999505996704
1683010599148838700,10.540838623046875,-1.8386999368667603,-0.37059998512268066,-1.7221999168395996
1683010599168838700,10.560838623046875,-1.9336999654769897,-0.31700000166893005,-1.716499924659729
1683010599188838700,10.580838623046875,-1.9567999839782715,-0.36789998412132263,-1.6911998987197876
1683010599208838700,10.600838623046876,-1.8987998962402344,-0.502299964427948,-1.7049999237060547
1683010599228837000,10.620837158203125,-1.583899974822998,-0.3529999852180481,-1.8161998987197876
1683010599248837000,10.640837158203125,-1.3270999193191528,-0.2775999903678894,-1.6244999170303345
1683010599268837000,10.660837158203124,-1.0296999216079712,-0.1695999950170517,-1.2771999835968018
1683010599288837000,10.680837158203126,-0.6344000101089478,-0.052299998700618744,-0.9487999677658081
1683010599308837000,10.700837158203125,-0.31349998712539673,0.02070000022649765,-0.6875999569892883
1683010599328837000,10.720837158203125,-0.07909999787807465,0.22509999573230743,-0.3854999840259552
1683010599348837000,10.740837158203124,-0.15799999237060547,0.40139999985694885,-0.1597999930381775
1683010599368837000,10.760837158203126,-0.40219998359680176,0.5715999603271484,-0.08980000019073486
1683010599388837000,10.780837158203125,-0.39499998092651367,0.6292999982833862,0.2158999890089035
1683010599408837000,10.800837158203125,-0.2654999792575836,0.5253999829292297,0.9244999885559082
1683010599428837000,10.820837158203124,-0.22109998762607574,0.31700000166893005,1.789199948310852
1683010599448837000,10.840837158203126,0.00279999990016222,0.0973999947309494,2.7022998332977295
1683010599468837000,10.860837158203125,0.04089999943971634,-0.2597000002861023,4.191499710083008
1683010599488837000,10.880837158203125,-0.045899998396635056,-0.3179999887943268,4.941099643707275
1683010599508837000,10.900837158203124,-0.24859999120235443,-0.22899998724460602,5.122200012207031
1683010599528837000,10.920837158203126,-0.44099998474121094,-0.2554999887943268,4.959700107574463
1683010599548837000,10.940837158203125,-0.26759999990463257,-0.3296999931335449,4.094099998474121
1683010599568837000,10.960837158203125,-0.3102000057697296,-0.31039997935295105,2.400399923324585
1683010599588837000,10.980837158203125,-0.28209999203681946,-0.1899999976158142,0.5848000049591064
1683010599608837000,11.000837158203124,-0.15209999680519104,-0.5691999793052673,-1.1582999229431152
1683010599628837000,11.020837158203125,-0.031099999323487282,-0.9821999669075012,-2.0279998779296875
1683010599648837000,11.040837158203125,0.22529999911785126,-1.0227999687194824,-1.9711999893188477
1683010599668837000,11.060837158203125,0.23559999465942383,-0.821399986743927,-1.2551000118255615
1683010599688837000,11.080837158203124,-0.012299999594688416,-0.45170000195503235,-0.614799976348877
1683010599708837000,11.100837158203126,-0.29350000619888306,-0.15559999644756317,-0.5654000043869019
1683010599728837000,11.120837158203125,-0.44749999046325684,0.012600000016391277,-0.976699948310852
1683010599748837000,11.140837158203125,-0.3529999852180481,0.03370000049471855,-1.3162999153137207
1683010599768840200,11.160840087890625,-0.21809999644756317,0.017400000244379044,-1.4875999689102173
1683010599788838700,11.180838623046874,-0.28439998626708984,-0.02929999865591526,-1.6988999843597412
1683010599808838700,11.200838623046875,-0.33799999952316284,0.031700000166893005,-2.1949000358581543
1683010599828838700,11.220838623046875,-0.1289999932050705,0.147599995136261,-2.111599922180176
1683010599848838700,11.240838623046875,0.023399999365210533,0.25369998812675476,-1.8808999061584473
1683010599868838700,11.260838623046874,0.11649999767541885,0.368399977684021,-1.6596999168395996
1683010599888838700,11.280838623046876,0.2092999964952469,0.36079999804496765,-1.4580999612808228
1683010599908838700,11.300838623046875,0.39959999918937683,0.22669999301433563,-1.1094999313354492
1683010599928838700,11.320838623046875,0.44999998807907104,0.12219999730587006,-0.8393999934196472
1683010599948838700,11.340838623046874,0.5806999802589417,-0.05739999935030937,-0.6074999570846558
1683010599968838700,11.360838623046876,0.729200005531311,-0.22849999368190765,-0.17909999191761017
1683010599988838700,11.380838623046875,0.8967999815940857,-0.22100000083446503,0.03370000049471855
1683010600008837000,11.400837158203124,0.8934999704360962,-0.14819999039173126,0.5893999934196472
1683010600028838700,11.420838623046874,0.7655999660491943,-0.009800000116229057,0.9490000009536743
1683010600048838700,11.440838623046876,0.6298999786376953,0.1396999955177307,0.810699999332428
1683010600068838700,11.460838623046875,0.5547999739646912,0.1679999977350235,0.880299985408783
1683010600088838700,11.480838623046875,0.24309998750686646,0.10199999809265137,1.1261999607086182
1683010600108838700,11.500838623046874,-0.17090000212192535,-0.09869999438524246,1.2741999626159668
1683010600128838700,11.520838623046876,-0.3547999858856201,-0.4219000041484833,1.9606999158859253
1683010600148838700,11.540838623046875,-0.1428000032901764,-0.753600001335144,3.0576000213623047
1683010600168838700,11.560838623046875,0.40939998626708984,-1.204800009727478,4.782099723815918
1683010600188838700,11.580838623046875,0.9343999624252319,-1.3105000257492065,6.015899658203125
1683010600208838700,11.600838623046876,1.1039999723434448,-0.9494999647140503,5.76069974899292
1683010600228838700,11.620838623046875,0.8121999502182007,-0.34039998054504395,4.240900039672852
1683010600248838700,11.640838623046875,0.48019999265670776,0.18799999356269836,2.181999921798706
1683010600268838700,11.660838623046875,-0.028699999675154686,0.43879997730255127,0.25040000677108765
1683010600288838700,11.680838623046874,-0.5432999730110168,0.545199990272522,-1.476199984550476
1683010600308838700,11.700838623046875,-0.6671000123023987,0.1678999960422516,-1.8700999021530151
1683010600328838700,11.720838623046875,-0.6881999969482422,-0.28839999437332153,-1.3930000066757202
1683010600348840200,11.740840087890625,-0.9554999470710754,-0.4578999876976013,-0.8197000026702881
1683010600368840200,11.760840087890625,-1.2374999523162842,-0.3990999758243561,-0.6791999936103821
1683010600388840200,11.780840087890626,-1.26419997215271,-0.47509998083114624,-0.8521999716758728
1683010600408840200,11.800840087890625,-0.8781999945640564,-0.640500009059906,-1.112299919128418
1683010600428840200,11.820840087890625,-0.5464000105857849,-0.725600004196167,-1.173799991607666
1683010600448838700,11.840838623046874,-0.3569999933242798,-0.6326000094413757,-1.2340999841690063
1683010600468838700,11.860838623046876,-0.39259999990463257,-0.399399995803833,-1.3823000192642212
1683010600488838700,11.880838623046875,-0.5090999603271484,-0.21959999203681946,-1.4822999238967896
1683010600508837000,11.900837158203124,-0.6344000101089478,-0.1664000004529953,-1.768799901008606
1683010600528838700,11.920838623046874,-0.6866999864578247,-0.042899999767541885,-1.956299901008606
1683010600548838700,11.940838623046876,-0.8305000066757202,0,-2.1039998531341553
1683010600568838700,11.960838623046875,-0.9580999612808228,0.05260000005364418,-2.3785998821258545
1683010600588838700,11.980838623046875,-0.9757999777793884,0.07029999792575836,-2.408399820327759
1683010600608838700,12.000838623046874,-0.9220999479293823,0.08349999785423279,-2.448199987411499
1683010600628838700,12.020838623046876,-0.7601999640464783,0.04470000043511391,-2.223099946975708
1683010600648838700,12.040838623046875,-0.5690000057220459,0.0835999995470047,-1.948699951171875
1683010600668838700,12.060838623046875,-0.3278999924659729,0.029600000008940697,-1.5271999835968018
1683010600688838700,12.080838623046875,-0.09439999610185623,-0.05869999900460243,-0.9292999505996704
1683010600708838700,12.100838623046876,0.11189999431371689,-0.07019999623298645,-0.22349999845027924
1683010600728838700,12.120838623046875,0.11149999499320984,0.05069999769330025,0.3747999966144562
1683010600748838700,12.140838623046875,0.09939999878406525,0.09600000083446503,1.0130000114440918
1683010600768838700,12.160838623046875,0.11509999632835388,0.13279999792575836,1.9066998958587646
1683010600788838700,12.180838623046874,0.01769999973475933,0.35760000348091125,2.5169999599456787
1683010600808838700,12.200838623046875,-0.09849999845027924,0.5343999862670898,2.5508999824523926
1683010600828838700,12.220838623046875,-0.18719999492168427,0.6334999799728394,2.2029998302459717
1683010600848838700,12.240838623046875,-0.24929998815059662,1.0127999782562256,1.0814999341964722
1683010600868838700,12.260838623046874,0.06369999796152115,0.7386999726295471,1.0418999195098877
1683010600888838700,12.280838623046876,0.5593000054359436,0.48639997839927673,2.1668999195098877
1683010600908838700,12.300838623046875,0.4702000021934509,0.6399999856948853,2.38919997215271
1683010600928838700,12.320838623046875,-0.08020000159740448,0.7870000004768372,2.1412999629974365
1683010600948838700,12.340838623046874,-0.5464000105857849,0.5004000067710876,2.596299886703491
1683010600968838700,12.360838623046876,-0.543999969959259,0.11539999395608902,3.2249999046325684
1683010600988837000,12.380837158203125,-0.49309998750686646,-0.125900000333786,3.3736000061035156
1683010601008837000,12.400837158203124,-0.07199999690055847,-0.06149999797344208,3.366499900817871
1683010601028837000,12.420837158203126,0.11819999665021896,0.17409999668598175,2.419600009918213
1683010601048837000,12.440837158203125,0.06499999761581421,0.38850000500679016,0.9145999550819397
1683010601068837000,12.460837158203125,0.14880000054836273,0.3950999975204468,-0.19869999587535858
1683010601088837000,12.480837158203125,0.412200003862381,0.20879998803138733,-0.2556000053882599
1683010601108873200,12.500873291015624,0.4542999863624573,-0.057999998331069946,0.15379999577999115
1683010601128838700,12.520838623046876,0.1898999959230423,-0.155799999833107,0.6586999893188477
1683010601148838700,12.540838623046875,-0.22540000081062317,-0.17559999227523804,0.6607999801635742
1683010601168838700,12.560838623046875,-0.28779998421669006,-0.2206999957561493,0.16429999470710754
1683010601188838700,12.580838623046875,0.01119999960064888,-0.13409999012947083,-0.7708999514579773
1683010601208838700,12.600838623046876,0.147599995136261,-0.14149999618530273,-1.7039999961853027
1683010601228838700,12.620838623046875,0.18789999186992645,-0.04309999942779541,-2.518199920654297
1683010601248838700,12.640838623046875,0.19329999387264252,-0.0997999981045723,-3.0092999935150146
1683010601268838700,12.660838623046875,0.13830000162124634,-0.08969999849796295,-3.138399839401245
1683010601288838700,12.680838623046874,0.12789998948574066,-0.0011999999405816197,-3.199199914932251
1683010601308838700,12.700838623046875,0.18519999086856842,0.04879999905824661,-2.886699914932251
1683010601328838700,12.720838623046875,0.1867000013589859,0.11559999734163284,-2.4761998653411865
1683010601348838700,12.740838623046875,0.18959999084472656,0.09339999407529831,-2.0562000274658203
1683010601368838700,12.760838623046874,0.16279999911785126,-0.10769999772310257,-1.6655999422073364
1683010601388838700,12.780838623046876,0.2378999888896942,-0.2246999889612198,-1.2645000219345093
1683010601408838700,12.800838623046875,0.31349998712539673,-0.3325999975204468,-0.6079999804496765
1683010601428838700,12.820838623046875,0.30809998512268066,-0.251800000667572,0.008700000122189522
1683010601448838700,12.840838623046874,0.26159998774528503,-0.14379999041557312,0.37139999866485596
1683010601468838700,12.860838623046876,0.2012999951839447,-0.1939999908208847,0.626800000667572
1683010601488838700,12.880838623046875,0.31139999628067017,-0.2093999981880188,0.6951000094413757
1683010601508838700,12.900838623046875,0.5995999574661255,-0.20749999582767487,0.7141000032424927
1683010601528838700,12.920838623046874,0.7886999845504761,-0.18079999089241028,0.9395999908447266
1683010601548838700,12.940838623046876,0.7906999588012695,-0.017799999564886093,1.146299958229065
1683010601568838700,12.960838623046875,0.7214999794960022,0.010400000028312206,1.451799988746643
1683010601588838700,12.980838623046875,0.6358000040054321,-0.028699999675154686,1.962999939918518
1683010601608838700,13.000838623046874,0.704800009727478,-0.23889999091625214,2.9458999633789062
1683010601628838700,13.020838623046876,0.8858000040054321,-0.4244999885559082,4.174099922180176
1683010601648838700,13.040838623046875,1.1425999402999878,-0.40059998631477356,4.491199970245361
1683010601668838700,13.060838623046875,1.1574000120162964,-0.36550000309944153,3.857499837875366
1683010601688838700,13.080838623046875,0.7081999778747559,-0.6380000114440918,3.6043999195098877
1683010601708838700,13.100838623046876,0.06149999797344208,-0.651199996471405,3.4108998775482178
1683010601728838700,13.120838623046875,-0.9291999936103821,-0.42170000076293945,2.9255998134613037
1683010601748838700,13.140838623046875,-1.9120999574661255,-0.03869999945163727,2.0476999282836914
1683010601768838700,13.160838623046875,-2.4654998779296875,0.3025999963283539,0.6351999640464783
1683010601788838700,13.180838623046874,-2.463899850845337,0.14800000190734863,-0.7145999670028687
1683010601808838700,13.200838623046875,-1.3021999597549438,0.17970000207424164,-1.281000018119812
1683010601828838700,13.220838623046875,-0.45499998331069946,-0.12539999186992645,-1.5396000146865845
1683010601848838700,13.240838623046875,0.08609999716281891,-0.1550000011920929,-1.192199945449829
1683010601868838700,13.260838623046874,0.37779998779296875,-0.13220000267028809,-0.9442999958992004
1683010601888838700,13.280838623046876,0.28119999170303345,-0.09380000084638596,-0.8453999757766724
1683010601908838700,13.300838623046875,0.1403999924659729,-0.09749999642372131,-0.7653999924659729
1683010601928838700,13.320838623046875,0.1054999977350235,-0.10439999401569366,-0.7917999625205994
1683010601948838700,13.340838623046874,0.03309999778866768,-0.08699999749660492,-1.0822999477386475
1683010601968838700,13.360838623046876,-0.1314999908208847,-0.0024999999441206455,-1.5191999673843384
1683010601988838700,13.380838623046875,-0.39809998869895935,0.1184999942779541,-2.024199962615967
1683010602008838700,13.400838623046875,-0.5421000123023987,0.08429999649524689,-2.4301998615264893
1683010602028838700,13.420838623046874,-0.5862999558448792,0.06109999865293503,-2.8446998596191406
1683010602048838700,13.440838623046876,-0.4034999907016754,0.11189999431371689,-3.002699851989746
1683010602068838700,13.460838623046875,-0.3458999991416931,0.1006999984383583,-2.846099853515625
1683010602088838700,13.480838623046875,-0.46539998054504395,0.16349999606609344,-2.562299966812134
1683010602108838700,13.500838623046874,-0.5569999814033508,0.19990000128746033,-2.0237998962402344
1683010602128838700,13.520838623046876,-0.5848000049591064,0.28279998898506165,-1.5529999732971191
1683010602148838700,13.540838623046875,-0.5094000101089478,0.29009997844696045,-1.1098999977111816
1683010602168838700,13.560838623046875,-0.32670000195503235,0.21069999039173126,-0.34299999475479126
1683010602188838700,13.580838623046875,-0.21799999475479126,0.2604999840259552,0.3646000027656555
1683010602208838700,13.600838623046876,-0.20989999175071716,0.30959999561309814,0.808899998664856
1683010602228838700,13.620838623046875,-0.23429998755455017,0.37449997663497925,0.9997999668121338
1683010602248838700,13.640838623046875,-0.140299990773201,0.4267999827861786,1.1132999658584595
1683010602268838700,13.660838623046875,-0.21389999985694885,0.46769997477531433,1.1891000270843506
1683010602288838700,13.680838623046874,-0.275299996137619,0.5169999599456787,1.3446999788284302
1683010602308838700,13.700838623046875,-0.5471000075340271,0.7293999791145325,1.0779999494552612
1683010602328838700,13.720838623046875,-0.5580999851226807,0.35420000553131104,1.5765999555587769
1683010602348838700,13.740838623046875,-0.17639999091625214,-0.1858000010251999,3.3469998836517334
1683010602368838700,13.760838623046874,0.0011999999405816197,-0.19259999692440033,4.165599822998047
1683010602388837000,13.780837158203125,-0.013499999418854713,-0.1477999985218048,4.418699741363525
1683010602408837000,13.800837158203125,0.017500000074505806,-0.1613999903202057,4.309799671173096
1683010602428837000,13.820837158203124,0.2361999899148941,-0.0762999951839447,3.396199941635132
1683010602448837000,13.840837158203126,0.29330000281333923,0.17489999532699585,1.9928998947143555
1683010602468837000,13.860837158203125,0.17260000109672546,0.4908999800682068,0.5327999591827393
1683010602488837000,13.880837158203125,-0.03439999744296074,0.5697999596595764,-0.7369999885559082
1683010602508837000,13.900837158203124,-0.006599999964237213,0.4456999897956848,-1.2436000108718872
1683010602528837000,13.920837158203126,-0.11050000041723251,-0.025499999523162842,-0.8666999936103821
1683010602548837000,13.940837158203125,-0.06199999898672104,-0.24399998784065247,-0.08869999647140503
1683010602568837000,13.960837158203125,-0.6442999839782715,-0.35169997811317444,0.6729999780654907
1683010602588837000,13.980837158203125,-1.1165000200271606,-0.2919999957084656,1.1196999549865723
1683010602608837000,14.000837158203124,-1.1520999670028687,-0.2825999855995178,0.9811999797821045
1683010602628837000,14.020837158203125,-0.6405999660491943,-0.3066999912261963,0.37549999356269836
1683010602648837000,14.040837158203125,0.13529999554157257,-0.3294999897480011,-0.4818999767303467
1683010602668837000,14.060837158203125,0.7206000089645386,-0.34880000352859497,-1.2978999614715576
1683010602688837000,14.080837158203124,0.986799955368042,-0.23799999058246613,-1.9575999975204468
1683010602708837000,14.100837158203126,1.00409996509552,-0.1516999900341034,-2.549499988555908
1683010602728837000,14.120837158203125,0.8522999882698059,-0.1517999917268753,-2.8857998847961426
1683010602748837000,14.140837158203125,0.5717999935150146,-0.16539999842643738,-2.9470999240875244
1683010602768837000,14.160837158203124,0.24949999153614044,-0.15879999101161957,-2.626699924468994
1683010602788837000,14.180837158203126,0.005200000014156103,-0.15269999206066132,-2.091599941253662
1683010602808837000,14.200837158203125,-0.06260000169277191,-0.10170000046491623,-1.6345999240875244
1683010602828837000,14.220837158203125,0.025100000202655792,-0.05159999802708626,-1.1969000101089478
1683010602848837000,14.240837158203124,0.1898999959230423,-0.148499995470047,-0.7784000039100647
1683010602868837000,14.260837158203126,0.4000999927520752,-0.12849999964237213,-0.46719998121261597
1683010602888837000,14.280837158203125,0.5848000049591064,-0.10449999570846558,-0.07639999687671661
1683010602908837000,14.300837158203125,0.7105000019073486,-0.07589999586343765,0.3540000021457672
1683010602928837000,14.320837158203124,0.7690999507904053,-0.11490000039339066,0.8039999604225159
1683010602948837000,14.340837158203126,0.8934999704360962,-0.10599999874830246,1.028999924659729
1683010602968837000,14.360837158203125,1.056399941444397,-0.07360000163316727,1.2458999156951904
1683010602988837000,14.380837158203125,1.0721999406814575,-0.14739999175071716,1.4742999076843262
1683010603008837000,14.400837158203124,0.9565999507904053,-0.3243999779224396,1.4501999616622925
1683010603028837000,14.420837158203126,1.0504000186920166,-0.7015999555587769,1.7247999906539917
1683010603048837000,14.440837158203125,1.1318999528884888,-0.9756999611854553,2.9721999168395996
1683010603068837000,14.460837158203125,0.8585999608039856,-0.7035999894142151,4.2403998374938965
1683010603088837000,14.480837158203125,0.17000000178813934,-0.3612000048160553,4.530299663543701
1683010603108837000,14.500837158203124,-0.5821999907493591,-0.4608999788761139,5.011300086975098
1683010603128837000,14.520837158203125,-0.5550999641418457,-0.32760000228881836,4.898399829864502
1683010603148837000,14.540837158203125,-0.5719999670982361,0.06939999759197235,3.6201999187469482
1683010603168837000,14.560837158203125,-0.5640000104904175,0.4672999978065491,1.6949999332427979
1683010603188837000,14.580837158203124,-0.5554999709129333,0.6126999855041504,-0.37070000171661377
1683010603208837000,14.600837158203126,-0.493399977684021,0.30410000681877136,-1.6383999586105347
1683010603228837000,14.620837158203125,-0.34599998593330383,-0.17749999463558197,-1.9407999515533447
1683010603248837000,14.640837158203125,-0.25369998812675476,-0.5450999736785889,-1.8109999895095825
1683010603268837000,14.660837158203124,-0.17379999160766602,-0.4408999979496002,-1.6093000173568726
1683010603288837000,14.680837158203126,-0.38499999046325684,-0.22059999406337738,-1.3978999853134155
1683010603308837000,14.700837158203125,-0.7387999892234802,-0.16679999232292175,-1.2279000282287598
1683010603328837000,14.720837158203125,-0.7218999862670898,-0.22859999537467957,-1.1775000095367432
1683010603348837000,14.740837158203124,-0.5081999897956848,-0.25290000438690186,-1.194100022315979
1683010603368837000,14.760837158203126,-0.38259997963905334,-0.19689999520778656,-1.2381999492645264
1683010603388837000,14.780837158203125,-0.30379998683929443,-0.13439999520778656,-1.1431000232696533
1683010603408837000,14.800837158203125,-0.352400004863739,-0.06689999997615814,-0.9494999647140503
1683010603428837000,14.820837158203124,-0.45239999890327454,-0.06340000033378601,-0.6568999886512756
1683010603448837000,14.840837158203126,-0.471699982881546,-0.007499999832361937,-0.6096000075340271
1683010603468837000,14.860837158203125,-0.5570999979972839,0.06610000133514404,-1.0612999200820923
1683010603488837000,14.880837158203125,-0.664900004863739,0.1542000025510788,-1.5799999237060547
1683010603508837000,14.900837158203124,-0.7536999583244324,0.21220000088214874,-2.2144999504089355
1683010603528837000,14.920837158203126,-0.767799973487854,0.21859999001026154,-2.4930999279022217
1683010603548837000,14.940837158203125,-0.8325999975204468,0.23759999871253967,-2.5055999755859375
1683010603568837000,14.960837158203125,-0.8763999938964844,0.30699998140335083,-2.26419997215271
1683010603588837000,14.980837158203125,-0.9382999539375305,0.3570999801158905,-1.8573999404907227
1683010603608837000,15.000837158203124,-0.8926999568939209,0.26269999146461487,-1.187399983406067
1683010603628837000,15.020837158203125,-0.5676000118255615,0.06499999761581421,-0.3021000027656555
1683010603648837000,15.040837158203125,-0.23579999804496765,-0.1256999969482422,0.8666999936103821
1683010603668837000,15.060837158203125,0.04800000041723251,-0.2759000062942505,2.0558998584747314
1683010603688837000,15.080837158203124,0.17459999024868011,-0.27129998803138733,2.6967999935150146
1683010603708837000,15.100837158203126,0.28949999809265137,0.04749999940395355,2.514400005340576
1683010603728837000,15.120837158203125,0.35679998993873596,0.4334999918937683,1.9235999584197998
1683010603748837000,15.140837158203125,0.5928999781608582,0.12719999253749847,2.7675998210906982
1683010603768837000,15.160837158203124,0.8479999899864197,-0.0778999999165535,4.285200119018555
1683010603788837000,15.180837158203126,0.5464000105857849,0.22379998862743378,4.860799789428711
1683010603808837000,15.200837158203125,0.0015999999595806003,0.3431999981403351,4.925899982452393
1683010603828837000,15.220837158203125,-0.16369999945163727,0.14790000021457672,4.507999897003174
1683010603848837000,15.240837158203124,0.2502000033855438,-0.17339999973773956,2.9944000244140625
1683010603868837000,15.260837158203126,0.4562999904155731,-0.2272000014781952,0.8678999543190002
1683010603888837000,15.280837158203125,0.23389999568462372,0.04319999739527702,-0.7357999682426453
1683010603908837000,15.300837158203125,-0.4366999864578247,-0.024699999019503593,-1.7975999116897583
1683010603928837000,15.320837158203124,-0.7608000040054321,0.044599998742341995,-2.286799907684326
1683010603948837000,15.340837158203126,-0.9763999581336975,-0.1436000019311905,-1.4840999841690063
1683010603968837000,15.360837158203125,-0.8549999594688416,-0.07289999723434448,-0.3252999782562256
1683010603988837000,15.380837158203125,-0.8773999810218811,0.1735999882221222,0.10889999568462372
1683010604008837000,15.400837158203124,-0.7113999724388123,0.23019999265670776,-0.1306999921798706
1683010604028837000,15.420837158203126,-0.22589999437332153,0.2750999927520752,-0.5561999678611755
1683010604048837000,15.440837158203125,0.15559999644756317,0.2921999990940094,-1.0611000061035156
1683010604068837000,15.460837158203125,0.24489998817443848,0.40629997849464417,-1.5087999105453491
1683010604088837000,15.480837158203125,0.2126999944448471,0.35589998960494995,-1.9192999601364136
1683010604108837000,15.500837158203124,0.17159999907016754,0.3854999840259552,-2.2426998615264893
1683010604128837000,15.520837158203125,0.2248999923467636,0.376800000667572,-2.123699903488159
1683010604148837000,15.540837158203125,0.1785999983549118,0.3853999972343445,-1.8366999626159668
1683010604168837000,15.560837158203125,0.2198999971151352,0.3480999767780304,-1.3136999607086182
1683010604188837000,15.580837158203124,0.3474999964237213,0.3391000032424927,-0.7821999788284302
1683010604208837000,15.600837158203126,0.46480000019073486,0.11679999530315399,-0.3886999785900116
1683010604228837000,15.620837158203125,0.6451999545097351,-0.09789999574422836,-0.1621999889612198
1683010604248837000,15.640837158203125,0.8486999869346619,-0.24650000035762787,0.006300000008195639
1683010604268837000,15.660837158203124,0.9699999690055847,-0.34389999508857727,0.24469999969005585
1683010604288837000,15.680837158203126,0.8966999650001526,-0.435699999332428,0.33629998564720154
1683010604308837000,15.700837158203125,0.7567999958992004,-0.3349999785423279,0.5658000111579895
1683010604328837000,15.720837158203125,0.6292999982833862,-0.273499995470047,0.8155999779701233
1683010604348837000,15.740837158203124,0.6193999648094177,-0.2525999844074249,0.5861999988555908
1683010604368837000,15.760837158203126,0.6766999959945679,-0.3172000050544739,0.32839998602867126
1683010604388837000,15.780837158203125,0.7163000106811523,-0.48819997906684875,0.4936999976634979
1683010604408837000,15.800837158203125,0.6459999680519104,-0.602400004863739,0.9052000045776367
1683010604428837000,15.820837158203124,0.6434000134468079,-0.7515000104904175,1.5241999626159668
1683010604448837000,15.840837158203126,1.0098999738693237,-1.2062000036239624,3.251199960708618
1683010604468837000,15.860837158203125,1.1988999843597412,-1.5087999105453491,4.7906999588012695
1683010604488837000,15.880837158203125,1.0710999965667725,-1.5505999326705933,5.056600093841553
1683010604508837000,15.900837158203124,0.5812999606132507,-1.216499924659729,3.931999921798706
1683010604528837000,15.920837158203126,-0.0568000003695488,-0.9648999571800232,2.8551998138427734
1683010604548837000,15.940837158203125,-0.5299000144004822,-0.687999963760376,1.6899999380111694
1683010604568837000,15.960837158203125,-0.8716999888420105,-0.29909998178482056,0.48569998145103455
1683010604588837000,15.980837158203125,-0.8331999778747559,-0.0008999999845400453,-0.5812000036239624
1683010604608837000,16.000837158203126,-0.7346000075340271,0.04919999837875366,-1.2770999670028687
1683010604628837000,16.020837158203125,-0.6504999995231628,-0.07050000131130219,-1.260699987411499
1683010604648837000,16.040837158203125,-0.5799999833106995,-0.04529999941587448,-0.8422999978065491
1683010604668837000,16.060837158203125,-0.5895000100135803,0.07559999823570251,-0.5503000020980835
1683010604688837000,16.080837158203124,-0.6014999747276306,0.14229999482631683,-0.4348999857902527
1683010604708838700,16.100838623046876,-0.5483999848365784,0.11490000039339066,-0.47769999504089355
1683010604728838700,16.120838623046875,-0.37529999017715454,0.09510000050067902,-0.6100999712944031
1683010604748838700,16.140838623046875,-0.30309998989105225,0.07970000058412552,-0.8503999710083008
1683010604768838700,16.160838623046875,-0.4122999906539917,0.20189999043941498,-1.2271000146865845
1683010604788838700,16.180838623046874,-0.517799973487854,0.34379997849464417,-1.798799991607666
1683010604808838700,16.200838623046874,-0.6553999781608582,0.46629998087882996,-2.281599998474121
1683010604828838700,16.220838623046873,-0.7935000061988831,0.5417999625205994,-2.6168999671936035
1683010604848838700,16.240838623046876,-0.9868999719619751,0.5602999925613403,-2.824899911880493
1683010604868838700,16.260838623046876,-1.0197999477386475,0.4624999761581421,-2.866499900817871
1683010604888838700,16.280838623046876,-0.9226999878883362,0.32819998264312744,-2.7314999103546143
1683010604908838700,16.300838623046875,-0.7059999704360962,0.24929998815059662,-2.3118999004364014
1683010604928838700,16.320838623046875,-0.46309998631477356,0.15199999511241913,-1.5099999904632568
1683010604948838700,16.340838623046874,-0.4096999764442444,0.16179999709129333,-0.9143999814987183
1683010604968838700,16.360838623046874,-0.39890000224113464,0.18679998815059662,-0.49449998140335083
1683010604988838700,16.380838623046873,-0.36730000376701355,0.14499999582767487,0.08209999650716782
1683010605008838700,16.400838623046877,-0.2705000042915344,0.11189999431371689,0.5514000058174133
1683010605028838700,16.420838623046876,-0.04779999703168869,0.045499999076128006,1.2580000162124634
1683010605048838700,16.440838623046876,0.045899998396635056,0.03579999879002571,1.94569993019104
1683010605068838700,16.460838623046875,-0.14810000360012054,0.10889999568462372,2.269899845123291
1683010605088838700,16.480838623046875,-0.4023999869823456,0.20789998769760132,2.103800058364868
1683010605108838700,16.500838623046874,-0.4323999881744385,0.2775000035762787,1.4678000211715698
1683010605128838700,16.520838623046874,-0.0616999976336956,0.3199999928474426,0.6775999665260315
1683010605148838700,16.540838623046874,0.3246999979019165,-0.14329999685287476,1.4286999702453613
1683010605168838700,16.560838623046877,0.5803999900817871,-0.1955999881029129,2.618499994277954
1683010605188838700,16.580838623046876,0.13239999115467072,0.22369998693466187,2.535099983215332
1683010605208838700,16.600838623046876,-0.22619999945163727,0.0681999996304512,2.9612998962402344
1683010605228838700,16.620838623046875,0.21549999713897705,-0.2549999952316284,3.562299966812134
1683010605248838700,16.640838623046875,0.4870999753475189,-0.32199999690055847,3.380999803543091
1683010605268838700,16.660838623046875,0.5756999850273132,-0.041200000792741776,2.8973000049591064
1683010605288837000,16.680837158203126,0.664900004863739,0.44269999861717224,2.0037999153137207
1683010605308837000,16.700837158203125,0.3552999794483185,0.781499981880188,0.7181000113487244
1683010605328837000,16.720837158203125,0.052299998700618744,0.8294000029563904,-0.2061000019311905
1683010605348837000,16.740837158203124,-0.013899999670684338,0.5674999952316284,-0.3959999978542328
1683010605368837000,16.760837158203124,0.027699999511241913,0.17639999091625214,-0.4705999791622162
1683010605388837000,16.780837158203123,-0.00029999998514540493,-0.10379999876022339,-0.5292999744415283
1683010605408837000,16.800837158203127,0.04649999737739563,-0.3109999895095825,-0.3862999975681305
1683010605428837000,16.820837158203126,-0.0738999992609024,-0.5562999844551086,-0.334199994802475
1683010605448837000,16.840837158203126,0.07409999519586563,-0.5909000039100647,-0.6820999979972839
1683010605468837000,16.860837158203125,0.36739999055862427,-0.4236999750137329,-1.3112999200820923
1683010605488837000,16.880837158203125,0.409199982881546,-0.22360000014305115,-1.938499927520752
1683010605508837000,16.900837158203124,0.23639999330043793,-0.06459999829530716,-2.437999963760376
1683010605528837000,16.920837158203124,-0.0023999998811632395,-0.01850000023841858,-2.7414000034332275
1683010605548840200,16.940840087890624,-0.10520000010728836,-0.01730000041425228,-2.906899929046631
1683010605568837000,16.960837158203127,-0.2798999845981598,-0.0421999990940094,-2.8655998706817627
1683010605588837000,16.980837158203126,-0.5018999576568604,-0.1363999992609024,-2.687199831008911
1683010605608837000,17.000837158203126,-0.6721000075340271,-0.3114999830722809,-2.2739999294281006
1683010605628837000,17.020837158203125,-0.7719999551773071,-0.46619999408721924,-1.6942999362945557
1683010605648837000,17.040837158203125,-0.6936999559402466,-0.527999997138977,-1.055400013923645
1683010605668837000,17.060837158203125,-0.4138000011444092,-0.42659997940063477,-0.3384000062942505
1683010605688837000,17.080837158203124,-0.2572000026702881,-0.31700000166893005,0.3886999785900116
1683010605708837000,17.100837158203124,0.06030000001192093,-0.2117999941110611,1.0670000314712524
1683010605728837000,17.120837158203123,0.5577999949455261,-0.1809999942779541,2.0772998332977295
1683010605748837000,17.140837158203126,0.9492999911308289,-0.12079999595880508,2.664599895477295
1683010605768837000,17.160837158203126,1.2696999311447144,0.010199999436736107,2.5262999534606934
1683010605788837000,17.180837158203126,1.456399917602539,0.13920000195503235,1.9383999109268188
1683010605808837000,17.200837158203125,1.5211999416351318,0.2620999813079834,1.5382999181747437
1683010605828837000,17.220837158203125,1.2216999530792236,0.1305999904870987,1.886699914932251
1683010605848837000,17.240837158203124,0.6157999634742737,-0.08159999549388885,3.2844998836517334
1683010605868837000,17.260837158203124,0.021299999207258224,0.15889999270439148,3.9263999462127686
1683010605888837000,17.280837158203123,-0.2483999878168106,0.32510000467300415,3.7836999893188477
1683010605908837000,17.300837158203127,0.3321000039577484,0.37469998002052307,3.787599802017212
1683010605928837000,17.320837158203126,0.7953999638557434,0.6190999746322632,3.498499870300293
1683010605948837000,17.340837158203126,0.4027999937534332,0.795799970626831,2.7472000122070312
1683010605968837000,17.360837158203125,-0.4098999798297882,0.7806999683380127,1.244499921798706
1683010605988837000,17.380837158203125,-0.9271000027656555,0.5600000023841858,-0.1388999968767166
1683010606008837000,17.400837158203124,-0.9809999465942383,0.06019999831914902,-0.9185000061988831
1683010606028837000,17.420837158203124,-0.7037000060081482,-0.21789999306201935,-1.1079999208450317
1683010606048837000,17.440837158203124,-0.553600013256073,-0.41119998693466187,-0.8333999514579773
1683010606068837000,17.460837158203127,-0.5374000072479248,-0.34619998931884766,-0.705299973487854
1683010606088837000,17.480837158203126,-0.4949999749660492,-0.19929999113082886,-0.6948999762535095
1683010606108840200,17.500840087890627,-0.5102999806404114,-0.16129998862743378,-0.8105999827384949
1683010606128837000,17.520837158203125,-0.6904000043869019,-0.1362999975681305,-1.2574999332427979
1683010606148838700,17.540838623046874,-0.9567999839782715,-0.21149998903274536,-1.654099941253662
1683010606168838700,17.560838623046877,-1.249400019645691,-0.2775000035762787,-1.962499976158142
1683010606188838700,17.580838623046876,-1.4860999584197998,-0.3511999845504761,-2.1435999870300293
1683010606208838700,17.600838623046876,-1.4728000164031982,-0.41839998960494995,-2.09879994392395
1683010606228838700,17.620838623046875,-1.4296000003814697,-0.48639997839927673,-1.9941999912261963
1683010606248838700,17.640838623046875,-1.3890999555587769,-0.5748999714851379,-2.0451998710632324
1683010606268838700,17.660838623046875,-1.263700008392334,-0.5167999863624573,-2.1046998500823975
1683010606288838700,17.680838623046874,-1.1168999671936035,-0.4560000002384186,-1.99809992313385
1683010606308838700,17.700838623046874,-0.8762999773025513,-0.35679998993873596,-1.803299903869629
1683010606328838700,17.720838623046873,-0.7696999907493591,-0.13729999959468842,-1.577299952507019
1683010606348838700,17.740838623046876,-0.9854999780654907,0.11180000007152557,-1.3199999332427979
1683010606368838700,17.760838623046876,-1.0583999156951904,0.3671000003814697,-1.0224000215530396
1683010606388838700,17.780838623046876,-1.010200023651123,0.5717999935150146,-0.8039000034332275
1683010606408838700,17.800838623046875,-0.8301999568939209,0.6315000057220459,-0.7236999869346619
1683010606428838700,17.820838623046875,-0.6086999773979187,0.6028000116348267,-0.7609999775886536
1683010606448838700,17.840838623046874,-0.3303999900817871,0.5436999797821045,-0.6495000123977661
1683010606468838700,17.860838623046874,-0.1265999972820282,0.46230000257492065,-0.3992999792098999
1683010606488838700,17.880838623046873,-0.08329999446868896,0.5177000164985657,-0.1589999943971634
1683010606508838700,17.900838623046877,-0.14149999618530273,0.5564999580383301,-0.0066999997943639755
1683010606528838700,17.920838623046876,-0.3044999837875366,0.6036999821662903,-0.009399999864399433
1683010606548838700,17.940838623046876,-0.3118000030517578,0.7299999594688416,0.2945999801158905
1683010606568838700,17.960838623046875,-0.3748999834060669,0.8187999725341797,0.885699987411499
1683010606588838700,17.980838623046875,-0.5823999643325806,0.8467999696731567,1.5970999002456665
1683010606608838700,18.000838623046874,-0.8428999781608582,0.5072000026702881,2.6331000328063965
1683010606628838700,18.020838623046874,-0.8352999687194824,0.14810000360012054,3.981799840927124
1683010606648838700,18.040838623046874,-0.9442999958992004,0.5098000168800354,4.3294997215271
1683010606668840200,18.060840087890625,-1.2644000053405762,0.7170999646186829,4.020699977874756
1683010606688838700,18.080838623046876,-1.5651999711990356,0.8420999646186829,2.994999885559082
1683010606708838700,18.100838623046876,-1.4610999822616577,0.6611999869346619,1.492900013923645
1683010606728838700,18.120838623046875,-1.202199935913086,0.3179999887943268,0.2603999972343445
1683010606748838700,18.140838623046875,-0.9513999819755554,-0.5340999960899353,0.03529999777674675
1683010606768837000,18.160837158203126,-0.6262999773025513,-1.0681999921798706,0.06289999932050705
1683010606788837000,18.180837158203126,-0.39069998264312744,-1.2458999156951904,0.21869999170303345
1683010606808837000,18.200837158203125,-0.3739999830722809,-1.209299921989441,0.491599977016449
1683010606828837000,18.220837158203125,-0.5791000127792358,-1.1510000228881836,0.5770999789237976
1683010606848837000,18.240837158203124,-0.7567999958992004,-1.0485999584197998,0.24169999361038208
1683010606868837000,18.260837158203124,-0.7955999970436096,-1.1381999254226685,-0.09969999641180038
1683010606888837000,18.280837158203123,-0.8540999889373779,-1.3144999742507935,-0.47839999198913574
1683010606908837000,18.300837158203127,-0.9864999651908875,-1.5374000072479248,-0.924299955368042
1683010606928837000,18.320837158203126,-0.9021999835968018,-1.729599952697754,-1.0946999788284302
1683010606948837000,18.340837158203126,-0.7124999761581421,-1.7898999452590942,-0.9907999634742737
1683010606968837000,18.360837158203125,-0.4658999741077423,-1.660599946975708,-0.691100001335144
1683010606988837000,18.380837158203125,-0.3716999888420105,-1.4395999908447266,-0.4702000021934509
1683010607008837000,18.400837158203124,-0.23929999768733978,-1.1545000076293945,-0.24889999628067017
1683010607028837000,18.420837158203124,-0.09369999915361404,-0.8878999948501587,-0.0949999988079071
1683010607048837000,18.440837158203124,-0.035999998450279236,-0.6448000073432922,0.011299999430775642
1683010607068837000,18.460837158203127,-0.15119999647140503,-0.4099999964237213,-0.1753000020980835
1683010607088837000,18.480837158203126,-0.2467999905347824,-0.16939999163150787,-0.5663999915122986
1683010607108837000,18.500837158203126,-0.1889999955892563,0.05139999836683273,-0.8980000019073486
1683010607128837000,18.520837158203125,-0.09109999984502792,0.17509999871253967,-1.1007000207901
1683010607148837000,18.540837158203125,-0.028199998661875725,0.0997999981045723,-1.2532999515533447
1683010607168837000,18.560837158203125,0.045499999076128006,0.030700000002980232,-0.809499979019165
1683010607188837000,18.580837158203124,-0.14069999754428864,0.03449999913573265,-0.026599999517202377
1683010607208837000,18.600837158203124,-0.2491999864578247,0.14409999549388885,0.9492999911308289
1683010607228837000,18.620837158203123,-0.39100000262260437,0.344899982213974,2.001800060272217
1683010607248837000,18.640837158203126,-0.7759000062942505,0.47429999709129333,2.6019999980926514
1683010607268837000,18.660837158203126,-1.1539000272750854,0.4478999972343445,2.241999864578247
1683010607288837000,18.680837158203126,-0.7806999683380127,0.11339999735355377,2.1791999340057373
1683010607308837000,18.700837158203125,0.03399999812245369,-0.4544000029563904,2.3835999965667725
1683010607328837000,18.720837158203125,0.28939998149871826,-0.7056999802589417,1.9503999948501587
1683010607348837000,18.740837158203124,0.289000004529953,-0.6886000037193298,1.270900011062622
1683010607368837000,18.760837158203124,0.29170000553131104,-0.6578999757766724,0.7087999582290649
1683010607388837000,18.780837158203123,0.486299991607666,-0.6277999877929688,0.38259997963905334
1683010607408837000,18.800837158203127,0.4949999749660492,-0.35269999504089355,-0.33550000190734863
1683010607428837000,18.820837158203126,0.4497999846935272,-0.19429999589920044,-0.7782999873161316
1683010607448837000,18.840837158203126,0.34630000591278076,-0.3150999844074249,-0.8780999779701233
1683010607468837000,18.860837158203125,0.27950000762939453,-0.5500999689102173,-0.6638999581336975
1683010607488837000,18.880837158203125,0.2255999892950058,-0.7897999882698059,-0.234499990940094
1683010607508837000,18.900837158203124,0.1444000005722046,-0.8965999484062195,0.3025999963283539
1683010607528837000,18.920837158203124,-0.16129998862743378,-0.8804000020027161,0.4083999991416931
1683010607548837000,18.940837158203124,-0.5554999709129333,-0.8639000058174133,0.11180000007152557
1683010607568837000,18.960837158203127,-0.7181999683380127,-0.9546999931335449,-0.06669999659061432
1683010607588837000,18.980837158203126,-0.7626000046730042,-0.9404000043869019,-0.3619000017642975
1683010607608837000,19.000837158203126,-0.7400000095367432,-0.863599956035614,-0.6065999865531921
1683010607628837000,19.020837158203125,-0.8071999549865723,-0.7505999803543091,-0.6448999643325806
1683010607648837000,19.040837158203125,-0.7985999584197998,-0.6013000011444092,-0.6348999738693237
1683010607668837000,19.060837158203125,-0.625,-0.4180999994277954,-0.43939998745918274
1683010607688837000,19.080837158203124,-0.23429998755455017,-0.19909998774528503,-0.13609999418258667
1683010607708837000,19.100837158203124,-0.021299999207258224,0.09459999948740005,-0.017500000074505806
1683010607728837000,19.120837158203123,0.04749999940395355,0.34049999713897705,-0.05480000004172325
1683010607748837000,19.140837158203126,-0.017799999564886093,0.557699978351593,-0.37599998712539673
1683010607768837000,19.160837158203126,-0.058399997651576996,0.664900004863739,-0.6478999853134155
1683010607788837000,19.180837158203126,-0.2361999899148941,0.7548999786376953,-1.0475000143051147
1683010607808837000,19.200837158203125,-0.2719999849796295,0.7727999687194824,-1.4366999864578247
1683010607828837000,19.220837158203125,-0.15109999477863312,0.7523999810218811,-1.677299976348877
1683010607848837000,19.240837158203124,0.003499999875202775,0.7048999667167664,-1.5242999792099
1683010607868837000,19.260837158203124,0.010499999858438969,0.8168999552726746,-1.1854000091552734
1683010607888837000,19.280837158203123,0.0030999998562037945,0.8938999772071838,-0.6809999942779541
1683010607908837000,19.300837158203127,0.008499999530613422,1.0805000066757202,-0.17579999566078186
1683010607928837000,19.320837158203126,-0.04779999703168869,1.2912999391555786,0.3310000002384186
1683010607948837000,19.340837158203126,-0.21689999103546143,1.531999945640564,0.6741999983787537
1683010607968837000,19.360837158203125,-0.334199994802475,1.680400013923645,0.8924999833106995
1683010607988837000,19.380837158203125,-0.5181999802589417,1.7791999578475952,0.9544000029563904
1683010608008837000,19.400837158203124,-0.6398000121116638,1.4878000020980835,1.045199990272522
1683010608028837000,19.420837158203124,-0.19599999487400055,0.8704999685287476,1.4876999855041504
1683010608048837000,19.440837158203124,0.06069999933242798,0.5033000111579895,1.7924000024795532
1683010608068837000,19.460837158203127,-0.34059998393058777,0.19679999351501465,1.747499942779541
1683010608088837000,19.480837158203126,-0.8098999857902527,-0.11589999496936798,1.8799999952316284
1683010608108837000,19.500837158203126,-0.852400004863739,-0.027899999171495438,1.871899962425232
1683010608128837000,19.520837158203125,-0.986299991607666,0.3190000057220459,1.3145999908447266
1683010608148837000,19.540837158203125,-1.1230000257492065,0.3788999915122986,0.7059999704360962
1683010608168837000,19.560837158203125,-0.7638999819755554,0.055399999022483826,0.6732999682426453
1683010608188837000,19.580837158203124,-0.2076999992132187,-0.2906999886035919,0.8869999647140503
1683010608208837000,19.600837158203124,0.05079999938607216,-0.49399998784065247,1.0131999254226685
1683010608228837000,19.620837158203123,-0.4092999994754791,-0.6694999933242798,1.1061999797821045
1683010608248837000,19.640837158203126,-0.786799967288971,-0.7800999879837036,1.2596999406814575
1683010608268837000,19.660837158203126,-1.0270999670028687,-0.7530999779701233,1.095099925994873
1683010608288837000,19.680837158203126,-1.1861000061035156,-0.7476999759674072,0.5692999958992004
1683010608308837000,19.700837158203125,-0.8607999682426453,-0.7160999774932861,0.07649999856948853
1683010608328837000,19.720837158203125,-0.38659998774528503,-0.7084999680519104,-0.2865000069141388
1683010608348837000,19.740837158203124,-0.1096000000834465,-0.6962999701499939,-0.5335999727249146
1683010608368837000,19.760837158203124,0.12999999523162842,-0.6757000088691711,-0.5670999884605408
1683010608388837000,19.780837158203123,0.2694999873638153,-0.6150000095367432,-0.5037999749183655
1683010608408837000,19.800837158203127,0.2750999927520752,-0.5036999583244324,-0.40139999985694885
1683010608428837000,19.820837158203126,0.17479999363422394,-0.3919999897480011,-0.09299999475479126
1683010608448837000,19.840837158203126,0.14379999041557312,-0.3033999800682068,0.1370999962091446
1683010608468837000,19.860837158203125,0.16899999976158142,-0.17229999601840973,0.22109998762607574
1683010608488837000,19.880837158203125,0.23899999260902405,-0.07880000025033951,0.1394999921321869
1683010608508837000,19.900837158203124,0.38199999928474426,0.05339999869465828,-0.03889999911189079
1683010608528837000,19.920837158203124,0.5615000128746033,0.1673000007867813,-0.030299998819828033
1683010608548837000,19.940837158203124,0.602899968624115,0.29420000314712524,-0.0015999999595806003
1683010608568837000,19.960837158203127,0.44099998474121094,0.4129999876022339,0.19329999387264252
1683010608588837000,19.980837158203126,0.25439998507499695,0.4034000039100647,0.6129999756813049
1683010608608837000,20.000837158203126,0.17999999225139618,0.4039999842643738,1.031999945640564
1683010608628837000,20.020837158203125,0.08739999681711197,0.5045999884605408,1.3039000034332275
1683010608648837000,20.040837158203125,-0.11759999394416809,0.5019999742507935,1.584399938583374
1683010608668837000,20.060837158203125,-0.1152999997138977,0.34939998388290405,2.0606000423431396
1683010608688837000,20.080837158203124,0.07999999821186066,0.10539999604225159,2.6549999713897705
1683010608708837000,20.100837158203124,0.2728999853134155,-0.29019999504089355,3.5439000129699707
1683010608728837000,20.120837158203123,0.4412999749183655,-0.5561999678611755,4.284999847412109
1683010608748837000,20.140837158203126,0.36089998483657837,-0.7817999720573425,4.5152997970581055
1683010608768837000,20.160837158203126,0.2604999840259552,-0.883899986743927,4.049200057983398
1683010608788837000,20.180837158203126,0.14149999618530273,-0.7886999845504761,3.015199899673462
1683010608808837000,20.200837158203125,-0.024799998849630356,-0.43359997868537903,1.317099928855896
1683010608828837000,20.220837158203125,-0.28329998254776,-0.17889998853206635,-0.33869999647140503
1683010608848837000,20.240837158203124,-0.4658999741077423,-0.11599999666213989,-1.6897999048233032
1683010608868837000,20.260837158203124,-0.4916999936103821,-0.2255999892950058,-2.3056998252868652
1683010608888837000,20.280837158203123,-0.3910999894142151,-0.3716000020503998,-2.1399998664855957
1683010608908837000,20.300837158203127,-0.30169999599456787,-0.26980000734329224,-1.202799916267395
1683010608928837000,20.320837158203126,-0.6966999769210815,-0.25609999895095825,-0.23889999091625214
1683010608948837000,20.340837158203126,-0.9280999898910522,-0.2523999810218811,0.21329998970031738
1683010608968837000,20.360837158203125,-1.0776000022888184,-0.5113999843597412,0.2150999903678894
1683010608988837000,20.380837158203125,-0.6789999604225159,-0.5242999792098999,-0.289900004863739
1683010609008837000,20.400837158203124,-0.5022000074386597,-0.6681999564170837,-0.8503999710083008
1683010609028837000,20.420837158203124,-0.5277000069618225,-0.6996999979019165,-1.4880999326705933
1683010609048837000,20.440837158203124,-0.6663999557495117,-0.5877000093460083,-1.9000999927520752
1683010609068837000,20.460837158203127,-0.8337999582290649,-0.5697999596595764,-1.910599946975708
1683010609088837000,20.480837158203126,-1.0045000314712524,-0.43059998750686646,-1.941100001335144
1683010609108837000,20.500837158203126,-1.0353000164031982,-0.26089999079704285,-2.0399999618530273
1683010609128837000,20.520837158203125,-0.9268999695777893,-0.10869999974966049,-1.90339994430542
1683010609148837000,20.540837158203125,-0.7371999621391296,-0.002699999837204814,-1.6883000135421753
1683010609168837000,20.560837158203125,-0.5554999709129333,0.044099997729063034,-1.5025999546051025
1683010609188837000,20.580837158203124,-0.37549999356269836,0.10170000046491623,-1.3356999158859253
1683010609208837000,20.600837158203124,-0.2563999891281128,0.22269999980926514,-1.167799949645996
1683010609228837000,20.620837158203123,-0.2638999819755554,0.3684999942779541,-0.8815000057220459
1683010609248837000,20.640837158203126,-0.19579999148845673,0.4974999725818634,-0.49570000171661377
1683010609268837000,20.660837158203126,-0.1664000004529953,0.5959999561309814,-0.06989999860525131
1683010609288837000,20.680837158203126,-0.1671999990940094,0.7081999778747559,0.2685000002384186
1683010609308837000,20.700837158203125,-0.2224999964237213,0.8072999715805054,0.5591999888420105
1683010609328837000,20.720837158203125,-0.24650000035762787,0.8886999487876892,0.6646999716758728
1683010609348837000,20.740837158203124,-0.3572999835014343,0.9687999486923218,0.7220999598503113
1683010609368837000,20.760837158203124,-0.5006999969482422,0.9287999868392944,0.8675000071525574
1683010609388837000,20.780837158203123,-0.5967000126838684,0.8080999851226807,1.0121999979019165
1683010609408837000,20.800837158203127,-0.7339000105857849,0.6814000010490417,1.0684999227523804
1683010609428837000,20.820837158203126,-0.5902999639511108,-0.0024999999441206455,2.134899854660034
1683010609448837000,20.840837158203126,-0.34610000252723694,-0.21069999039173126,3.0212998390197754
1683010609468837000,20.860837158203125,-0.41759997606277466,-0.08129999786615372,3.2142999172210693
1683010609488837000,20.880837158203125,-0.42639997601509094,-0.21199999749660492,3.3688998222351074
1683010609508837000,20.900837158203124,0.09589999914169312,-0.3409000039100647,3.3733999729156494
1683010609528837000,20.920837158203124,0.5956000089645386,-0.384799987077713,2.9584999084472656
1683010609548837000,20.940837158203124,0.9368999600410461,-0.20149999856948853,2.5852999687194824
1683010609568840200,20.960840087890624,1.028499960899353,0.17379999160766602,2.115799903869629
1683010609588840200,20.980840087890623,0.8108999729156494,0.4691999852657318,1.3813999891281128
1683010609608840200,21.000840087890627,0.5232999920845032,0.5543999671936035,0.6347999572753906
1683010609628840200,21.020840087890626,0.22689999639987946,0.3619000017642975,0.18930000066757202
1683010609648838700,21.040838623046874,-0.02239999920129776,0.03889999911189079,0.07429999858140945
1683010609668838700,21.060838623046877,-0.24229998886585236,-0.13930000364780426,0.023499999195337296
1683010609688838700,21.080838623046876,-0.462799996137619,-0.11389999836683273,-0.21660000085830688
1683010609708838700,21.100838623046876,-0.5360000133514404,-0.04099999740719795,-0.5167999863624573
1683010609728837000,21.120837158203123,-0.37959998846054077,-0.012000000104308128,-0.7584999799728394
1683010609748840200,21.140840087890624,-0.15699999034404755,0.05049999803304672,-1.1363999843597412
1683010609768838700,21.160838623046875,0.16329999268054962,0.16619999706745148,-1.386199951171875
1683010609788838700,21.180838623046874,0.4032000005245209,0.26109999418258667,-1.5954999923706055
1683010609808838700,21.200838623046874,0.4967999756336212,0.27950000762939453,-1.8145999908447266
1683010609828838700,21.220838623046873,0.5270999670028687,0.32569998502731323,-1.9857999086380005
1683010609848838700,21.240838623046876,0.5001000165939331,0.3247999846935272,-2.0394999980926514
1683010609868838700,21.260838623046876,0.4615999758243561,0.2818000018596649,-2.210700035095215
1683010609888838700,21.280838623046876,0.4764999747276306,0.20649999380111694,-2.1085000038146973
1683010609908838700,21.300838623046875,0.49729999899864197,0.06539999693632126,-1.82069993019104
1683010609928838700,21.320838623046875,0.4943999946117401,-0.09259999543428421,-1.43559992313385
1683010609948838700,21.340838623046874,0.46299999952316284,-0.17440000176429749,-1.256600022315979
1683010609968838700,21.360838623046874,0.3977999985218048,-0.24899999797344208,-1.1554999351501465
1683010609988838700,21.380838623046873,0.37299999594688416,-0.2653999924659729,-1.0428999662399292
1683010610008838700,21.400838623046877,0.3612000048160553,-0.30629998445510864,-0.6931999921798706
1683010610028838700,21.420838623046876,0.5562999844551086,-0.38099998235702515,0.17749999463558197
1683010610048838700,21.440838623046876,0.6987000107765198,-0.38089999556541443,1.1273999214172363
1683010610068838700,21.460838623046875,0.6798999905586243,-0.20579999685287476,1.8418999910354614
1683010610088838700,21.480838623046875,0.45669999718666077,0.013299999758601189,2.10479998588562
1683010610108838700,21.500838623046874,0.21969999372959137,-0.005499999970197678,2.1814000606536865
1683010610128838700,21.520838623046874,0.10669999569654465,0.04019999876618385,1.8179999589920044
1683010610148838700,21.540838623046874,0.4009999930858612,-0.5019999742507935,1.7311999797821045
1683010610168838700,21.560838623046877,0.6934999823570251,-1.192099928855896,2.5727999210357666
1683010610188837000,21.580837158203124,0.8910999894142151,-1.4025999307632446,3.195199966430664
1683010610208837000,21.600837158203124,0.8191999793052673,-1.2027000188827515,3.261399984359741
1683010610228837000,21.620837158203123,0.5724999904632568,-1.1598999500274658,3.574399948120117
1683010610248837000,21.640837158203126,0.786899983882904,-1.1686999797821045,3.927500009536743
1683010610268837000,21.660837158203126,1.1080999374389648,-0.913599967956543,4.116699695587158
1683010610288837000,21.680837158203126,1.1690000295639038,-0.4056999981403351,3.5837998390197754
1683010610308837000,21.700837158203125,0.6771000027656555,0.20799998939037323,2.1006999015808105
1683010610328837000,21.720837158203125,-0.1995999962091446,0.6852999925613403,-0.28669998049736023
1683010610348837000,21.740837158203124,-0.7429999709129333,0.6858999729156494,-1.9292999505996704
1683010610368837000,21.760837158203124,-0.9470999836921692,0.24639999866485596,-2.614500045776367
1683010610388837000,21.780837158203123,-0.784500002861023,-0.1371999979019165,-2.8587000370025635
1683010610408837000,21.800837158203127,-0.5349000096321106,-0.24369999766349792,-2.5329999923706055
1683010610428837000,21.820837158203126,-0.4193999767303467,0.002099999925121665,-1.8281999826431274
1683010610448837000,21.840837158203126,-0.6373999714851379,0.10969999432563782,-0.8251999616622925
1683010610468837000,21.860837158203125,-0.7163999676704407,0.17949999868869781,-0.35439997911453247
1683010610488837000,21.880837158203125,-0.4763000011444092,-0.04999999701976776,-0.1655000001192093
1683010610508840200,21.900840087890625,-0.09929999709129333,-0.07679999619722366,-0.5418999791145325
1683010610528838700,21.920838623046876,-0.08799999952316284,-0.056699998676776886,-1.1009999513626099
1683010610548838700,21.940838623046876,-0.4721999764442444,0.016699999570846558,-1.6512999534606934
1683010610568838700,21.960838623046875,-0.7902999520301819,-0.04319999739527702,-1.9788999557495117
1683010610588838700,21.980838623046875,-0.8603999614715576,-0.15160000324249268,-2.237799882888794
1683010610608838700,22.000838623046874,-0.6538999676704407,-0.2102999985218048,-2.2194998264312744
1683010610628838700,22.020838623046874,-0.45579999685287476,-0.20809999108314514,-1.8079999685287476
1683010610648838700,22.040838623046874,-0.3568999767303467,-0.13650000095367432,-1.4168000221252441
1683010610668837000,22.060837158203125,-0.34700000286102295,0.019299998879432678,-1.105199933052063
1683010610688837000,22.080837158203124,-0.3050000071525574,0.08760000020265579,-0.6956999897956848
1683010610708837000,22.100837158203124,-0.13729999959468842,0.15410000085830688,-0.37379997968673706
1683010610728837000,22.120837158203123,0.006199999712407589,0.1639000028371811,-0.1981000006198883
1683010610748837000,22.140837158203126,0.11299999803304672,0.12849999964237213,-0.32519999146461487
1683010610768837000,22.160837158203126,0.1727999895811081,0.04769999906420708,-0.5394999980926514
1683010610788837000,22.180837158203126,0.1981000006198883,-0.03219999745488167,-0.5467999577522278
1683010610808837000,22.200837158203125,0.131400004029274,-0.01730000041425228,-0.5335000157356262
1683010610828837000,22.220837158203125,0.002899999963119626,0.038599997758865356,-0.38189998269081116
1683010610848837000,22.240837158203124,-0.11169999837875366,0.09549999982118607,-0.0050999997183680534
1683010610868837000,22.260837158203124,-0.1160999983549118,0.15199999511241913,0.5286999940872192
1683010610888837000,22.280837158203123,-0.14100000262260437,0.24560000002384186,0.9944999814033508
1683010610908837000,22.300837158203127,-0.24569998681545258,0.4521999955177307,1.4023000001907349
1683010610928837000,22.320837158203126,-0.2883000075817108,0.30709999799728394,2.084399938583374
1683010610948837000,22.340837158203126,-0.25279998779296875,0.06639999896287918,2.940999984741211
1683010610968837000,22.360837158203125,-0.039799999445676804,0.027699999511241913,3.621500015258789
1683010610988837000,22.380837158203125,-0.13849999010562897,0.2996000051498413,3.5
1683010611008837000,22.400837158203124,-0.23709999024868011,0.49879997968673706,2.938499927520752
1683010611028837000,22.420837158203124,-0.07270000129938126,0.45419999957084656,2.41729998588562
1683010611048837000,22.440837158203124,0.23309999704360962,0.2620999813079834,2.1222000122070312
1683010611068837000,22.460837158203127,0.40149998664855957,-0.09070000052452087,2.4328999519348145
1683010611088837000,22.480837158203126,0.461899995803833,-0.28369998931884766,2.9485998153686523
1683010611108837000,22.500837158203126,0.3570999801158905,0.09869999438524246,2.631999969482422
1683010611128837000,22.520837158203125,-0.06949999928474426,0.8025999665260315,1.5335999727249146
1683010611148837000,22.540837158203125,-0.3920999765396118,1.1765999794006348,0.21139998733997345
1683010611168837000,22.560837158203125,-0.5286999940872192,1.0938999652862549,-0.866599977016449
1683010611188837000,22.580837158203124,-0.322299987077713,0.7443000078201294,-1.309000015258789
1683010611208837000,22.600837158203124,0.13369999825954437,0.38109999895095825,-1.36489999294281
1683010611228837000,22.620837158203123,-0.03219999745488167,0.17069999873638153,-1.3162000179290771
1683010611248837000,22.640837158203126,-0.9358999729156494,-0.0811999961733818,-1.0124999284744263
1683010611268837000,22.660837158203126,-1.3504999876022339,-0.01809999905526638,-0.7375999689102173
1683010611288837000,22.680837158203126,-1.2031999826431274,0.07809999585151672,-0.8082999587059021
1683010611308837000,22.700837158203125,-0.729200005531311,0.06909999996423721,-0.8729999661445618
1683010611328837000,22.720837158203125,-0.32089999318122864,0.0811999961733818,-0.859499990940094
1683010611348837000,22.740837158203124,-0.14139999449253082,-0.013199999928474426,-0.9675999879837036
1683010611368837000,22.760837158203124,0.07479999959468842,-0.1623999923467636,-1.1369999647140503
1683010611388837000,22.780837158203123,0.43199998140335083,-0.3685999810695648,-1.236899971961975
1683010611408837000,22.800837158203127,0.7202999591827393,-0.5392000079154968,-1.4035999774932861
1683010611428837000,22.820837158203126,0.9107999801635742,-0.712399959564209,-1.3234000205993652
1683010611448837000,22.840837158203126,0.9517999887466431,-0.8323999643325806,-1.2717000246047974
1683010611468837000,22.860837158203125,0.8822999596595764,-0.8167999982833862,-1.1796000003814697
1683010611488837000,22.880837158203125,0.7023999691009521,-0.741599977016449,-0.9193999767303467
1683010611508837000,22.900837158203124,0.5615000128746033,-0.5611000061035156,-0.823699951171875
1683010611528837000,22.920837158203124,0.6273999810218811,-0.42339998483657837,-0.6279000043869019
1683010611548837000,22.940837158203124,0.699400007724762,-0.2744999825954437,-0.3921999931335449
1683010611568837000,22.960837158203127,0.7402999997138977,-0.24449999630451202,-0.16609999537467957
1683010611588837000,22.980837158203126,0.7818999886512756,-0.12600000202655792,0.020600000396370888
1683010611608837000,23.000837158203126,0.8554999828338623,0.09479999542236328,0.30699998140335083
1683010611628837000,23.020837158203125,0.8090999722480774,0.2313999980688095,0.7623999714851379
1683010611648837000,23.040837158203125,0.44099998474121094,0.32889997959136963,0.6700999736785889
1683010611668837000,23.060837158203125,0.4490000009536743,-0.09919999539852142,1.1856999397277832
1683010611688837000,23.080837158203124,0.8703999519348145,-0.5098000168800354,2.491799831390381
1683010611708837000,23.100837158203124,0.8203999996185303,-0.5077999830245972,3.307799816131592
1683010611728837000,23.120837158203123,0.49289998412132263,-0.5442000031471252,3.379199981689453
1683010611748837000,23.140837158203126,0.5130999684333801,-0.7572000026702881,3.509399890899658
1683010611768837000,23.160837158203126,0.8133999705314636,-1.0230000019073486,3.7380998134613037
1683010611788837000,23.180837158203126,0.9246999621391296,-0.9779999852180481,3.9091999530792236
1683010611808837000,23.200837158203125,0.5692999958992004,-0.6035999655723572,3.433799982070923
1683010611828837000,23.220837158203125,-0.094200000166893,-0.1039000004529953,1.9178999662399292
1683010611848837000,23.240837158203124,-0.5188999772071838,0.1859000027179718,0.06549999862909317
1683010611868840200,23.260840087890625,-0.5382999777793884,0.2800000011920929,-1.4050999879837036
1683010611888838700,23.280838623046876,-0.5212999582290649,0.1711999922990799,-2.1582000255584717
1683010611908838700,23.300838623046875,-0.33319997787475586,-0.011699999682605267,-2.0369999408721924
1683010611928838700,23.320838623046875,-0.17599999904632568,0.018199998885393143,-1.6998999118804932
1683010611948838700,23.340838623046874,-0.4219000041484833,0.10920000076293945,-1.021899938583374
1683010611968838700,23.360838623046874,-0.6487999558448792,0.1459999978542328,-0.32729998230934143
1683010611988838700,23.380838623046873,-0.7421999573707581,0.15809999406337738,-0.19249999523162842
1683010612008838700,23.400838623046877,-0.6956999897956848,0.11270000040531158,-0.2622999846935272
1683010612028838700,23.420838623046876,-0.6794999837875366,0.03680000081658363,-0.6056999564170837
1683010612048838700,23.440838623046876,-0.8109999895095825,0.04639999940991402,-1.2148000001907349
1683010612068838700,23.460838623046875,-1.028499960899353,0.029600000008940697,-1.8344999551773071
1683010612088838700,23.480838623046875,-1.0820000171661377,-0.03529999777674675,-2.21809983253479
1683010612108838700,23.500838623046874,-1.0374000072479248,-0.08219999819993973,-2.296799898147583
1683010612128838700,23.520838623046874,-0.9718999862670898,-0.08549999445676804,-1.9842000007629395
1683010612148838700,23.540838623046874,-0.863599956035614,0.024699999019503593,-1.5748000144958496
1683010612168838700,23.560838623046877,-0.6703999638557434,0.07479999959468842,-1.0582000017166138
1683010612188838700,23.580838623046876,-0.4684999883174896,0.1761000007390976,-0.727400004863739
1683010612208838700,23.600838623046876,-0.27410000562667847,0.17799998819828033,-0.4052000045776367
1683010612228838700,23.620838623046875,-0.15379999577999115,0.22739998996257782,-0.25849997997283936
1683010612248838700,23.640838623046875,-0.11299999803304672,0.26569998264312744,-0.11180000007152557
1683010612268838700,23.660838623046875,-0.07199999690055847,0.3231000006198883,-0.004399999976158142
1683010612288838700,23.680838623046874,0.04349999874830246,0.35040000081062317,0.10359999537467957
1683010612308838700,23.700838623046874,0.14839999377727509,0.3375000059604645,0.48639997839927673
1683010612328838700,23.720838623046873,0.22269999980926514,0.4495999813079834,0.7318999767303467
1683010612348838700,23.740838623046876,0.07209999859333038,0.6489999890327454,0.8417999744415283
1683010612368838700,23.760838623046876,0.02199999988079071,0.7687999606132507,1.1001999378204346
1683010612388838700,23.780838623046876,-0.4027999937534332,0.6704999804496765,1.278499960899353
1683010612408838700,23.800838623046875,-0.7374999523162842,0.6732999682426453,1.3087999820709229
1683010612428838700,23.820838623046875,-0.6796000003814697,0.1581999957561493,1.9570999145507812
1683010612448838700,23.840838623046874,-0.3105999827384949,-0.10480000078678131,3.1830999851226807
1683010612468838700,23.860838623046874,-0.1193000003695488,0.17839999496936798,3.489300012588501
1683010612488838700,23.880838623046873,-0.34209999442100525,0.32519999146461487,3.219399929046631
1683010612508873200,23.900873291015625,-0.12199999392032623,-0.0016999999061226845,2.8200998306274414
1683010612528838700,23.920838623046876,0.5710999965667725,-0.5618000030517578,2.501499891281128
1683010612548838700,23.940838623046876,0.998699963092804,-0.8229999542236328,2.4189999103546143
1683010612568838700,23.960838623046875,1.2209999561309814,-0.5120999813079834,2.346400022506714
1683010612588838700,23.980838623046875,0.6628999710083008,0.06269999593496323,1.6173999309539795
1683010612608838700,24.000838623046874,0.01589999906718731,0.41609999537467957,0.3774999976158142
1683010612628838700,24.020838623046874,-0.20839999616146088,0.4488999843597412,-0.6464999914169312
1683010612648838700,24.040838623046874,-0.16599999368190765,0.13300000131130219,-0.8265999555587769
1683010612668837000,24.060837158203125,-0.13920000195503235,-0.1621999889612198,-0.676099956035614
1683010612688837000,24.080837158203124,-0.3026999831199646,-0.31459999084472656,-0.6287999749183655
1683010612708837000,24.100837158203124,-0.5112000107765198,-0.21169999241828918,-0.674299955368042
1683010612728837000,24.120837158203123,-0.5467000007629395,-0.10269999504089355,-0.9853999614715576
1683010612748837000,24.140837158203126,-0.4333999752998352,-0.026399999856948853,-1.5302999019622803
1683010612768837000,24.160837158203126,-0.307699978351593,-0.04360000044107437,-1.9463999271392822
1683010612788837000,24.180837158203126,-0.21329998970031738,-0.0819999948143959,-2.2739999294281006
1683010612808837000,24.200837158203125,-0.23739999532699585,-0.2078000009059906,-2.4071998596191406
1683010612828837000,24.220837158203125,-0.259799987077713,-0.31129997968673706,-2.454200029373169
1683010612848837000,24.240837158203124,-0.23549999296665192,-0.4104999899864197,-2.4041998386383057
1683010612868837000,24.260837158203124,0.016099998727440834,-0.4717999994754791,-2.108599901199341
1683010612888837000,24.280837158203123,0.3540000021457672,-0.5432000160217285,-1.8411999940872192
1683010612908837000,24.300837158203127,0.7208999991416931,-0.6085000038146973,-1.445599913597107
1683010612928837000,24.320837158203126,1.0422999858856201,-0.6832000017166138,-0.9710999727249146
1683010612948837000,24.340837158203126,1.2293000221252441,-0.6841999888420105,-0.6435999870300293
1683010612968837000,24.360837158203125,1.4223999977111816,-0.5704999566078186,-0.2947999835014343
1683010612988837000,24.380837158203125,1.4967999458312988,-0.4811999797821045,0.02709999866783619
1683010613008837000,24.400837158203124,1.2359999418258667,-0.29569998383522034,0.17459999024868011
1683010613028837000,24.420837158203124,0.9957000017166138,-0.15189999341964722,0.4805999994277954
1683010613048837000,24.440837158203124,0.8958999514579773,-0.02239999920129776,0.7676999568939209
1683010613068837000,24.460837158203127,0.7227999567985535,-0.04989999905228615,0.887999951839447
1683010613088837000,24.480837158203126,0.6606999635696411,-0.053199999034404755,1.1167999505996704
1683010613108837000,24.500837158203126,0.724399983882904,0.06309999525547028,1.3265999555587769
1683010613128837000,24.520837158203125,0.6155999898910522,0.10249999910593033,1.1747000217437744
1683010613148837000,24.540837158203125,0.6976000070571899,-0.3141999840736389,2.013700008392334
