time,seconds_elapsed,z,y,x
1683010588668838700,0.060838623046875,9.55620002746582,1.9381999969482422,1.044600009918213
1683010588688837000,0.080837158203125,9.55620002746582,1.9381999969482422,1.044600009918213
1683010588708845000,0.100844970703125,9.55620002746582,1.9381999969482422,1.044600009918213
1683010588728838700,0.120838623046875,1.6258000135421753,-0.2741999924182892,9.666999816894531
1683010588748838700,0.140838623046875,1.657099962234497,-0.28349998593330383,9.661399841308594
1683010588768838700,0.160838623046875,1.7014999389648438,-0.30309998989105225,9.65310001373291
1683010588788838700,0.180838623046875,1.7134000062942505,-0.3148999810218811,9.650599479675293
1683010588808838700,0.200838623046875,1.7280999422073364,-0.32899999618530273,9.647500038146973
1683010588828837000,0.220837158203125,1.7404999732971191,-0.34360000491142273,9.644800186157227
1683010588848838700,0.240838623046875,1.7467999458312988,-0.35019999742507935,9.643400192260742
1683010588868838700,0.260838623046875,1.7587000131607056,-0.3538999855518341,9.64109992980957
1683010588888838700,0.280838623046875,1.6854000091552734,-0.20679999887943268,9.658499717712402
1683010588908838700,0.300838623046875,1.718400001525879,-0.16110000014305115,9.653499603271484
1683010588928837000,0.320837158203125,1.7645999193191528,-0.12219999730587006,9.64579963684082
1683010588948840200,0.340840087890625,1.906499981880188,-0.08169999718666077,9.619099617004395
1683010588968838700,0.360838623046875,1.9519999027252197,-0.03359999880194664,9.610300064086914
1683010588988840200,0.380840087890625,1.9251999855041504,0.016099998727440834,9.615699768066406
1683010589008840200,0.400840087890625,1.8691999912261963,0.07919999957084656,9.626500129699707
1683010589028837000,0.420837158203125,1.8356999158859253,0.11569999903440475,9.632499694824219
1683010589048837000,0.440837158203125,1.799799919128418,0.13359999656677246,9.639100074768066
1683010589068840200,0.460840087890625,1.7518999576568604,0.1451999992132187,9.647699356079102
1683010589088840200,0.480840087890625,1.6821999549865723,0.14669999480247498,9.660099983215332
1683010589108838700,0.500838623046875,1.605199933052063,0.16759999096393585,9.672900199890137
1683010589128838700,0.520838623046875,1.618399977684021,0.20669999718666077,9.669899940490723
1683010589148838700,0.540838623046875,1.7146999835968018,0.2238999903202057,9.652899742126465
1683010589168838700,0.560838623046875,1.8559999465942383,0.18209999799728394,9.627599716186523
1683010589188838700,0.580838623046875,1.9674999713897705,0.09380000084638596,9.60669994354248
1683010589208837000,0.600837158203125,2.0436999797821045,0.027300000190734863,9.59119987487793
1683010589228837000,0.620837158203125,2.085899829864502,0.01119999960064888,9.582200050354004
1683010589248837000,0.640837158203125,2.116299867630005,0.03019999898970127,9.575499534606934
1683010589268838700,0.660838623046875,2.1103999614715576,0.02029999904334545,9.576799392700195
1683010589288838700,0.680838623046875,2.092900037765503,-0.002899999963119626,9.580699920654297
1683010589308838700,0.700838623046875,2.0632998943328857,-0.03179999813437462,9.586999893188477
1683010589328837000,0.720837158203125,2.038100004196167,-0.05849999934434891,9.592299461364746
1683010589348838700,0.740838623046875,2.0083000659942627,-0.062199998646974564,9.598499298095703
1683010589368838700,0.760838623046875,1.924899935722351,-0.07539999485015869,9.615499496459961
1683010589388838700,0.780838623046875,1.8695999383926392,-0.08089999854564667,9.626399993896484
1683010589408838700,0.800838623046875,1.8212000131607056,-0.053999997675418854,9.635799407958984
1683010589428837000,0.820837158203125,1.7914999723434448,-0.058799996972084045,9.641399383544922
1683010589448838700,0.840838623046875,1.8021999597549438,-0.032600000500679016,9.63949966430664
1683010589468840200,0.860840087890625,1.812999963760376,0.0139999995008111,9.637499809265137
1683010589488840200,0.880840087890625,1.8319998979568481,0.03689999878406525,9.633899688720703
1683010589508838700,0.900838623046875,1.8550999164581299,0.03059999831020832,9.629499435424805
1683010589528838700,0.920838623046875,1.871899962425232,-0.019500000402331352,9.626199722290039
1683010589548838700,0.940838623046875,1.8839999437332153,-0.09479999542236328,9.623499870300293
1683010589568838700,0.960838623046875,1.9158999919891357,-0.16949999332427979,9.61609935760498
1683010589588838700,0.980838623046875,1.952699899673462,-0.22459998726844788,9.607600212097168
1683010589608838700,1.000838623046875,1.9619998931884766,-0.2611999809741974,9.6048002243042
1683010589628838700,1.020838623046875,1.9543999433517456,-0.30169999599456787,9.60509967803955
1683010589648838700,1.040838623046875,1.945599913597107,-0.3498999774456024,9.605299949645996
1683010589668838700,1.060838623046875,1.9354000091552734,-0.4193999767303467,9.604599952697754
1683010589688840200,1.080840087890625,1.9316999912261963,-0.4959999918937683,9.601699829101562
1683010589708840200,1.100840087890625,1.9478999376296997,-0.5455999970436096,9.595699310302734
1683010589728840200,1.120840087890625,1.9915999174118042,-0.5406000018119812,9.586999893188477
1683010589748838700,1.140838623046875,2.051300048828125,-0.4908999800682068,9.577099800109863
1683010589768838700,1.160838623046875,2.0806000232696533,-0.4296000003814697,9.573699951171875
1683010589788838700,1.180838623046875,2.0528998374938965,-0.40779998898506165,9.580599784851074
1683010589808838700,1.200838623046875,1.9884999990463257,-0.43369999527931213,9.593099594116211
1683010589828838700,1.220838623046875,1.8935999870300293,-0.4822999835014343,9.609899520874023
1683010589848838700,1.240838623046875,1.774899959564209,-0.5331000089645386,9.629899978637695
1683010589868838700,1.260838623046875,1.6592999696731567,-0.573199987411499,9.648200035095215
1683010589888838700,1.280838623046875,1.5740000009536743,-0.5884999632835388,9.661499977111816
1683010589908838700,1.300838623046875,1.5239999294281006,-0.5781999826431274,9.670199394226074
1683010589928837000,1.320837158203125,1.4900999069213867,-0.5550000071525574,9.676799774169922
1683010589948838700,1.340838623046875,1.4609999656677246,-0.5270999670028687,9.682799339294434
1683010589968838700,1.360838623046875,1.430299997329712,-0.4860000014305115,9.689599990844727
1683010589988838700,1.380838623046875,1.4168999195098877,-0.44439998269081116,9.693499565124512
1683010590008838700,1.400838623046875,1.4220999479293823,-0.4097999930381775,9.694299697875977
1683010590028838700,1.420838623046875,1.4241999387741089,-0.39100000262260437,9.69469928741455
1683010590048838700,1.440838623046875,1.4063999652862549,-0.3856000006198883,9.697599411010742
1683010590068838700,1.460838623046875,1.3646999597549438,-0.3847000002861023,9.703499794006348
1683010590088838700,1.480838623046875,1.3172999620437622,-0.38670000433921814,9.710000038146973
1683010590108838700,1.500838623046875,1.2788000106811523,-0.3959999978542328,9.714799880981445
1683010590128838700,1.520838623046875,1.2523000240325928,-0.41169998049736023,9.717599868774414
1683010590148840200,1.540840087890625,1.240299940109253,-0.4253000020980835,9.718500137329102
1683010590168840200,1.560840087890625,1.2408000230789185,-0.43459999561309814,9.718099594116211
1683010590188838700,1.580838623046875,1.2573000192642212,-0.44119998812675476,9.715700149536133
1683010590208838700,1.600838623046875,1.2740999460220337,-0.45159998536109924,9.71299934387207
1683010590228838700,1.620838623046875,1.2863999605178833,-0.48429998755455017,9.709799766540527
1683010590248838700,1.640838623046875,1.305899977684021,-0.5390999913215637,9.704299926757812
1683010590268838700,1.660838623046875,1.3514999151229858,-0.6080999970436096,9.693999290466309
1683010590288838700,1.680838623046875,1.3939999341964722,-0.7005000114440918,9.681699752807617
1683010590308838700,1.700838623046875,1.412500023841858,-0.8238999843597412,9.669300079345703
1683010590328838700,1.720838623046875,1.4160000085830688,-0.9346999526023865,9.658699989318848
1683010590348838700,1.740838623046875,1.4106999635696411,-1.0073000192642212,9.652199745178223
1683010590368840200,1.760840087890625,1.411099910736084,-1.0503000020980835,9.647500038146973
1683010590388838700,1.780838623046875,1.4179999828338623,-1.0666999816894531,9.644700050354004
1683010590408838700,1.800838623046875,1.4361000061035156,-1.059499979019165,9.642799377441406
1683010590428838700,1.820838623046875,1.444599986076355,-1.052299976348877,9.642399787902832
1683010590448838700,1.840838623046875,1.4230999946594238,-1.0724999904632568,9.64330005645752
1683010590468838700,1.860838623046875,1.3802999258041382,-1.1088999509811401,9.645400047302246
1683010590488840200,1.880840087890625,1.3330999612808228,-1.13919997215271,9.648499488830566
1683010590508840200,1.900840087890625,1.2963999509811401,-1.1467000246047974,9.65269947052002
1683010590528838700,1.920838623046875,1.2884999513626099,-1.1383999586105347,9.654699325561523
1683010590548838700,1.940838623046875,1.2991999387741089,-1.1220999956130981,9.655200004577637
1683010590568838700,1.960838623046875,1.3105000257492065,-1.1032999753952026,9.655799865722656
1683010590588840200,1.980840087890625,1.3198999166488647,-1.0795999765396118,9.65719985961914
1683010590608838700,2.000838623046875,1.3346999883651733,-1.0507999658584595,9.658299446105957
1683010590628838700,2.020838623046875,1.3430999517440796,-1.0225999355316162,9.660200119018555
1683010590648840200,2.040840087890625,1.344599962234497,-0.9904999732971191,9.663299560546875
1683010590668838700,2.060838623046875,1.3522999286651611,-0.9515999555587769,9.666199684143066
1683010590688840200,2.080840087890625,1.3562999963760376,-0.9218999743461609,9.668499946594238
1683010590708838700,2.100838623046875,1.3558999300003052,-0.9103999733924866,9.669599533081055
1683010590728838700,2.120838623046875,1.3514000177383423,-0.9054999947547913,9.670700073242188
1683010590748838700,2.140838623046875,1.3432999849319458,-0.9035999774932861,9.67199993133545
1683010590768838700,2.160838623046875,1.344499945640564,-0.899399995803833,9.6722993850708
1683010590788838700,2.180838623046875,1.358699917793274,-0.8894000053405762,9.671199798583984
1683010590808838700,2.200838623046875,1.378000020980835,-0.8708999752998352,9.670100212097168
1683010590828838700,2.220838623046875,1.402899980545044,-0.8463000059127808,9.66879940032959
1683010590848840200,2.240840087890625,1.4266999959945679,-0.821899950504303,9.667399406433105
1683010590868840200,2.260840087890625,1.4474999904632568,-0.7996000051498413,9.666099548339844
1683010590888838700,2.280838623046875,1.4726999998092651,-0.7839999794960022,9.663599967956543
1683010590908838700,2.300838623046875,1.5089999437332153,-0.7705999612808228,9.659099578857422
1683010590928837000,2.320837158203125,1.555899977684021,-0.7533999681472778,9.652999877929688
1683010590948838700,2.340838623046875,1.5913000106811523,-0.7407999634742737,9.648200035095215
1683010590968838700,2.360838623046875,1.611199975013733,-0.745199978351593,9.644599914550781
1683010590988838700,2.380838623046875,1.6268999576568604,-0.7448999881744385,9.642000198364258
1683010591008840200,2.400840087890625,1.636699914932251,-0.7330999970436096,9.641200065612793
1683010591028838700,2.420838623046875,1.6787999868392944,-0.7107999920845032,9.635700225830078
1683010591048838700,2.440838623046875,1.7354999780654907,-0.6908999681472778,9.626999855041504
1683010591068838700,2.460838623046875,1.7893999814987183,-0.6751999855041504,9.61829948425293
1683010591088840200,2.480840087890625,1.8329999446868896,-0.6518999934196472,9.611700057983398
1683010591108838700,2.500838623046875,1.848699927330017,-0.6255999803543091,9.610400199890137
1683010591128838700,2.520838623046875,1.8251999616622925,-0.6134999990463257,9.615699768066406
1683010591148837000,2.540837158203125,1.7756999731063843,-0.6279000043869019,9.62399959564209
1683010591168838700,2.560838623046875,1.7069998979568481,-0.6642000079154968,9.633999824523926
1683010591188838700,2.580838623046875,1.61899995803833,-0.7080000042915344,9.646100044250488
1683010591208838700,2.600838623046875,1.5270999670028687,-0.7491999864578247,9.657899856567383
1683010591228838700,2.620838623046875,1.4585999250411987,-0.7851999998092651,9.66569995880127
1683010591248838700,2.640838623046875,1.4244999885559082,-0.821899950504303,9.667699813842773
1683010591268838700,2.660838623046875,1.4117000102996826,-0.8588999509811401,9.666399955749512
1683010591288838700,2.680838623046875,1.3982999324798584,-0.8962000012397766,9.664899826049805
1683010591308838700,2.700838623046875,1.372399926185608,-0.9307000041007996,9.665399551391602
1683010591328840200,2.720840087890625,1.3395999670028687,-0.9569999575614929,9.667399406433105
1683010591348840200,2.740840087890625,1.3054999113082886,-0.98089998960495,9.669699668884277
1683010591368838700,2.760838623046875,1.2660999298095703,-1.0068999528884888,9.6722993850708
1683010591388838700,2.780838623046875,1.2172999382019043,-1.0365999937057495,9.675399780273438
1683010591408838700,2.800838623046875,1.1664999723434448,-1.0734999179840088,9.677599906921387
1683010591428837000,2.820837158203125,1.1162999868392944,-1.1089999675750732,9.679499626159668
1683010591448838700,2.840838623046875,1.0722999572753906,-1.136099934577942,9.68139934539795
1683010591468838700,2.860838623046875,1.0401999950408936,-1.1545000076293945,9.682700157165527
1683010591488838700,2.880838623046875,1.016700029373169,-1.1626999378204346,9.684199333190918
1683010591508838700,2.900838623046875,0.9991999864578247,-1.1628999710083008,9.685999870300293
1683010591528838700,2.920838623046875,0.9805999994277954,-1.1585999727249146,9.688399314880371
1683010591548838700,2.940838623046875,0.9615999460220337,-1.1546000242233276,9.690799713134766
1683010591568838700,2.960838623046875,0.9416999816894531,-1.1598999500274658,9.692099571228027
1683010591588840200,2.980840087890625,0.923799991607666,-1.170199990272522,9.692599296569824
1683010591608840200,3.000840087890625,0.923799991607666,-1.1785999536514282,9.69159984588623
1683010591628838700,3.020838623046875,0.9417999982833862,-1.1710000038146973,9.690799713134766
1683010591648838700,3.040838623046875,0.9532999992370605,-1.1590999364852905,9.691100120544434
1683010591668838700,3.060838623046875,0.9630999565124512,-1.1466000080108643,9.69159984588623
1683010591688838700,3.080838623046875,0.9907999634742737,-1.111199975013733,9.692899703979492
1683010591708838700,3.100838623046875,1.0312999486923218,-1.0759999752044678,9.692699432373047
1683010591728838700,3.120838623046875,1.0749999284744263,-1.0494999885559082,9.690799713134766
1683010591748838700,3.140838623046875,1.1050999164581299,-1.028999924659729,9.689599990844727
1683010591768838700,3.160838623046875,1.1191999912261963,-1.0048999786376953,9.690499305725098
1683010591788838700,3.180838623046875,1.1225999593734741,-0.9805999994277954,9.692599296569824
1683010591808838700,3.200838623046875,1.1166999340057373,-0.9632999897003174,9.695099830627441
1683010591828837000,3.220837158203125,1.1085000038146973,-0.9465999603271484,9.697599411010742
1683010591848840200,3.240840087890625,1.1050000190734863,-0.9233999848365784,9.700300216674805
1683010591868838700,3.260838623046875,1.1139999628067017,-0.8940999507904053,9.70199966430664
1683010591888840200,3.280840087890625,1.1305999755859375,-0.8606999516487122,9.703100204467773
1683010591908838700,3.300838623046875,1.1542999744415283,-0.8300999999046326,9.70300006866455
1683010591928837000,3.320837158203125,1.1823999881744385,-0.8037999868392944,9.701799392700195
1683010591948838700,3.340838623046875,1.2059999704360962,-0.7781999707221985,9.701000213623047
1683010591968838700,3.360838623046875,1.2240999937057495,-0.7512999773025513,9.700799942016602
1683010591988840200,3.380840087890625,1.2355999946594238,-0.7215999960899353,9.701600074768066
1683010592008840200,3.400840087890625,1.2444000244140625,-0.6906999945640564,9.702799797058105
1683010592028837000,3.420837158203125,1.2466999292373657,-0.6667999625205994,9.704099655151367
1683010592048837000,3.440837158203125,1.2417999505996704,-0.6621999740600586,9.705100059509277
1683010592068837000,3.460837158203125,1.233299970626831,-0.6675999760627747,9.70580005645752
1683010592088837000,3.480837158203125,1.2207999229431152,-0.6791999936103821,9.706600189208984
1683010592108837000,3.500837158203125,1.2081999778747559,-0.6976999640464783,9.706799507141113
1683010592128838700,3.520838623046875,1.1978999376296997,-0.7190999984741211,9.706600189208984
1683010592148840200,3.540840087890625,1.1900999546051025,-0.7340999841690063,9.706399917602539
1683010592168840200,3.560840087890625,1.1819000244140625,-0.7372999787330627,9.707099914550781
1683010592188838700,3.580838623046875,1.180299997329712,-0.7300999760627747,9.707900047302246
1683010592208838700,3.600838623046875,1.1801999807357788,-0.7148999571800232,9.708999633789062
1683010592228838700,3.620838623046875,1.1890000104904175,-0.6938999891281128,9.70949935913086
1683010592248838700,3.640838623046875,1.1965999603271484,-0.6675999760627747,9.710399627685547
1683010592268840200,3.660840087890625,1.2066999673843384,-0.6410999894142151,9.710899353027344
1683010592288838700,3.680838623046875,1.1923999786376953,-0.6236000061035156,9.713799476623535
1683010592308838700,3.700838623046875,1.1658999919891357,-0.6419999599456787,9.715899467468262
1683010592328838700,3.720838623046875,1.1653000116348267,-0.6814000010490417,9.713199615478516
1683010592348838700,3.740838623046875,1.164099931716919,-0.7019999623298645,9.711899757385254
1683010592368838700,3.760838623046875,1.152999997138977,-0.7188000082969666,9.711999893188477
1683010592388838700,3.780838623046875,1.1485999822616577,-0.7540000081062317,9.70989990234375
1683010592408840200,3.800840087890625,1.156599998474121,-0.7973999977111816,9.705399513244629
1683010592428838700,3.820838623046875,1.1935999393463135,-0.8330999612808228,9.697999954223633
1683010592448840200,3.840840087890625,1.2516999244689941,-0.8435999751091003,9.68970012664795
1683010592468840200,3.860840087890625,1.3156999349594116,-0.8269000053405762,9.682700157165527
1683010592488840200,3.880840087890625,1.3569999933242798,-0.7895999550819397,9.680099487304688
1683010592508840200,3.900840087890625,1.3514000177383423,-0.7484999895095825,9.684100151062012
1683010592528838700,3.920838623046875,1.3101999759674072,-0.7199999690055847,9.691999435424805
1683010592548838700,3.940838623046875,1.256500005722046,-0.7092999815940857,9.699899673461914
1683010592568838700,3.960838623046875,1.222100019454956,-0.6987000107765198,9.704999923706055
1683010592588838700,3.980838623046875,1.2202999591827393,-0.6686999797821045,9.707399368286133
1683010592608838700,4.000838623046875,1.2388999462127686,-0.6270999908447266,9.707799911499023
1683010592628838700,4.020838623046875,1.2591999769210815,-0.5877999663352966,9.707599639892578
1683010592648838700,4.040838623046875,1.257699966430664,-0.5536999702453613,9.709799766540527
1683010592668838700,4.060838623046875,1.2457000017166138,-0.5248000025749207,9.71299934387207
1683010592688838700,4.080838623046875,1.2279000282287598,-0.5027999877929688,9.716400146484375
1683010592708840200,4.100840087890625,1.2049999237060547,-0.4894999861717224,9.719999313354492
1683010592728838700,4.120838623046875,1.1797000169754028,-0.4878000020980835,9.723099708557129
1683010592748838700,4.140838623046875,1.1511999368667603,-0.4940999746322632,9.726200103759766
1683010592768838700,4.160838623046875,1.1165999174118042,-0.5051000118255615,9.729700088500977
1683010592788838700,4.180838623046875,1.075600028038025,-0.5170999765396118,9.733699798583984
1683010592808838700,4.200838623046875,1.0413999557495117,-0.5277999639511108,9.736800193786621
1683010592828838700,4.220838623046875,1.0219999551773071,-0.5381999611854553,9.738299369812012
1683010592848838700,4.240838623046875,1.014699935913086,-0.5476999878883362,9.73859977722168
1683010592868838700,4.260838623046875,1.0090999603271484,-0.5605999827384949,9.738399505615234
1683010592888838700,4.280838623046875,1.0027999877929688,-0.5830999612808228,9.737699508666992
1683010592908838700,4.300838623046875,0.9905999898910522,-0.617900013923645,9.736800193786621
1683010592928838700,4.320838623046875,0.965999960899353,-0.6692999601364136,9.735899925231934
1683010592948837000,4.340837158203125,0.9296999573707581,-0.7351999878883362,9.734700202941895
1683010592968840200,4.360840087890625,0.885699987411499,-0.8075000047683716,9.733099937438965
1683010592988838700,4.380838623046875,0.8507999777793884,-0.8756999969482422,9.730299949645996
1683010593008840200,4.400840087890625,0.8191999793052673,-0.9302999973297119,9.727899551391602
1683010593028840200,4.420840087890625,0.7870999574661255,-0.9812999963760376,9.72559928894043
1683010593048838700,4.440838623046875,0.7669000029563904,-1.0384999513626099,9.721199989318848
1683010593068838700,4.460838623046875,0.767300009727478,-1.0993999242782593,9.714499473571777
1683010593088838700,4.480838623046875,0.7770000100135803,-1.155900001525879,9.707200050354004
1683010593108838700,4.500838623046875,0.7876999974250793,-1.2049999237060547,9.700399398803711
1683010593128838700,4.520838623046875,0.7980999946594238,-1.243899941444397,9.694600105285645
1683010593148838700,4.540838623046875,0.8109999895095825,-1.274899959564209,9.689499855041504
1683010593168838700,4.560838623046875,0.8215000033378601,-1.2973999977111816,9.685599327087402
1683010593188838700,4.580838623046875,0.8227999806404114,-1.2999999523162842,9.685199737548828
1683010593208838700,4.600838623046875,0.8197999596595764,-1.2742999792099,9.688799858093262
1683010593228838700,4.620838623046875,0.8210999965667725,-1.2210999727249146,9.695599555969238
1683010593248838700,4.640838623046875,0.8251000046730042,-1.160099983215332,9.702699661254883
1683010593268838700,4.660838623046875,0.8270999789237976,-1.11489999294281,9.707799911499023
1683010593288838700,4.680838623046875,0.8176999688148499,-1.0820999145507812,9.712299346923828
1683010593308838700,4.700838623046875,0.8008999824523926,-1.0515999794006348,9.717100143432617
1683010593328838700,4.720838623046875,0.7932999730110168,-1.013700008392334,9.721699714660645
1683010593348838700,4.740838623046875,0.8054999709129333,-0.9723999500274658,9.72499942779541
1683010593368838700,4.760838623046875,0.8271999955177307,-0.9389999508857727,9.726399421691895
1683010593388838700,4.780838623046875,0.8489999771118164,-0.9144999980926514,9.726900100708008
1683010593408838700,4.800838623046875,0.8672999739646912,-0.8987999558448792,9.726699829101562
1683010593428837000,4.820837158203125,0.882099986076355,-0.8889999985694885,9.726299285888672
1683010593448838700,4.840838623046875,0.903499960899353,-0.8823999762535095,9.724899291992188
1683010593468838700,4.860838623046875,0.9388999938964844,-0.875,9.722199440002441
1683010593488840200,4.880840087890625,0.9804999828338623,-0.8637999892234802,9.719099998474121
1683010593508840200,4.900840087890625,1.0363999605178833,-0.8466999530792236,9.714799880981445
1683010593528838700,4.920838623046875,1.104099988937378,-0.821399986743927,9.709599494934082
1683010593548838700,4.940838623046875,1.1720999479293823,-0.7968999743461609,9.70359992980957
1683010593568838700,4.960838623046875,1.2264999151229858,-0.7767999768257141,9.69849967956543
1683010593588838700,4.980838623046875,1.2630000114440918,-0.7597999572753906,9.695199966430664
1683010593608838700,5.000838623046875,1.2907999753952026,-0.7554999589920044,9.691899299621582
1683010593628837000,5.020837158203125,1.319700002670288,-0.7669000029563904,9.68709945678711
1683010593648840200,5.040840087890625,1.3456000089645386,-0.7920999526977539,9.681499481201172
1683010593668838700,5.060838623046875,1.3664000034332275,-0.8307999968528748,9.675299644470215
1683010593688840200,5.080840087890625,1.3797999620437622,-0.8770999908447266,9.669300079345703
1683010593708838700,5.100838623046875,1.4049999713897705,-0.9283999800682068,9.660900115966797
1683010593728838700,5.120838623046875,1.4523999691009521,-0.9733999967575073,9.649499893188477
1683010593748838700,5.140838623046875,1.5073999166488647,-1.0083999633789062,9.637399673461914
1683010593768838700,5.160838623046875,1.5888999700546265,-1.010200023651123,9.624099731445312
1683010593788838700,5.180838623046875,1.6710000038146973,-0.9892999529838562,9.61240005493164
1683010593808838700,5.200838623046875,1.751099944114685,-0.9736999869346619,9.599699974060059
1683010593828838700,5.220838623046875,1.82069993019104,-0.9644999504089355,9.587699890136719
1683010593848838700,5.240838623046875,1.8779999017715454,-0.9623000025749207,9.576899528503418
1683010593868838700,5.260838623046875,1.934399962425232,-0.9607999920845032,9.565799713134766
1683010593888838700,5.280838623046875,1.9728999137878418,-0.9563999772071838,9.55840015411377
1683010593908838700,5.300838623046875,1.984299898147583,-0.9598999619483948,9.5556001663208
1683010593928838700,5.320838623046875,1.9682999849319458,-0.9696999788284302,9.557999610900879
1683010593948838700,5.340838623046875,1.9226999282836914,-0.9822999835014343,9.565999984741211
1683010593968838700,5.360838623046875,1.8555999994277954,-0.991599977016449,9.57819938659668
1683010593988838700,5.380838623046875,1.7889999151229858,-0.9904999732971191,9.590999603271484
1683010594008840200,5.400840087890625,1.739799976348877,-0.973099946975708,9.601799964904785
1683010594028838700,5.420838623046875,1.7136999368667603,-0.9407999515533447,9.6097993850708
1683010594048838700,5.440838623046875,1.7023999691009521,-0.9041999578475952,9.615300178527832
1683010594068838700,5.460838623046875,1.6963999271392822,-0.8672999739646912,9.619699478149414
1683010594088838700,5.480838623046875,1.6960999965667725,-0.8385999798774719,9.622300148010254
1683010594108838700,5.500838623046875,1.6935999393463135,-0.8172999620437622,9.62459945678711
1683010594128837000,5.520837158203125,1.6786999702453613,-0.8044999837875366,9.628299713134766
1683010594148837000,5.540837158203125,1.6420999765396118,-0.800599992275238,9.634900093078613
1683010594168837000,5.560837158203125,1.5968999862670898,-0.804099977016449,9.642199516296387
1683010594188837000,5.580837158203125,1.555799961090088,-0.8107999563217163,9.648399353027344
1683010594208837000,5.600837158203125,1.5151000022888184,-0.818399965763092,9.654199600219727
1683010594228837000,5.620837158203125,1.4816999435424805,-0.8324999809265137,9.658199310302734
1683010594248837000,5.640837158203125,1.4548999071121216,-0.8488999605178833,9.660799980163574
1683010594268837000,5.660837158203125,1.4286999702453613,-0.8610999584197998,9.663700103759766
1683010594288837000,5.680837158203125,1.4014999866485596,-0.8715999722480774,9.666699409484863
1683010594308837000,5.700837158203125,1.379499912261963,-0.8901000022888184,9.66819953918457
1683010594328837000,5.720837158203125,1.3615000247955322,-0.9174999594688416,9.66819953918457
1683010594348837000,5.740837158203125,1.3451999425888062,-0.9462999701499939,9.667699813842773
1683010594368837000,5.760837158203125,1.344099998474121,-0.9702999591827393,9.665499687194824
1683010594388837000,5.780837158203125,1.3499000072479248,-0.981499969959259,9.66349983215332
1683010594408837000,5.800837158203125,1.3483999967575073,-0.9791999459266663,9.663999557495117
1683010594428837000,5.820837158203125,1.314099907875061,-0.9824999570846558,9.668399810791016
1683010594448837000,5.840837158203125,1.2750999927520752,-0.9941999912261963,9.672399520874023
1683010594468837000,5.860837158203125,1.2730000019073486,-1.0069999694824219,9.671299934387207
1683010594488837000,5.880837158203125,1.2950999736785889,-1.0184999704360962,9.667200088500977
1683010594508837000,5.900837158203125,1.3148999214172363,-1.0356999635696411,9.662699699401855
1683010594528837000,5.920837158203125,1.3256999254226685,-1.06659996509552,9.657899856567383
1683010594548837000,5.940837158203125,1.3323999643325806,-1.1022999286651611,9.652899742126465
1683010594568837000,5.960837158203125,1.3320000171661377,-1.1262999773025513,9.650199890136719
1683010594588837000,5.980837158203125,1.317099928855896,-1.131600022315979,9.651599884033203
1683010594608837000,6.000837158203125,1.2872999906539917,-1.1265000104904175,9.65619945526123
1683010594628837000,6.020837158203125,1.254699945449829,-1.1141999959945679,9.661999702453613
1683010594648837000,6.040837158203125,1.227199912071228,-1.0906000137329102,9.66819953918457
1683010594668837000,6.060837158203125,1.2049999237060547,-1.046299934387207,9.675899505615234
1683010594688837000,6.080837158203125,1.1891000270843506,-0.9842999577522278,9.68429946899414
1683010594708837000,6.100837158203125,1.18149995803833,-0.9179999828338623,9.691800117492676
1683010594728837000,6.120837158203125,1.1794999837875366,-0.8583999872207642,9.697500228881836
1683010594748837000,6.140837158203125,1.177299976348877,-0.8080999851226807,9.702099800109863
1683010594768837000,6.160837158203125,1.1660000085830688,-0.764799952507019,9.706899642944336
1683010594788837000,6.180837158203125,1.1474000215530396,-0.7276999950408936,9.711999893188477
1683010594808837000,6.200837158203125,1.119499921798706,-0.7120999693870544,9.716400146484375
1683010594828837000,6.220837158203125,1.0900999307632446,-0.7113999724388123,9.719799995422363
1683010594848837000,6.240837158203125,1.0662999153137207,-0.7096999883651733,9.722599983215332
1683010594868837000,6.260837158203125,1.0536999702453613,-0.7071999907493591,9.724100112915039
1683010594888837000,6.280837158203125,1.051800012588501,-0.704800009727478,9.724499702453613
1683010594908837000,6.300837158203125,1.0686999559402466,-0.7048999667167664,9.722700119018555
1683010594928837000,6.320837158203125,1.0900999307632446,-0.7084000110626221,9.719999313354492
1683010594948838700,6.340838623046875,1.1150000095367432,-0.7206999659538269,9.716300010681152
1683010594968840200,6.360840087890625,1.1438000202178955,-0.7429999709129333,9.711299896240234
1683010594988838700,6.380838623046875,1.1708999872207642,-0.7797999978065491,9.7052001953125
1683010595008838700,6.400838623046875,1.1999999284744263,-0.8348000049591064,9.696999549865723
1683010595028838700,6.420838623046875,1.2287999391555786,-0.8999999761581421,9.687600135803223
1683010595048838700,6.440838623046875,1.260699987411499,-0.965499997138977,9.677199363708496
1683010595068838700,6.460838623046875,1.2990000247955322,-1.0271999835968018,9.66569995880127
1683010595088838700,6.480838623046875,1.3320000171661377,-1.0825999975204468,9.655200004577637
1683010595108838700,6.500838623046875,1.3644999265670776,-1.1341999769210815,9.644700050354004
1683010595128838700,6.520838623046875,1.4092999696731567,-1.173200011253357,9.633599281311035
1683010595148838700,6.540838623046875,1.43559992313385,-1.1865999698638916,9.62809944152832
1683010595168838700,6.560838623046875,1.445099949836731,-1.1930999755859375,9.625899314880371
1683010595188838700,6.580838623046875,1.472499966621399,-1.1948999166488647,9.621500015258789
1683010595208838700,6.600838623046875,1.531000018119812,-1.1729999780654907,9.615099906921387
1683010595228838700,6.620838623046875,1.5911999940872192,-1.1469999551773071,9.608399391174316
1683010595248838700,6.640838623046875,1.6345999240875244,-1.1409000158309937,9.601900100708008
1683010595268838700,6.660838623046875,1.6394999027252197,-1.1477999687194824,9.600199699401855
1683010595288838700,6.680838623046875,1.6231999397277832,-1.136099934577942,9.604399681091309
1683010595308838700,6.700838623046875,1.5997999906539917,-1.090399980545044,9.61359977722168
1683010595328838700,6.720838623046875,1.5780999660491943,-1.0342999696731567,9.62339973449707
1683010595348838700,6.740838623046875,1.5719999074935913,-1.0037000179290771,9.627599716186523
1683010595368838700,6.760838623046875,1.5613999366760254,-0.9934999942779541,9.630399703979492
1683010595388840200,6.780840087890625,1.5368999242782593,-0.9821999669075012,9.635499954223633
1683010595408838700,6.800838623046875,1.5056999921798706,-0.9577999711036682,9.642899513244629
1683010595428837000,6.820837158203125,1.4749999046325684,-0.9310999512672424,9.650199890136719
1683010595448838700,6.840838623046875,1.4571999311447144,-0.9023000001907349,9.655699729919434
1683010595468838700,6.860838623046875,1.4433000087738037,-0.8736000061035156,9.660399436950684
1683010595488840200,6.880840087890625,1.4352999925613403,-0.8459999561309814,9.663999557495117
1683010595508840200,6.900840087890625,1.4335999488830566,-0.8192999958992004,9.666600227355957
1683010595528838700,6.920838623046875,1.4376999139785767,-0.8033999800682068,9.6673002243042
1683010595548837000,6.940837158203125,1.4473999738693237,-0.7996000051498413,9.666199684143066
1683010595568837000,6.960837158203125,1.4534000158309937,-0.8036999702453613,9.664899826049805
1683010595588837000,6.980837158203125,1.438099980354309,-0.8141999840736389,9.666299819946289
1683010595608837000,7.000837158203125,1.406499981880188,-0.82669997215271,9.669899940490723
1683010595628837000,7.020837158203125,1.3639999628067017,-0.8481000065803528,9.674200057983398
1683010595648837000,7.040837158203125,1.323699951171875,-0.8732999563217163,9.677499771118164
1683010595668837000,7.060837158203125,1.3005999326705933,-0.8901000022888184,9.679100036621094
1683010595688837000,7.080837158203125,1.284600019454956,-0.9042999744415283,9.679900169372559
1683010595708837000,7.100837158203125,1.2602999210357666,-0.9170999526977539,9.681900024414062
1683010595728837000,7.120837158203125,1.2300999164581299,-0.9246000051498413,9.685099601745605
1683010595748837000,7.140837158203125,1.2075999975204468,-0.9251999855041504,9.687899589538574
1683010595768837000,7.160837158203125,1.1970999240875244,-0.9221999645233154,9.689499855041504
1683010595788837000,7.180837158203125,1.1959999799728394,-0.9256999492645264,9.689299583435059
1683010595808837000,7.200837158203125,1.2161999940872192,-0.94159996509552,9.685199737548828
1683010595828837000,7.220837158203125,1.2493000030517578,-0.9688999652862549,9.678299903869629
1683010595848837000,7.240837158203125,1.2547999620437622,-0.989799976348877,9.67549991607666
1683010595868837000,7.260837158203125,1.242900013923645,-1.0214999914169312,9.673699378967285
1683010595888837000,7.280837158203125,1.2252999544143677,-1.0607999563217163,9.671699523925781
1683010595908837000,7.300837158203125,1.195599913597107,-1.0988999605178833,9.671199798583984
1683010595928837000,7.320837158203125,1.1753000020980835,-1.1233999729156494,9.670899391174316
1683010595948837000,7.340837158203125,1.1754999160766602,-1.1190999746322632,9.67140007019043
1683010595968837000,7.360837158203125,1.1895999908447266,-1.0886999368667603,9.673099517822266
1683010595988837000,7.380837158203125,1.2096999883651733,-1.0425999164581299,9.675700187683105
1683010596008840200,7.400840087890625,1.2179999351501465,-0.9878999590873718,9.680399894714355
1683010596028838700,7.420838623046875,1.2095999717712402,-0.9339999556541443,9.686800003051758
1683010596048838700,7.440838623046875,1.184999942779541,-0.8887999653816223,9.694099426269531
1683010596068838700,7.460838623046875,1.1509000062942505,-0.8483999967575073,9.701799392700195
1683010596088838700,7.480838623046875,1.115899920463562,-0.801099956035614,9.70989990234375
1683010596108838700,7.500838623046875,1.091499924659729,-0.7365999817848206,9.71780014038086
1683010596128838700,7.520838623046875,1.093500018119812,-0.6556999683380127,9.723299980163574
1683010596148838700,7.540838623046875,1.1116999387741089,-0.5697000026702881,9.726699829101562
1683010596168838700,7.560838623046875,1.1247999668121338,-0.4887999892234802,9.729599952697754
1683010596188838700,7.580838623046875,1.138700008392334,-0.41689997911453247,9.73129940032959
1683010596208838700,7.600838623046875,1.1470999717712402,-0.3531000018119812,9.73289966583252
1683010596228838700,7.620838623046875,1.1445999145507812,-0.3068999946117401,9.734700202941895
1683010596248838700,7.640838623046875,1.1390999555587769,-0.27730000019073486,9.736299514770508
1683010596268838700,7.660838623046875,1.1340999603271484,-0.26190000772476196,9.737299919128418
1683010596288838700,7.680838623046875,1.1273999214172363,-0.26190000772476196,9.738100051879883
1683010596308838700,7.700838623046875,1.1252999305725098,-0.2782000005245209,9.737799644470215
1683010596328838700,7.720838623046875,1.1233999729156494,-0.296999990940094,9.737500190734863
1683010596348838700,7.740838623046875,1.125999927520752,-0.3157999813556671,9.736599922180176
1683010596368838700,7.760838623046875,1.131500005722046,-0.32919999957084656,9.735499382019043
1683010596388838700,7.780838623046875,1.1404999494552612,-0.3376999795436859,9.734199523925781
1683010596408840200,7.800840087890625,1.1571999788284302,-0.3458999991416931,9.731900215148926
1683010596428840200,7.820840087890625,1.1789000034332275,-0.3577999770641327,9.728899955749512
1683010596448840200,7.840840087890625,1.2036999464035034,-0.3771999776363373,9.725099563598633
1683010596468840200,7.860840087890625,1.2263000011444092,-0.4059000015258789,9.721099853515625
1683010596488840200,7.880840087890625,1.2419999837875366,-0.4380999803543091,9.71780014038086
1683010596508837000,7.900837158203125,1.2426999807357788,-0.4569999873638153,9.71679973602295
1683010596528838700,7.920838623046875,1.2475999593734741,-0.45739999413490295,9.716099739074707
1683010596548838700,7.940838623046875,1.2826999425888062,-0.45159998536109924,9.711899757385254
1683010596568838700,7.960838623046875,1.330199956893921,-0.4449999928474426,9.70580005645752
1683010596588838700,7.980838623046875,1.3632999658584595,-0.4635999798774719,9.700300216674805
1683010596608838700,8.000838623046874,1.3884999752044678,-0.5108000040054321,9.6943998336792
1683010596628838700,8.020838623046876,1.4046999216079712,-0.5702999830245972,9.688699722290039
1683010596648838700,8.040838623046875,1.430899977684021,-0.60589998960495,9.682700157165527
1683010596668838700,8.060838623046875,1.4950000047683716,-0.6146999597549438,9.672399520874023
1683010596688838700,8.080838623046875,1.5877999067306519,-0.6054999828338623,9.658199310302734
1683010596708838700,8.100838623046876,1.6696999073028564,-0.5862999558448792,9.645599365234375
1683010596728838700,8.120838623046875,1.7139999866485596,-0.5706999897956848,9.638799667358398
1683010596748838700,8.140838623046875,1.7247999906539917,-0.5717999935150146,9.636799812316895
1683010596768838700,8.160838623046875,1.7178999185562134,-0.5805000066757202,9.637499809265137
1683010596788838700,8.180838623046874,1.7161999940872192,-0.5827999711036682,9.637700080871582
1683010596808838700,8.200838623046875,1.741499900817871,-0.5733000040054321,9.633699417114258
1683010596828838700,8.220838623046875,1.7910999059677124,-0.5548999905586243,9.625699996948242
1683010596848838700,8.240838623046875,1.8361999988555908,-0.5343999862670898,9.61829948425293
1683010596868838700,8.260838623046874,1.8508999347686768,-0.5180999636650085,9.616399765014648
1683010596888838700,8.280838623046876,1.834299921989441,-0.5090999603271484,9.620100021362305
1683010596908838700,8.300838623046875,1.8097000122070312,-0.5121999979019165,9.624499320983887
1683010596928838700,8.320838623046875,1.795699954032898,-0.5234000086784363,9.626599311828613
1683010596948838700,8.340838623046874,1.7939000129699707,-0.5370000004768372,9.626099586486816
1683010596968838700,8.360838623046876,1.798799991607666,-0.5489000082015991,9.62459945678711
1683010596988838700,8.380838623046875,1.8014999628067017,-0.5527999997138977,9.623799324035645
1683010597008837000,8.400837158203124,1.7980999946594238,-0.5555999875068665,9.624300003051758
1683010597028838700,8.420838623046874,1.7937999963760376,-0.5618999600410461,9.624799728393555
1683010597048838700,8.440838623046876,1.7906999588012695,-0.5717999935150146,9.624699592590332
1683010597068838700,8.460838623046875,1.7889999151229858,-0.592199981212616,9.623799324035645
1683010597088838700,8.480838623046875,1.788699984550476,-0.6222000122070312,9.621999740600586
1683010597108838700,8.500838623046874,1.7918999195098877,-0.6536999940872192,9.61929988861084
1683010597128838700,8.520838623046876,1.7960999011993408,-0.6843000054359436,9.616399765014648
1683010597148838700,8.540838623046875,1.793199896812439,-0.7148999571800232,9.614699363708496
1683010597168838700,8.560838623046875,1.7878999710083008,-0.7448999881744385,9.613399505615234
1683010597188838700,8.580838623046875,1.7899999618530273,-0.7773000001907349,9.610499382019043
1683010597208838700,8.600838623046876,1.8044999837875366,-0.8150999546051025,9.604599952697754
1683010597228838700,8.620838623046875,1.8367999792099,-0.8695999979972839,9.59369945526123
1683010597248838700,8.640838623046875,1.88510000705719,-0.9519000053405762,9.576499938964844
1683010597268838700,8.660838623046875,1.923699975013733,-1.0333999395370483,9.560400009155273
1683010597288838700,8.680838623046874,1.9300999641418457,-1.1061999797821045,9.550899505615234
1683010597308838700,8.700838623046875,1.9109998941421509,-1.1710000038146973,9.54699993133545
1683010597328838700,8.720838623046875,1.8930000066757202,-1.2167999744415283,9.544899940490723
1683010597348838700,8.740838623046875,1.889799952507019,-1.2518999576568604,9.540999412536621
1683010597368838700,8.760838623046874,1.8990999460220337,-1.2908999919891357,9.533899307250977
1683010597388838700,8.780838623046876,1.904099941253662,-1.3258999586105347,9.528200149536133
1683010597408838700,8.800838623046875,1.9017999172210693,-1.3630999326705933,9.523300170898438
1683010597428838700,8.820838623046875,1.8980000019073486,-1.4128999710083008,9.516900062561035
1683010597448838700,8.840838623046874,1.8898999691009521,-1.4677000045776367,9.510199546813965
1683010597468838700,8.860838623046876,1.8817999362945557,-1.5168999433517456,9.50409984588623
1683010597488838700,8.880838623046875,1.8608999252319336,-1.5611000061035156,9.500999450683594
1683010597508837000,8.900837158203124,1.8442999124526978,-1.592099905014038,9.499099731445312
1683010597528838700,8.920838623046874,1.819599986076355,-1.59089994430542,9.50409984588623
1683010597548838700,8.940838623046876,1.7785999774932861,-1.5534999370574951,9.517999649047852
1683010597568838700,8.960838623046875,1.7437999248504639,-1.4955999851226807,9.533699989318848
1683010597588838700,8.980838623046875,1.7185999155044556,-1.4251999855041504,9.548999786376953
1683010597608838700,9.000838623046874,1.7045999765396118,-1.348099946975708,9.562799453735352
1683010597628838700,9.020838623046876,1.6928999423980713,-1.2739999294281006,9.574999809265137
1683010597648838700,9.040838623046875,1.6718000173568726,-1.2127000093460083,9.586599349975586
1683010597668838700,9.060838623046875,1.6409999132156372,-1.170799970626831,9.597199440002441
1683010597688838700,9.080838623046875,1.604599952697754,-1.1442999839782715,9.606499671936035
1683010597708838700,9.100838623046876,1.5774999856948853,-1.1169999837875366,9.6141996383667
1683010597728838700,9.120838623046875,1.566499948501587,-1.0781999826431274,9.620399475097656
1683010597748838700,9.140838623046875,1.5644999742507935,-1.0411999225616455,9.624799728393555
1683010597768838700,9.160838623046875,1.5647000074386597,-1.0123000144958496,9.627900123596191
1683010597788838700,9.180838623046874,1.5657999515533447,-0.9932999610900879,9.62969970703125
1683010597808838700,9.200838623046875,1.5602999925613403,-0.9817000031471252,9.631799697875977
1683010597828838700,9.220838623046875,1.555799961090088,-0.9745999574661255,9.633199691772461
1683010597848838700,9.240838623046875,1.5601999759674072,-0.9688999652862549,9.633099555969238
1683010597868838700,9.260838623046874,1.5748999118804932,-0.964199960231781,9.631199836730957
1683010597888838700,9.280838623046876,1.5952999591827393,-0.958899974822998,9.628299713134766
1683010597908838700,9.300838623046875,1.6195999383926392,-0.9548999667167664,9.624699592590332
1683010597928838700,9.320838623046875,1.645799994468689,-0.9536999464035034,9.620299339294434
1683010597948838700,9.340838623046874,1.6680999994277954,-0.9555999636650085,9.616299629211426
1683010597968838700,9.360838623046876,1.6812999248504639,-0.9550999999046326,9.614099502563477
1683010597988838700,9.380838623046875,1.6876999139785767,-0.9456999897956848,9.613900184631348
1683010598008837000,9.400837158203124,1.6883000135421753,-0.9305999875068665,9.61520004272461
1683010598028838700,9.420838623046874,1.6922999620437622,-0.9235000014305115,9.61520004272461
1683010598048838700,9.440838623046876,1.706299901008606,-0.9274999499320984,9.61240005493164
1683010598068838700,9.460838623046875,1.733299970626831,-0.9343999624252319,9.606900215148926
1683010598088838700,9.480838623046875,1.7597999572753906,-0.9546999931335449,9.59999942779541
1683010598108838700,9.500838623046874,1.8050999641418457,-0.9917999505996704,9.587900161743164
1683010598128838700,9.520838623046876,1.843999981880188,-1.0196000337600708,9.577499389648438
1683010598148838700,9.540838623046875,1.8918999433517456,-1.0382000207901,9.56619930267334
1683010598168838700,9.560838623046875,1.9538999795913696,-1.0454999208450317,9.552899360656738
1683010598188838700,9.580838623046875,1.9833999872207642,-1.0489000082015991,9.546500205993652
1683010598208838700,9.600838623046876,1.9823999404907227,-1.0698000192642212,9.544400215148926
1683010598228838700,9.620838623046875,1.9799000024795532,-1.1039999723434448,9.540999412536621
1683010598248838700,9.640838623046875,1.973599910736084,-1.1414999961853027,9.5378999710083
1683010598268838700,9.660838623046875,1.9674999713897705,-1.164699912071228,9.536299705505371
1683010598288838700,9.680838623046874,1.976599931716919,-1.1619999408721924,9.534799575805664
1683010598308838700,9.700838623046875,1.9948999881744385,-1.136299967765808,9.534099578857422
1683010598328838700,9.720838623046875,2.0088999271392822,-1.0972999334335327,9.535699844360352
1683010598348838700,9.740838623046875,2.025899887084961,-1.0485999584197998,9.537599563598633
1683010598368838700,9.760838623046874,2.055000066757202,-0.9818999767303467,9.538399696350098
1683010598388838700,9.780838623046876,2.0915000438690186,-0.9085999727249146,9.537799835205078
1683010598408838700,9.800838623046875,2.1392998695373535,-0.8427000045776367,9.533199310302734
1683010598428838700,9.820838623046875,2.191699981689453,-0.7929999828338623,9.525599479675293
1683010598448838700,9.840838623046874,2.238100051879883,-0.7658999562263489,9.517000198364258
1683010598468838700,9.860838623046876,2.276099920272827,-0.7462999820709229,9.509599685668945
1683010598488838700,9.880838623046875,2.3064000606536865,-0.7319999933242798,9.503399848937988
1683010598508838700,9.900838623046875,2.330699920654297,-0.7353000044822693,9.497200012207031
1683010598528838700,9.920838623046874,2.353600025177002,-0.7536999583244324,9.490099906921387
1683010598548838700,9.940838623046876,2.3760998249053955,-0.7846999764442444,9.481999397277832
1683010598568838700,9.960838623046875,2.3977999687194824,-0.823699951171875,9.473199844360352
1683010598588838700,9.980838623046875,2.4098000526428223,-0.8697999715805054,9.465999603271484
1683010598608838700,10.000838623046874,2.410599946975708,-0.9240999817848206,9.460700035095215
1683010598628838700,10.020838623046876,2.3945999145507812,-0.9782999753952026,9.45930004119873
1683010598648838700,10.040838623046875,2.362299919128418,-1.0268999338150024,9.462200164794922
1683010598668838700,10.060838623046875,2.3210999965667725,-1.074299931526184,9.467199325561523
1683010598688838700,10.080838623046875,2.283400058746338,-1.1204999685287476,9.470999717712402
1683010598708840200,10.100840087890624,2.25,-1.1629999876022339,9.473899841308594
1683010598728838700,10.120838623046875,2.214400053024292,-1.1933000087738037,9.478499412536621
1683010598748838700,10.140838623046875,2.179999828338623,-1.2125999927520752,9.484000205993652
1683010598768838700,10.160838623046875,2.1412999629974365,-1.2166999578475952,9.492300033569336
1683010598788838700,10.180838623046874,2.1004998683929443,-1.212999939918518,9.501899719238281
1683010598808838700,10.200838623046875,2.0634000301361084,-1.2078999280929565,9.510600090026855
1683010598828838700,10.220838623046875,2.0360000133514404,-1.197700023651123,9.517799377441406
1683010598848838700,10.240838623046875,2.010499954223633,-1.1928999423980713,9.523900032043457
1683010598868838700,10.260838623046874,1.9804999828338623,-1.2024999856948853,9.528900146484375
1683010598888838700,10.280838623046876,1.9500999450683594,-1.2329999208450317,9.531299591064453
1683010598908838700,10.300838623046875,1.9157999753952026,-1.2674999237060547,9.53380012512207
1683010598928838700,10.320838623046875,1.8844999074935913,-1.2979999780654907,9.535900115966797
1683010598948838700,10.340838623046874,1.8579999208450317,-1.3341000080108643,9.536099433898926
1683010598968838700,10.360838623046876,1.8316999673843384,-1.378999948501587,9.534799575805664
1683010598988838700,10.380838623046875,1.8034999370574951,-1.4139000177383423,9.53499984741211
1683010599008837000,10.400837158203124,1.7730998992919922,-1.4185999631881714,9.54010009765625
1683010599028838700,10.420838623046874,1.7529000043869019,-1.3783999681472778,9.549699783325195
1683010599048838700,10.440838623046876,1.7590999603271484,-1.305899977684021,9.558699607849121
1683010599068838700,10.460838623046875,1.795699954032898,-1.2137999534606934,9.564099311828613
1683010599088838700,10.480838623046875,1.8492000102996826,-1.1088999509811401,9.56659984588623
1683010599108838700,10.500838623046874,1.8942999839782715,-1.010599970817566,9.568699836730957
1683010599128838700,10.520838623046876,1.917199969291687,-0.9284999966621399,9.572400093078613
1683010599148838700,10.540838623046875,1.9269999265670776,-0.8550999760627747,9.577300071716309
1683010599168838700,10.560838623046875,1.9336999654769897,-0.7910999655723572,9.581399917602539
1683010599188838700,10.580838623046875,1.9371999502182007,-0.7303999662399292,9.585599899291992
1683010599208838700,10.600838623046876,1.937999963760376,-0.6743999719619751,9.589499473571777
1683010599228837000,10.620837158203125,1.9368999004364014,-0.6275999546051025,9.592899322509766
1683010599248837000,10.640837158203125,1.925399899482727,-0.5949999690055847,9.597299575805664
1683010599268837000,10.660837158203124,1.9024999141693115,-0.5755999684333801,9.602999687194824
1683010599288837000,10.680837158203126,1.8797999620437622,-0.5654999613761902,9.608099937438965
1683010599308837000,10.700837158203125,1.8629999160766602,-0.5600000023841858,9.611700057983398
1683010599328837000,10.720837158203125,1.854099988937378,-0.5584999918937683,9.613499641418457
1683010599348837000,10.740837158203124,1.8544999361038208,-0.5582999587059021,9.613399505615234
1683010599368837000,10.760837158203126,1.8633999824523926,-0.5519999861717224,9.612099647521973
1683010599388837000,10.780837158203125,1.8757998943328857,-0.5410000085830688,9.610300064086914
1683010599408837000,10.800837158203125,1.893399953842163,-0.5253999829292297,9.607699394226074
1683010599428837000,10.820837158203124,1.9077999591827393,-0.5033000111579895,9.605999946594238
1683010599448837000,10.840837158203126,1.9192999601364136,-0.4799000024795532,9.604999542236328
1683010599468837000,10.860837158203125,1.920300006866455,-0.4462999999523163,9.606399536132812
1683010599488837000,10.880837158203125,1.899399995803833,-0.4174000024795532,9.611800193786621
1683010599508837000,10.900837158203124,1.8765000104904175,-0.398499995470047,9.61709976196289
1683010599528837000,10.920837158203126,1.8531999588012695,-0.37199997901916504,9.622699737548828
1683010599548837000,10.940837158203125,1.8464999198913574,-0.33709999918937683,9.625299453735352
1683010599568837000,10.960837158203125,1.869399905204773,-0.28769999742507935,9.622499465942383
1683010599588837000,10.980837158203125,1.9197999238967896,-0.23160000145435333,9.613999366760254
1683010599608837000,11.000837158203124,1.9858999252319336,-0.17599999904632568,9.601799964904785
1683010599628837000,11.020837158203125,2.0511999130249023,-0.11599999666213989,9.58899974822998
1683010599648837000,11.040837158203125,2.0889999866485596,-0.0851999968290329,9.581099510192871
1683010599668837000,11.060837158203125,2.0885000228881836,-0.11009999364614487,9.580999374389648
1683010599688837000,11.080837158203124,2.0520999431610107,-0.17579999566078186,9.587900161743164
1683010599708837000,11.100837158203126,1.999899983406067,-0.24639999866485596,9.597299575805664
1683010599728837000,11.120837158203125,1.9478999376296997,-0.296999990940094,9.606599807739258
1683010599748837000,11.140837158203125,1.9122999906539917,-0.3278999924659729,9.612699508666992
1683010599768840200,11.160840087890625,1.8852999210357666,-0.3507999777793884,9.617300033569336
1683010599788838700,11.180838623046874,1.8533999919891357,-0.3726999759674072,9.622599601745605
1683010599808838700,11.200838623046875,1.8187999725341797,-0.3946000039577484,9.628399848937988
1683010599828838700,11.220838623046875,1.7863999605178833,-0.4220999777317047,9.633299827575684
1683010599848838700,11.240838623046875,1.7515000104904175,-0.4596000015735626,9.637999534606934
1683010599868838700,11.260838623046874,1.7172999382019043,-0.4958999752998352,9.64229965209961
1683010599888838700,11.280838623046876,1.6832998991012573,-0.5274999737739563,9.646599769592285
1683010599908838700,11.300838623046875,1.649899959564209,-0.5503000020980835,9.651100158691406
1683010599928838700,11.320838623046875,1.6190999746322632,-0.5634999871253967,9.655599594116211
1683010599948838700,11.340838623046874,1.5961999893188477,-0.5701000094413757,9.6589994430542
1683010599968838700,11.360838623046876,1.5752999782562256,-0.5755000114440918,9.662099838256836
1683010599988838700,11.380838623046875,1.5547000169754028,-0.5830999612808228,9.664999961853027
1683010600008837000,11.400837158203124,1.5286999940872192,-0.597000002861023,9.668299674987793
1683010600028838700,11.420838623046874,1.4996999502182007,-0.6177999973297119,9.671500205993652
1683010600048838700,11.440838623046876,1.4882999658584595,-0.6299999952316284,9.672499656677246
1683010600068838700,11.460838623046875,1.4946999549865723,-0.6288999915122986,9.671599388122559
1683010600088838700,11.480838623046875,1.5023999214172363,-0.6218000054359436,9.67080020904541
1683010600108838700,11.500838623046874,1.5144000053405762,-0.6072999835014343,9.669899940490723
1683010600128838700,11.520838623046876,1.521799921989441,-0.5880999565124512,9.669899940490723
1683010600148838700,11.540838623046875,1.5157999992370605,-0.5799999833106995,9.67140007019043
1683010600168838700,11.560838623046875,1.5027999877929688,-0.5898000001907349,9.672800064086914
1683010600188838700,11.580838623046875,1.4779999256134033,-0.6212999820709229,9.674599647521973
1683010600208838700,11.600838623046876,1.4555000066757202,-0.6685000061988831,9.67490005493164
1683010600228838700,11.620838623046875,1.4431999921798706,-0.6990000009536743,9.674599647521973
1683010600248838700,11.640838623046875,1.4417999982833862,-0.7076999545097351,9.674200057983398
1683010600268838700,11.660838623046875,1.4506999254226685,-0.6936999559402466,9.67389965057373
1683010600288838700,11.680838623046874,1.4650999307632446,-0.6530999541282654,9.67449951171875
1683010600308838700,11.700838623046875,1.4810999631881714,-0.5895999670028687,9.676199913024902
1683010600328838700,11.720838623046875,1.4825999736785889,-0.5253999829292297,9.67959976196289
1683010600348840200,11.740840087890625,1.465499997138977,-0.47360000014305115,9.68489933013916
1683010600368840200,11.760840087890625,1.4335999488830566,-0.4343999922275543,9.691499710083008
1683010600388840200,11.780840087890626,1.4014999866485596,-0.397599995136261,9.697799682617188
1683010600408840200,11.800840087890625,1.3782999515533447,-0.3497999906539917,9.702899932861328
1683010600428840200,11.820840087890625,1.3701999187469482,-0.30399999022483826,9.705599784851074
1683010600448838700,11.840838623046874,1.3671000003814697,-0.2694999873638153,9.707099914550781
1683010600468838700,11.860838623046876,1.3633999824523926,-0.24769999086856842,9.708199501037598
1683010600488838700,11.880838623046875,1.3524999618530273,-0.2313999980688095,9.710100173950195
1683010600508837000,11.900837158203124,1.340499997138977,-0.21599999070167542,9.7121000289917
1683010600528838700,11.920838623046874,1.333899974822998,-0.2020999938249588,9.713299751281738
1683010600548838700,11.940838623046876,1.3306999206542969,-0.19609999656677246,9.713899612426758
1683010600568838700,11.960838623046875,1.33079993724823,-0.1898999959230423,9.71399974822998
1683010600588838700,11.980838623046875,1.3287999629974365,-0.18799999356269836,9.714300155639648
1683010600608838700,12.000838623046874,1.3241000175476074,-0.19139999151229858,9.714900016784668
1683010600628838700,12.020838623046876,1.3191999197006226,-0.20160000026226044,9.715399742126465
1683010600648838700,12.040838623046875,1.3142999410629272,-0.22089999914169312,9.71560001373291
1683010600668838700,12.060838623046875,1.3085999488830566,-0.24539999663829803,9.715799331665039
1683010600688838700,12.080838623046875,1.3005999326705933,-0.27459999918937683,9.716099739074707
1683010600708838700,12.100838623046876,1.2903999090194702,-0.31219998002052307,9.716300010681152
1683010600728838700,12.120838623046875,1.280900001525879,-0.3546999990940094,9.716099739074707
1683010600748838700,12.140838623046875,1.2733999490737915,-0.3999999761581421,9.715299606323242
1683010600768838700,12.160838623046875,1.2675999402999878,-0.4465999901294708,9.714099884033203
1683010600788838700,12.180838623046874,1.2668999433517456,-0.49480000138282776,9.711799621582031
1683010600808838700,12.200838623046875,1.285099983215332,-0.5343999862670898,9.707300186157227
1683010600828838700,12.220838623046875,1.3149999380111694,-0.5550999641418457,9.702199935913086
1683010600848838700,12.240838623046875,1.3574999570846558,-0.5616999864578247,9.695899963378906
1683010600868838700,12.260838623046874,1.426800012588501,-0.552299976348877,9.68649959564209
1683010600888838700,12.280838623046876,1.4803999662399292,-0.5354999899864197,9.679399490356445
1683010600908838700,12.300838623046875,1.5204999446868896,-0.5418999791145325,9.672800064086914
1683010600928838700,12.320838623046875,1.5609999895095825,-0.5516999959945679,9.665800094604492
1683010600948838700,12.340838623046874,1.5858999490737915,-0.5493999719619751,9.66189956665039
1683010600968838700,12.360838623046876,1.5932999849319458,-0.5468999743461609,9.660799980163574
1683010600988837000,12.380837158203125,1.601199984550476,-0.550599992275238,9.659299850463867
1683010601008837000,12.400837158203124,1.6116999387741089,-0.5659999847412109,9.656700134277344
1683010601028837000,12.420837158203126,1.6272999048233032,-0.59579998254776,9.652299880981445
1683010601048837000,12.440837158203125,1.650999903678894,-0.6139999628067017,9.647099494934082
1683010601068837000,12.460837158203125,1.6750999689102173,-0.6205999851226807,9.642499923706055
1683010601088837000,12.480837158203125,1.6863999366760254,-0.6207000017166138,9.64050006866455
1683010601108873200,12.500873291015624,1.6735999584197998,-0.6186000108718872,9.642899513244629
1683010601128838700,12.520838623046876,1.643799901008606,-0.6187999844551086,9.64799976348877
1683010601148838700,12.540838623046875,1.5982999801635742,-0.6186000108718872,9.655699729919434
1683010601168838700,12.560838623046875,1.5626999139785767,-0.6128000020980835,9.66189956665039
1683010601188838700,12.580838623046875,1.5478999614715576,-0.5913999676704407,9.665599822998047
1683010601208838700,12.600838623046876,1.548799991607666,-0.5644999742507935,9.666999816894531
1683010601228838700,12.620838623046875,1.5575999021530151,-0.5353999733924866,9.6673002243042
1683010601248838700,12.640838623046875,1.5619999170303345,-0.5080999732017517,9.668000221252441
1683010601268838700,12.660838623046875,1.5580999851226807,-0.4887999892234802,9.669699668884277
1683010601288838700,12.680838623046874,1.5489000082015991,-0.47929999232292175,9.671599388122559
1683010601308838700,12.700838623046875,1.5405999422073364,-0.4802999794483185,9.672900199890137
1683010601328838700,12.720838623046875,1.5293999910354614,-0.48829999566078186,9.674300193786621
1683010601348838700,12.740838623046875,1.5166999101638794,-0.49549999833106995,9.675899505615234
1683010601368838700,12.760838623046874,1.5042999982833862,-0.5001999735832214,9.677599906921387
1683010601388838700,12.780838623046876,1.4977999925613403,-0.5008999705314636,9.67859935760498
1683010601408838700,12.800838623046875,1.490899920463562,-0.5105999708175659,9.679100036621094
1683010601428838700,12.820838623046875,1.476599931716919,-0.5325999855995178,9.680099487304688
1683010601448838700,12.840838623046874,1.4642999172210693,-0.5622000098228455,9.680299758911133
1683010601468838700,12.860838623046876,1.455899953842163,-0.590399980545044,9.679900169372559
1683010601488838700,12.880838623046875,1.4437999725341797,-0.614300012588501,9.68019962310791
1683010601508838700,12.900838623046875,1.4301999807357788,-0.6358000040054321,9.680899620056152
1683010601528838700,12.920838623046874,1.417699933052063,-0.6624999642372131,9.680899620056152
1683010601548838700,12.940838623046876,1.4057999849319458,-0.6978999972343445,9.68019962310791
1683010601568838700,12.960838623046875,1.3966999053955078,-0.7360999584197998,9.678699493408203
1683010601588838700,12.980838623046875,1.3842999935150146,-0.7752999663352966,9.677399635314941
1683010601608838700,13.000838623046874,1.3740999698638916,-0.820099949836731,9.67509937286377
1683010601628838700,13.020838623046876,1.3597999811172485,-0.8697999715805054,9.672800064086914
1683010601648838700,13.040838623046875,1.3481999635696411,-0.9231999516487122,9.669499397277832
1683010601668838700,13.060838623046875,1.3431999683380127,-0.9680999517440796,9.665800094604492
1683010601688838700,13.080838623046875,1.3411999940872192,-0.989799976348877,9.663899421691895
1683010601708838700,13.100838623046876,1.3407999277114868,-1.0157999992370605,9.661199569702148
1683010601728838700,13.120838623046875,1.3508999347686768,-1.0491999387741089,9.656299591064453
1683010601748838700,13.140838623046875,1.3530999422073364,-1.0889999866485596,9.651599884033203
1683010601768838700,13.160838623046875,1.3278999328613281,-1.1165999174118042,9.651899337768555
1683010601788838700,13.180838623046874,1.2870999574661255,-1.1089999675750732,9.658299446105957
1683010601808838700,13.200838623046875,1.2630000114440918,-1.0720999240875244,9.665599822998047
1683010601828838700,13.220838623046875,1.268899917602539,-1.031599998474121,9.669300079345703
1683010601848838700,13.240838623046875,1.2573000192642212,-0.9922999739646912,9.67490005493164
1683010601868838700,13.260838623046874,1.2303999662399292,-0.9562999606132507,9.682000160217285
1683010601888838700,13.280838623046876,1.1897000074386597,-0.9161999821662903,9.690999984741211
1683010601908838700,13.300838623046875,1.153999924659729,-0.8732999563217163,9.699199676513672
1683010601928838700,13.320838623046875,1.1299999952316284,-0.8270999789237976,9.706099510192871
1683010601948838700,13.340838623046874,1.1141999959945679,-0.7759000062942505,9.7121000289917
1683010601968838700,13.360838623046876,1.1023999452590942,-0.7231000065803528,9.717599868774414
1683010601988838700,13.380838623046875,1.0943000316619873,-0.6676999926567078,9.722399711608887
1683010602008838700,13.400838623046875,1.0911999940872192,-0.6137999892234802,9.726299285888672
1683010602028838700,13.420838623046874,1.0961999893188477,-0.561199963092804,9.729000091552734
1683010602048838700,13.440838623046876,1.1095999479293823,-0.5139999985694885,9.73009967803955
1683010602068838700,13.460838623046875,1.1205999851226807,-0.48319998383522034,9.730400085449219
1683010602088838700,13.480838623046875,1.122499942779541,-0.4675999879837036,9.730899810791016
1683010602108838700,13.500838623046874,1.1159999370574951,-0.46469998359680176,9.731800079345703
1683010602128838700,13.520838623046876,1.114300012588501,-0.4690999984741211,9.731800079345703
1683010602148838700,13.540838623046875,1.1273000240325928,-0.4764999747276306,9.729899406433105
1683010602168838700,13.560838623046875,1.1406999826431274,-0.4852999746799469,9.727899551391602
1683010602188838700,13.580838623046875,1.1496000289916992,-0.4958999752998352,9.726299285888672
1683010602208838700,13.600838623046876,1.1708999872207642,-0.5056999921798706,9.723299980163574
1683010602228838700,13.620838623046875,1.2050999402999878,-0.5117999911308289,9.718799591064453
1683010602248838700,13.640838623046875,1.2483999729156494,-0.5151000022888184,9.713199615478516
1683010602268838700,13.660838623046875,1.30239999294281,-0.5166999697685242,9.705999374389648
1683010602288838700,13.680838623046874,1.3637999296188354,-0.5169999599456787,9.697500228881836
1683010602308838700,13.700838623046875,1.4198999404907227,-0.513700008392334,9.689599990844727
1683010602328838700,13.720838623046875,1.4799000024795532,-0.5012999773025513,9.681300163269043
1683010602348838700,13.740838623046875,1.5198999643325806,-0.48089998960494995,9.676199913024902
1683010602368838700,13.760838623046874,1.5480999946594238,-0.48399999737739563,9.671500205993652
1683010602388837000,13.780837158203125,1.5922999382019043,-0.4992999732494354,9.663599967956543
1683010602408837000,13.800837158203125,1.639699935913086,-0.5151000022888184,9.654799461364746
1683010602428837000,13.820837158203124,1.6857999563217163,-0.5217999815940857,9.646499633789062
1683010602448837000,13.840837158203126,1.7365999221801758,-0.5180999636650085,9.637700080871582
1683010602468837000,13.860837158203125,1.7983999252319336,-0.5105000138282776,9.626799583435059
1683010602488837000,13.880837158203125,1.8780999183654785,-0.5011000037193298,9.61199951171875
1683010602508837000,13.900837158203124,1.9483999013900757,-0.48489999771118164,9.598899841308594
1683010602528837000,13.920837158203126,1.9737999439239502,-0.46469998359680176,9.59469985961914
1683010602548837000,13.940837158203125,1.9447999000549316,-0.4521999955177307,9.601200103759766
1683010602568837000,13.960837158203125,1.8798999786376953,-0.45229998230934143,9.614099502563477
1683010602588837000,13.980837158203125,1.802899956703186,-0.46299999952316284,9.628299713134766
1683010602608837000,14.000837158203124,1.7404999732971191,-0.4723999798297882,9.639299392700195
1683010602628837000,14.020837158203125,1.6996999979019165,-0.46789997816085815,9.64680004119873
1683010602648837000,14.040837158203125,1.6787999868392944,-0.45499998331069946,9.651100158691406
1683010602668837000,14.060837158203125,1.6720999479293823,-0.4355999827384949,9.653200149536133
1683010602688837000,14.080837158203124,1.6608999967575073,-0.4189999997615814,9.655799865722656
1683010602708837000,14.100837158203126,1.6435999870300293,-0.40709999203681946,9.659299850463867
1683010602728837000,14.120837158203125,1.6287000179290771,-0.39729997515678406,9.662199974060059
1683010602748837000,14.140837158203125,1.6150000095367432,-0.3935000002384186,9.66469955444336
1683010602768837000,14.160837158203124,1.594099998474121,-0.4000999927520752,9.667900085449219
1683010602788837000,14.180837158203126,1.5637999773025513,-0.41599997878074646,9.672200202941895
1683010602808837000,14.200837158203125,1.5335999727249146,-0.4375,9.675999641418457
1683010602828837000,14.220837158203125,1.504599928855896,-0.45829999446868896,9.67959976196289
1683010602848837000,14.240837158203124,1.4771000146865845,-0.4790000021457672,9.682899475097656
1683010602868837000,14.260837158203126,1.4532999992370605,-0.4989999830722809,9.685500144958496
1683010602888837000,14.280837158203125,1.4352999925613403,-0.5230000019073486,9.68690013885498
1683010602908837000,14.300837158203125,1.4174000024795532,-0.5515999794006348,9.687899589538574
1683010602928837000,14.320837158203124,1.3981000185012817,-0.5812999606132507,9.689000129699707
1683010602948837000,14.340837158203126,1.381600022315979,-0.6097999811172485,9.689599990844727
1683010602968837000,14.360837158203125,1.375499963760376,-0.6421999931335449,9.688399314880371
1683010602988837000,14.380837158203125,1.3794000148773193,-0.6762999892234802,9.685500144958496
1683010603008837000,14.400837158203124,1.396899938583374,-0.7149999737739563,9.68019962310791
1683010603028837000,14.420837158203126,1.4404000043869019,-0.7594999670982361,9.670499801635742
1683010603048837000,14.440837158203125,1.4864000082015991,-0.8187999725341797,9.658599853515625
1683010603068837000,14.460837158203125,1.5144999027252197,-0.9143999814987183,9.645699501037598
1683010603088837000,14.480837158203125,1.5362999439239502,-1.0311999320983887,9.630499839782715
1683010603108837000,14.500837158203124,1.5333999395370483,-1.1276999711990356,9.620100021362305
1683010603128837000,14.520837158203125,1.5063999891281128,-1.202199935913086,9.615300178527832
1683010603148837000,14.540837158203125,1.503600001335144,-1.2559999227523804,9.60890007019043
1683010603168837000,14.560837158203125,1.5250999927520752,-1.2811999320983887,9.60219955444336
1683010603188837000,14.580837158203124,1.555799961090088,-1.2697999477386475,9.598799705505371
1683010603208837000,14.600837158203126,1.5820000171661377,-1.2161999940872192,9.601399421691895
1683010603228837000,14.620837158203125,1.591399908065796,-1.1365000009536743,9.609600067138672
1683010603248837000,14.640837158203125,1.5971999168395996,-1.063099980354309,9.61709976196289
1683010603268837000,14.660837158203124,1.6055999994277954,-1.0103999376296997,9.621299743652344
1683010603288837000,14.680837158203126,1.601099967956543,-0.9756999611854553,9.625699996948242
1683010603308837000,14.700837158203125,1.5821999311447144,-0.9411999583244324,9.63219928741455
1683010603328837000,14.720837158203125,1.5554999113082886,-0.8991000056266785,9.640600204467773
1683010603348837000,14.740837158203124,1.5378999710083008,-0.8551999926567078,9.64739990234375
1683010603368837000,14.760837158203126,1.5299999713897705,-0.8130999803543091,9.652299880981445
1683010603388837000,14.780837158203125,1.5296999216079712,-0.7775999903678894,9.65530014038086
1683010603408837000,14.800837158203125,1.5291999578475952,-0.746999979019165,9.65779972076416
1683010603428837000,14.820837158203124,1.5310999155044556,-0.7210999727249146,9.65939998626709
1683010603448837000,14.840837158203126,1.5307999849319458,-0.6984999775886536,9.661199569702148
1683010603468837000,14.860837158203125,1.5377999544143677,-0.6741999983787537,9.661799430847168
1683010603488837000,14.880837158203125,1.5572999715805054,-0.6444999575614929,9.660699844360352
1683010603508837000,14.900837158203124,1.5872999429702759,-0.614300012588501,9.65779972076416
1683010603528837000,14.920837158203126,1.6306999921798706,-0.5911999940872192,9.651999473571777
1683010603548837000,14.940837158203125,1.6759999990463257,-0.5807999968528748,9.644800186157227
1683010603568837000,14.960837158203125,1.70989990234375,-0.58160001039505,9.638799667358398
1683010603588837000,14.980837158203125,1.7325999736785889,-0.5924000144004822,9.634099960327148
1683010603608837000,15.000837158203124,1.7458999156951904,-0.60589998960495,9.630899429321289
1683010603628837000,15.020837158203125,1.7541999816894531,-0.6240000128746033,9.628199577331543
1683010603648837000,15.040837158203125,1.7558000087738037,-0.6488999724388123,9.626299858093262
1683010603668837000,15.060837158203125,1.7562999725341797,-0.6850000023841858,9.623700141906738
1683010603688837000,15.080837158203124,1.757200002670288,-0.7288999557495117,9.620299339294434
1683010603708837000,15.100837158203126,1.7599999904632568,-0.773099958896637,9.616299629211426
1683010603728837000,15.120837158203125,1.780900001525879,-0.8158999681472778,9.60890007019043
1683010603748837000,15.140837158203125,1.8194999694824219,-0.852899968624115,9.598499298095703
1683010603768837000,15.160837158203124,1.8388999700546265,-0.8928999900817871,9.59119987487793
1683010603788837000,15.180837158203126,1.8463000059127808,-0.9494999647140503,9.58430004119873
1683010603808837000,15.200837158203125,1.8517999649047852,-1.0002000331878662,9.578100204467773
1683010603828837000,15.220837158203125,1.8601999282836914,-1.0206999778747559,9.574299812316895
1683010603848837000,15.240837158203124,1.89739990234375,-1.013100028038025,9.56779956817627
1683010603868837000,15.260837158203126,1.96589994430542,-0.9886999726295471,9.556499481201172
1683010603888837000,15.280837158203125,2.0411999225616455,-0.97489994764328,9.542099952697754
1683010603908837000,15.300837158203125,2.113600015640259,-0.9853000044822693,9.525300025939941
1683010603928837000,15.320837158203124,2.1533000469207764,-1.0055999755859375,9.514299392700195
1683010603948837000,15.340837158203126,2.1335999965667725,-1.0331000089645386,9.515799522399902
1683010603968837000,15.360837158203125,2.07099986076355,-1.0842000246047974,9.523900032043457
1683010603988837000,15.380837158203125,2.005199909210205,-1.1445000171661377,9.530900001525879
1683010604008837000,15.400837158203124,1.9569000005722046,-1.1912000179290771,9.535200119018555
1683010604028837000,15.420837158203126,1.9224998950958252,-1.216499924659729,9.538999557495117
1683010604048837000,15.440837158203125,1.893899917602539,-1.2238999605178833,9.54379940032959
1683010604068837000,15.460837158203125,1.8633999824523926,-1.2201999425888062,9.550299644470215
1683010604088837000,15.480837158203125,1.8269999027252197,-1.2091000080108643,9.558699607849121
1683010604108837000,15.500837158203124,1.789699912071228,-1.1897000074386597,9.56820011138916
1683010604128837000,15.520837158203125,1.7558999061584473,-1.171199917793274,9.576799392700195
1683010604148837000,15.540837158203125,1.7237999439239502,-1.160099983215332,9.58389949798584
1683010604168837000,15.560837158203125,1.6922999620437622,-1.1523000001907349,9.590499877929688
1683010604188837000,15.580837158203124,1.652999997138977,-1.14329993724823,9.598400115966797
1683010604208837000,15.600837158203126,1.6140999794006348,-1.1268999576568604,9.606999397277832
1683010604228837000,15.620837158203125,1.580899953842163,-1.0985000133514404,9.615799903869629
1683010604248837000,15.640837158203125,1.5537999868392944,-1.0674999952316284,9.623700141906738
1683010604268837000,15.660837158203124,1.5305999517440796,-1.038699984550476,9.630499839782715
1683010604288837000,15.680837158203126,1.5058000087738037,-1.0155999660491943,9.636899948120117
1683010604308837000,15.700837158203125,1.4789999723434448,-0.9985999464988708,9.642799377441406
1683010604328837000,15.720837158203125,1.4495999813079834,-0.9914000034332275,9.64799976348877
1683010604348837000,15.740837158203124,1.4300999641418457,-0.9829999804496765,9.651800155639648
1683010604368837000,15.760837158203126,1.4218000173568726,-0.9673999547958374,9.654600143432617
1683010604388837000,15.780837158203125,1.4213999509811401,-0.9531999826431274,9.656099319458008
1683010604408837000,15.800837158203125,1.4230999946594238,-0.9469999670982361,9.656499862670898
1683010604428837000,15.820837158203124,1.4256999492645264,-0.9547999501228333,9.65530014038086
1683010604448837000,15.840837158203126,1.4220999479293823,-0.97079998254776,9.654199600219727
1683010604468837000,15.860837158203125,1.3997999429702759,-1.0016000270843506,9.654399871826172
1683010604488837000,15.880837158203125,1.3804999589920044,-1.0382000207901,9.653299331665039
1683010604508837000,15.900837158203124,1.3798999786376953,-1.0683000087738037,9.650099754333496
1683010604528837000,15.920837158203126,1.3806999921798706,-1.0845999717712402,9.648099899291992
1683010604548837000,15.940837158203125,1.383099913597107,-1.0966999530792236,9.64639949798584
1683010604568837000,15.960837158203125,1.3913999795913696,-1.1030999422073364,9.644499778747559
1683010604588837000,15.980837158203125,1.4019999504089355,-1.107100009918213,9.642499923706055
1683010604608837000,16.000837158203126,1.4112999439239502,-1.0985000133514404,9.642099380493164
1683010604628837000,16.020837158203125,1.4055999517440796,-1.076799988746643,9.645400047302246
1683010604648837000,16.040837158203125,1.393899917602539,-1.0626999139785767,9.648699760437012
1683010604668837000,16.060837158203125,1.3838999271392822,-1.0562999248504639,9.650799751281738
1683010604688837000,16.080837158203124,1.3761999607086182,-1.0444999933242798,9.653200149536133
1683010604708838700,16.100838623046876,1.3720999956130981,-1.0170999765396118,9.656700134277344
1683010604728838700,16.120838623046875,1.3658000230789185,-0.9776999950408936,9.661699295043945
1683010604748838700,16.140838623046875,1.362299919128418,-0.9327999949455261,9.666600227355957
1683010604768838700,16.160838623046875,1.3634999990463257,-0.8883999586105347,9.670599937438965
1683010604788838700,16.180838623046874,1.3709999322891235,-0.8438999652862549,9.673500061035156
1683010604808838700,16.200838623046874,1.3810999393463135,-0.7996999621391296,9.675899505615234
1683010604828838700,16.220838623046873,1.3916999101638794,-0.7574999928474426,9.67770004272461
1683010604848838700,16.240838623046876,1.3986999988555908,-0.717199981212616,9.679800033569336
1683010604868838700,16.260838623046876,1.4021999835968018,-0.6782000064849854,9.682099342346191
1683010604888838700,16.280838623046876,1.4031999111175537,-0.6419999599456787,9.684399604797363
1683010604908838700,16.300838623046875,1.4023000001907349,-0.6121999621391296,9.68649959564209
1683010604928838700,16.320838623046875,1.3946999311447144,-0.5932999849319458,9.688799858093262
1683010604948838700,16.340838623046874,1.3805999755859375,-0.5834999680519104,9.691399574279785
1683010604968838700,16.360838623046874,1.3697999715805054,-0.5791000127792358,9.69320011138916
1683010604988838700,16.380838623046873,1.357800006866455,-0.5764999985694885,9.694999694824219
1683010605008838700,16.400838623046877,1.3492000102996826,-0.5727999806404114,9.696399688720703
1683010605028838700,16.420838623046876,1.3519999980926514,-0.5751000046730042,9.695899963378906
1683010605048838700,16.440838623046876,1.3562999963760376,-0.5848999619483948,9.69469928741455
1683010605068838700,16.460838623046875,1.3543000221252441,-0.5992000102996826,9.694099426269531
1683010605088838700,16.480838623046875,1.3536999225616455,-0.6098999977111816,9.693499565124512
1683010605108838700,16.500838623046874,1.3639999628067017,-0.6110000014305115,9.691999435424805
1683010605128838700,16.520838623046874,1.3953999280929565,-0.6043999791145325,9.687999725341797
1683010605148838700,16.540838623046874,1.4404000043869019,-0.5920999646186829,9.682099342346191
1683010605168838700,16.560838623046877,1.459299921989441,-0.5986999869346619,9.678899765014648
1683010605188838700,16.580838623046876,1.4757999181747437,-0.6355999708175659,9.673999786376953
1683010605208838700,16.600838623046876,1.4912999868392944,-0.6663999557495117,9.669599533081055
1683010605228838700,16.620838623046875,1.500599980354309,-0.6862999796867371,9.666799545288086
1683010605248838700,16.640838623046875,1.5231000185012817,-0.7075999975204468,9.661699295043945
1683010605268838700,16.660838623046875,1.552299976348877,-0.7335000038146973,9.655099868774414
1683010605288837000,16.680837158203126,1.590499997138977,-0.7663999795913696,9.64639949798584
1683010605308837000,16.700837158203125,1.6352999210357666,-0.781499981880188,9.63759994506836
1683010605328837000,16.720837158203125,1.6833999156951904,-0.7705000042915344,9.630199432373047
1683010605348837000,16.740837158203124,1.7300999164581299,-0.7439999580383301,9.624099731445312
1683010605368837000,16.760837158203124,1.7667999267578125,-0.7058999538421631,9.620200157165527
1683010605388837000,16.780837158203123,1.785099983215332,-0.6609999537467957,9.620100021362305
1683010605408837000,16.800837158203127,1.7774999141693115,-0.6204999685287476,9.624199867248535
1683010605428837000,16.820837158203126,1.7508000135421753,-0.590999960899353,9.630899429321289
1683010605448837000,16.840837158203126,1.730299949645996,-0.5759999752044678,9.635499954223633
1683010605468837000,16.860837158203125,1.7213999032974243,-0.5764999985694885,9.637100219726562
1683010605488837000,16.880837158203125,1.7186999320983887,-0.5902999639511108,9.636699676513672
1683010605508837000,16.900837158203124,1.7150999307632446,-0.6119999885559082,9.63599967956543
1683010605528837000,16.920837158203124,1.7086999416351318,-0.6383999586105347,9.635499954223633
1683010605548840200,16.940840087890624,1.7036999464035034,-0.6690999865531921,9.634300231933594
1683010605568837000,16.960837158203127,1.701799988746643,-0.703000009059906,9.63219928741455
1683010605588837000,16.980837158203126,1.6983000040054321,-0.7361999750137329,9.63029956817627
1683010605608837000,17.000837158203126,1.691999912261963,-0.7670999765396118,9.628999710083008
1683010605628837000,17.020837158203125,1.684000015258789,-0.798799991607666,9.627799987792969
1683010605648837000,17.040837158203125,1.674399971961975,-0.8349999785423279,9.626399993896484
1683010605668837000,17.060837158203125,1.6592999696731567,-0.8775999546051025,9.625299453735352
1683010605688837000,17.080837158203124,1.6399999856948853,-0.9282999634742737,9.623799324035645
1683010605708837000,17.100837158203124,1.6165999174118042,-0.984499990940094,9.622200012207031
1683010605728837000,17.120837158203123,1.5799999237060547,-1.0447999238967896,9.621899604797363
1683010605748837000,17.140837158203126,1.5317000150680542,-1.1050000190734863,9.623000144958496
1683010605768837000,17.160837158203126,1.4858999252319336,-1.1575000286102295,9.62399959564209
1683010605788837000,17.180837158203126,1.4560999870300293,-1.1983000040054321,9.623600006103516
1683010605808837000,17.200837158203125,1.4402999877929688,-1.2329000234603882,9.621600151062012
1683010605828837000,17.220837158203125,1.4357999563217163,-1.277899980545044,9.616399765014648
1683010605848837000,17.240837158203124,1.414099931716919,-1.3402999639511108,9.611100196838379
1683010605868837000,17.260837158203124,1.361299991607666,-1.4239000082015991,9.60669994354248
1683010605888837000,17.280837158203123,1.3075000047683716,-1.5018999576568604,9.602299690246582
1683010605908837000,17.300837158203127,1.2662999629974365,-1.5612999200820923,9.598299980163574
1683010605928837000,17.320837158203126,1.2443000078201294,-1.6094999313354492,9.593199729919434
1683010605948837000,17.340837158203126,1.2347999811172485,-1.63919997215271,9.589399337768555
1683010605968837000,17.360837158203125,1.2238999605178833,-1.6338999271392822,9.59179973602295
1683010605988837000,17.380837158203125,1.2114999294281006,-1.5798999071121216,9.602399826049805
1683010606008837000,17.400837158203124,1.2065999507904053,-1.4919999837875366,9.616999626159668
1683010606028837000,17.420837158203124,1.2135999202728271,-1.4000999927520752,9.630000114440918
1683010606048837000,17.440837158203124,1.2203999757766724,-1.3243999481201172,9.639800071716309
1683010606068837000,17.460837158203127,1.2139999866485596,-1.2619999647140503,9.64900016784668
1683010606088837000,17.480837158203126,1.2010999917984009,-1.2028999328613281,9.658100128173828
1683010606108840200,17.500840087890627,1.1966999769210815,-1.142899990081787,9.665999412536621
1683010606128837000,17.520837158203125,1.2101999521255493,-1.0795999765396118,9.671599388122559
1683010606148838700,17.540838623046874,1.2314000129699707,-1.01419997215271,9.675999641418457
1683010606168838700,17.560838623046877,1.249400019645691,-0.948199987411499,9.680299758911133
1683010606188838700,17.580838623046876,1.2604999542236328,-0.8842999935150146,9.684999465942383
1683010606208838700,17.600838623046876,1.2668999433517456,-0.8269999623298645,9.689199447631836
1683010606228838700,17.620838623046875,1.2726999521255493,-0.7785999774932861,9.692399978637695
1683010606248838700,17.640838623046875,1.2811999320983887,-0.7390999794006348,9.6943998336792
1683010606268838700,17.660838623046875,1.2930999994277954,-0.708899974822998,9.695099830627441
1683010606288838700,17.680838623046874,1.2933999300003052,-0.6912999749183655,9.69629955291748
1683010606308838700,17.700838623046874,1.2882000207901,-0.6825999617576599,9.697599411010742
1683010606328838700,17.720838623046873,1.2893999814987183,-0.6862999796867371,9.697199821472168
1683010606348838700,17.740838623046876,1.299299955368042,-0.7001999616622925,9.694899559020996
1683010606368838700,17.760838623046876,1.3133999109268188,-0.7202000021934509,9.691499710083008
1683010606388838700,17.780838623046876,1.3240000009536743,-0.7384999990463257,9.688699722290039
1683010606408838700,17.800838623046875,1.330399990081787,-0.7491999864578247,9.686999320983887
1683010606428838700,17.820838623046875,1.3442000150680542,-0.7498999834060669,9.684999465942383
1683010606448838700,17.840838623046874,1.3700000047683716,-0.7495999932289124,9.681499481201172
1683010606468838700,17.860838623046874,1.4014999866485596,-0.7565000057220459,9.676400184631348
1683010606488838700,17.880838623046873,1.426800012588501,-0.7726999521255493,9.67140007019043
1683010606508838700,17.900838623046877,1.4457999467849731,-0.8016999959945679,9.666199684143066
1683010606528838700,17.920838623046876,1.4714999198913574,-0.8389999866485596,9.659199714660645
1683010606548838700,17.940838623046876,1.50819993019104,-0.8868999481201172,9.649199485778809
1683010606568838700,17.960838623046875,1.5516999959945679,-0.9462999701499939,9.636699676513672
1683010606588838700,17.980838623046875,1.6022999286651611,-1.0134999752044678,9.621600151062012
1683010606608838700,18.000838623046874,1.6568999290466309,-1.0759999752044678,9.605500221252441
1683010606628838700,18.020838623046874,1.7080999612808228,-1.1287000179290771,9.590499877929688
1683010606648838700,18.040838623046874,1.7484999895095825,-1.1864999532699585,9.576199531555176
1683010606668840200,18.060840087890625,1.7939999103546143,-1.236899971961975,9.561399459838867
1683010606688838700,18.080838623046876,1.8102999925613403,-1.2441999912261963,9.55739974975586
1683010606708838700,18.100838623046876,1.8240000009536743,-1.2103999853134155,9.559100151062012
1683010606728838700,18.120838623046875,1.8395999670028687,-1.1318999528884888,9.565699577331543
1683010606748838700,18.140838623046875,1.8535999059677124,-1.024999976158142,9.57509994506836
1683010606768837000,18.160837158203126,1.852099895477295,-0.9125999808311462,9.586799621582031
1683010606788837000,18.180837158203126,1.8420000076293945,-0.8132999539375305,9.597599983215332
1683010606808837000,18.200837158203125,1.8155999183654785,-0.7322999835014343,9.609199523925781
1683010606828837000,18.220837158203125,1.775499939918518,-0.663100004196167,9.621699333190918
1683010606848837000,18.240837158203124,1.737399935722351,-0.5889999866485596,9.633500099182129
1683010606868837000,18.260837158203124,1.7174999713897705,-0.5092999935150146,9.641599655151367
1683010606888837000,18.280837158203123,1.7072999477386475,-0.421099990606308,9.647600173950195
1683010606908837000,18.300837158203127,1.7023999691009521,-0.32569998502731323,9.652199745178223
1683010606928837000,18.320837158203126,1.6965999603271484,-0.23160000145435333,9.655900001525879
1683010606948837000,18.340837158203126,1.6833999156951904,-0.1516999900341034,9.659799575805664
1683010606968837000,18.360837158203125,1.6622999906539917,-0.09470000118017197,9.664199829101562
1683010606988837000,18.380837158203125,1.636699914932251,-0.06079999729990959,9.66879940032959
1683010607008837000,18.400837158203124,1.6121999025344849,-0.04179999977350235,9.673099517822266
1683010607028837000,18.420837158203124,1.594099998474121,-0.033900000154972076,9.67609977722168
1683010607048837000,18.440837158203124,1.5855000019073486,-0.031700000166893005,9.677499771118164
1683010607068837000,18.460837158203127,1.5829999446868896,-0.031199999153614044,9.677899360656738
1683010607088837000,18.480837158203126,1.590399980545044,-0.026599999517202377,9.6766996383667
1683010607108837000,18.500837158203126,1.601199984550476,-0.02199999988079071,9.675000190734863
1683010607128837000,18.520837158203125,1.6208999156951904,-0.018199998885393143,9.671699523925781
1683010607148837000,18.540837158203125,1.646299958229065,-0.011599999852478504,9.667399406433105
1683010607168837000,18.560837158203125,1.6606999635696411,-0.011099999770522118,9.664899826049805
1683010607188837000,18.580837158203124,1.6509000062942505,-0.03449999913573265,9.666600227355957
1683010607208837000,18.600837158203124,1.6222000122070312,-0.07539999485015869,9.671199798583984
1683010607228837000,18.620837158203123,1.5777000188827515,-0.13899999856948853,9.677899360656738
1683010607248837000,18.640837158203126,1.5211999416351318,-0.20960000157356262,9.685599327087402
1683010607268837000,18.660837158203126,1.4677000045776367,-0.26159998774528503,9.692599296569824
1683010607288837000,18.680837158203126,1.4377999305725098,-0.2800999879837036,9.696599960327148
1683010607308837000,18.700837158203125,1.4270999431610107,-0.2809999883174896,9.698100090026855
1683010607328837000,18.720837158203125,1.4168999195098877,-0.27489998936653137,9.699799537658691
1683010607348837000,18.740837158203124,1.3976999521255493,-0.27230000495910645,9.702699661254883
1683010607368837000,18.760837158203124,1.3753999471664429,-0.2735999822616577,9.70580005645752
1683010607388837000,18.780837158203123,1.3571999073028564,-0.2742999792098999,9.70829963684082
1683010607408837000,18.800837158203127,1.3386999368667603,-0.28459998965263367,9.710599899291992
1683010607428837000,18.820837158203126,1.3250999450683594,-0.29589998722076416,9.7121000289917
1683010607448837000,18.840837158203126,1.3108999729156494,-0.3025999963283539,9.713899612426758
1683010607468837000,18.860837158203125,1.299299955368042,-0.30300000309944153,9.715399742126465
1683010607488837000,18.880837158203125,1.284500002861023,-0.2985999882221222,9.717499732971191
1683010607508837000,18.900837158203124,1.2675999402999878,-0.299699991941452,9.71969985961914
1683010607528837000,18.920837158203124,1.2497999668121338,-0.3060999810695648,9.721799850463867
1683010607548837000,18.940837158203124,1.232200026512146,-0.30300000309944153,9.724199295043945
1683010607568837000,18.960837158203127,1.2182999849319458,-0.2906000018119812,9.726299285888672
1683010607588837000,18.980837158203126,1.2136999368667603,-0.27549999952316284,9.727299690246582
1683010607608837000,19.000837158203126,1.2204999923706055,-0.26409998536109924,9.726799964904785
1683010607628837000,19.020837158203125,1.2287999391555786,-0.25939998030662537,9.725799560546875
1683010607648837000,19.040837158203125,1.2300999164581299,-0.26159998774528503,9.72559928894043
1683010607668837000,19.060837158203125,1.2231999635696411,-0.26829999685287476,9.726299285888672
1683010607688837000,19.080837158203124,1.214900016784668,-0.28129997849464417,9.726999282836914
1683010607708837000,19.100837158203124,1.2177000045776367,-0.3005000054836273,9.72599983215332
1683010607728837000,19.120837158203123,1.2272999286651611,-0.3208000063896179,9.724199295043945
1683010607748837000,19.140837158203126,1.2436000108718872,-0.3321000039577484,9.721699714660645
1683010607768837000,19.160837158203126,1.2645999193191528,-0.33149999380111694,9.719099998474121
1683010607788837000,19.180837158203126,1.285499930381775,-0.32339999079704285,9.716599464416504
1683010607808837000,19.200837158203125,1.3114999532699585,-0.31189998984336853,9.713500022888184
1683010607828837000,19.220837158203125,1.347499966621399,-0.3012999892234802,9.70889949798584
1683010607848837000,19.240837158203124,1.3889999389648438,-0.3027999997138977,9.70300006866455
1683010607868837000,19.260837158203124,1.421199917793274,-0.32659998536109924,9.697599411010742
1683010607888837000,19.280837158203123,1.4383999109268188,-0.3741999864578247,9.693299293518066
1683010607908837000,19.300837158203127,1.4526000022888184,-0.4430999755859375,9.688300132751465
1683010607928837000,19.320837158203126,1.4696999788284302,-0.5263999700546265,9.681499481201172
1683010607948837000,19.340837158203126,1.5015000104904175,-0.6101999878883362,9.671699523925781
1683010607968837000,19.360837158203125,1.5501999855041504,-0.6800999641418457,9.65939998626709
1683010607988837000,19.380837158203125,1.6066999435424805,-0.7299000024795532,9.646499633789062
1683010608008837000,19.400837158203124,1.6694999933242798,-0.752299964427948,9.634099960327148
1683010608028837000,19.420837158203124,1.735700011253357,-0.7429999709129333,9.623099327087402
1683010608048837000,19.440837158203124,1.8025000095367432,-0.718999981880188,9.612699508666992
1683010608068837000,19.460837158203127,1.880199909210205,-0.7066999673843384,9.598699569702148
1683010608088837000,19.480837158203126,1.9571999311447144,-0.6978999972343445,9.58389949798584
1683010608108837000,19.500837158203126,2.0095999240875244,-0.7074999809265137,9.572400093078613
1683010608128837000,19.520837158203125,2.0551998615264893,-0.73089998960495,9.56089973449707
1683010608148837000,19.540837158203125,2.093899965286255,-0.7416999936103821,9.5516996383667
1683010608168837000,19.560837158203125,2.126999855041504,-0.7319999933242798,9.545100212097168
1683010608188837000,19.580837158203124,2.1689999103546143,-0.7094999551773071,9.537399291992188
1683010608208837000,19.600837158203124,2.214400053024292,-0.682699978351593,9.528900146484375
1683010608228837000,19.620837158203123,2.2431998252868652,-0.6542999744415283,9.524099349975586
1683010608248837000,19.640837158203126,2.2381999492645264,-0.6220999956130981,9.52750015258789
1683010608268837000,19.660837158203126,2.21370005607605,-0.5902999639511108,9.535200119018555
1683010608288837000,19.680837158203126,2.196199893951416,-0.5564999580383301,9.541299819946289
1683010608308837000,19.700837158203125,2.194499969482422,-0.5194000005722046,9.54379940032959
1683010608328837000,19.720837158203125,2.200899839401245,-0.4878000020980835,9.543999671936035
1683010608348837000,19.740837158203124,2.198499917984009,-0.4607999920845032,9.545899391174316
1683010608368837000,19.760837158203124,2.1842000484466553,-0.44209998846054077,9.550000190734863
1683010608388837000,19.780837158203123,2.1624999046325684,-0.4341999888420105,9.555299758911133
1683010608408837000,19.800837158203127,2.137199878692627,-0.4377000033855438,9.56089973449707
1683010608428837000,19.820837158203126,2.109999895095825,-0.4511999785900116,9.566299438476562
1683010608448837000,19.840837158203126,2.082200050354004,-0.47119998931884766,9.571399688720703
1683010608468837000,19.860837158203125,2.056999921798706,-0.49449998140335083,9.575699806213379
1683010608488837000,19.880837158203125,2.0360000133514404,-0.5192999839782715,9.578800201416016
1683010608508837000,19.900837158203124,2.0204999446868896,-0.5436999797821045,9.58080005645752
1683010608528837000,19.920837158203124,2.007699966430664,-0.5692999958992004,9.581999778747559
1683010608548837000,19.940837158203124,1.9957998991012573,-0.5981999635696411,9.5826997756958
1683010608568837000,19.960837158203127,1.9810999631881714,-0.6287999749183655,9.583799362182617
1683010608588837000,19.980837158203126,1.9617999792099,-0.65829998254776,9.585800170898438
1683010608608837000,20.000837158203126,1.938099980354309,-0.6883999705314636,9.588500022888184
1683010608628837000,20.020837158203125,1.913100004196167,-0.7202999591827393,9.59119987487793
1683010608648837000,20.040837158203125,1.8827999830245972,-0.7470999956130981,9.595099449157715
1683010608668837000,20.060837158203125,1.851099967956543,-0.7709999680519104,9.59939956665039
1683010608688837000,20.080837158203124,1.8223999738693237,-0.7917999625205994,9.60319995880127
1683010608708837000,20.100837158203124,1.796299934387207,-0.8079999685287476,9.606800079345703
1683010608728837000,20.120837158203123,1.7651000022888184,-0.8263999819755554,9.611000061035156
1683010608748837000,20.140837158203126,1.7278000116348267,-0.8459999561309814,9.616000175476074
1683010608768837000,20.160837158203126,1.6908999681472778,-0.8615999817848206,9.621199607849121
1683010608788837000,20.180837158203126,1.6627999544143677,-0.8684999942779541,9.625499725341797
1683010608808837000,20.200837158203125,1.6526999473571777,-0.8704999685287476,9.626999855041504
1683010608828837000,20.220837158203125,1.6660999059677124,-0.8604999780654907,9.62559986114502
1683010608848837000,20.240837158203124,1.6916999816894531,-0.8351999521255493,9.62339973449707
1683010608868837000,20.260837158203124,1.7174999713897705,-0.8039999604225159,9.621500015258789
1683010608888837000,20.280837158203123,1.7247999906539917,-0.7756999731063843,9.622499465942383
1683010608908837000,20.300837158203127,1.7041000127792358,-0.769599974155426,9.626699447631836
1683010608928837000,20.320837158203126,1.6576999425888062,-0.78329998254776,9.633699417114258
1683010608948837000,20.340837158203126,1.6047999858856201,-0.7870000004768372,9.64229965209961
1683010608968837000,20.360837158203125,1.5678999423980713,-0.7633999586105347,9.650300025939941
1683010608988837000,20.380837158203125,1.5615999698638916,-0.7111999988555908,9.65530014038086
1683010609008837000,20.400837158203124,1.580899953842163,-0.645799994468689,9.656700134277344
1683010609028837000,20.420837158203124,1.6064000129699707,-0.5751000046730042,9.656999588012695
1683010609048837000,20.440837158203124,1.6273999214172363,-0.5105000138282776,9.657099723815918
1683010609068837000,20.460837158203127,1.6380000114440918,-0.45979997515678406,9.657899856567383
1683010609088837000,20.480837158203126,1.6418999433517456,-0.42249998450279236,9.658899307250977
1683010609108837000,20.500837158203126,1.64329993724823,-0.3960999846458435,9.659799575805664
1683010609128837000,20.520837158203125,1.642699956893921,-0.3815999925136566,9.660499572753906
1683010609148837000,20.540837158203125,1.6394000053405762,-0.37959998846054077,9.661099433898926
1683010609168837000,20.560837158203125,1.6341999769210815,-0.3872999846935272,9.661699295043945
1683010609188837000,20.580837158203124,1.6308000087738037,-0.4056999981403351,9.661499977111816
1683010609208837000,20.600837158203124,1.6294000148773193,-0.43849998712539673,9.660299301147461
1683010609228837000,20.620837158203123,1.6269999742507935,-0.4861999750137329,9.658499717712402
1683010609248837000,20.640837158203126,1.6274999380111694,-0.5464999675750732,9.655099868774414
1683010609268837000,20.660837158203126,1.6275999546051025,-0.6155999898910522,9.651000022888184
1683010609288837000,20.680837158203126,1.6283999681472778,-0.6886000037193298,9.645899772644043
1683010609308837000,20.700837158203125,1.6345999240875244,-0.7581999897956848,9.639599800109863
1683010609328837000,20.720837158203125,1.648800015449524,-0.8199999928474426,9.632100105285645
1683010609348837000,20.740837158203124,1.6713999509811401,-0.8707000017166138,9.623799324035645
1683010609368837000,20.760837158203124,1.6970999240875244,-0.9091999530792236,9.615699768066406
1683010609388837000,20.780837158203123,1.7243999242782593,-0.9355999827384949,9.60830020904541
1683010609408837000,20.800837158203127,1.7537999153137207,-0.9559999704360962,9.60099983215332
1683010609428837000,20.820837158203126,1.7867000102996826,-0.9681999683380127,9.59369945526123
1683010609448837000,20.840837158203126,1.7974998950958252,-0.9855999946594238,9.589900016784668
1683010609468837000,20.860837158203125,1.8100999593734741,-1.0267000198364258,9.583199501037598
1683010609488837000,20.880837158203125,1.8287999629974365,-1.0626999139785767,9.575799942016602
1683010609508837000,20.900837158203124,1.8358999490737915,-1.0907999277114868,9.571199417114258
1683010609528837000,20.920837158203124,1.8558999300003052,-1.1155999898910522,9.564499855041504
1683010609548837000,20.940837158203124,1.8873999118804932,-1.1418999433517456,9.555299758911133
1683010609568840200,20.960840087890624,1.9231998920440674,-1.1740999221801758,9.54419994354248
1683010609588840200,20.980840087890623,1.9642999172210693,-1.1948999166488647,9.533299446105957
1683010609608840200,21.000840087890627,2.006700038909912,-1.1917999982833862,9.524799346923828
1683010609628840200,21.020840087890626,2.048099994659424,-1.1660000085830688,9.51919937133789
1683010609648838700,21.040838623046874,2.0817999839782715,-1.1274999380111694,9.516499519348145
1683010609668838700,21.060838623046877,2.0957000255584717,-1.086400032043457,9.518199920654297
1683010609688838700,21.080838623046876,2.0906999111175537,-1.0529999732971191,9.523099899291992
1683010609708838700,21.100838623046876,2.0755999088287354,-1.0277999639511108,9.529099464416504
1683010609728837000,21.120837158203123,2.05649995803833,-1.0077999830245972,9.535399436950684
1683010609748840200,21.140840087890624,2.039900064468384,-0.9918999671936035,9.54069995880127
1683010609768838700,21.160838623046875,2.0234999656677246,-0.9801999926567078,9.54539966583252
1683010609788838700,21.180838623046874,2.0090999603271484,-0.9769999980926514,9.548699378967285
1683010609808838700,21.200838623046874,1.99399995803833,-0.9757999777793884,9.552000045776367
1683010609828838700,21.220838623046873,1.9734998941421509,-0.9728999733924866,9.556599617004395
1683010609848838700,21.240838623046876,1.9514999389648438,-0.972000002861023,9.561200141906738
1683010609868838700,21.260838623046876,1.9310998916625977,-0.9682999849319458,9.565699577331543
1683010609888838700,21.280838623046876,1.9063999652862549,-0.9615999460220337,9.57129955291748
1683010609908838700,21.300838623046875,1.8757998943328857,-0.9577999711036682,9.577699661254883
1683010609928838700,21.320838623046875,1.8394999504089355,-0.9566999673843384,9.58489990234375
1683010609948838700,21.340838623046874,1.802299976348877,-0.9532999992370605,9.592299461364746
1683010609968838700,21.360838623046874,1.7694000005722046,-0.9472999572753906,9.598999977111816
1683010609988838700,21.380838623046873,1.7451999187469482,-0.9406999945640564,9.604100227355957
1683010610008838700,21.400838623046877,1.7274999618530273,-0.9390999674797058,9.607399940490723
1683010610028838700,21.420838623046876,1.7089999914169312,-0.9526000022888184,9.609399795532227
1683010610048838700,21.440838623046876,1.6841999292373657,-0.9820999503135681,9.610799789428711
1683010610068838700,21.460838623046875,1.653999924659729,-1.0198999643325806,9.612099647521973
1683010610088838700,21.480838623046875,1.6222000122070312,-1.052799940109253,9.613999366760254
1683010610108838700,21.500838623046874,1.6042999029159546,-1.0634000301361084,9.615900039672852
1683010610128838700,21.520838623046874,1.6093000173568726,-1.0503000020980835,9.616399765014648
1683010610148838700,21.540838623046874,1.6385999917984009,-1.0180000066757202,9.614999771118164
1683010610168838700,21.560838623046877,1.659999966621399,-0.9652999639511108,9.616700172424316
1683010610188837000,21.580837158203124,1.648800015449524,-0.9312999844551086,9.621999740600586
1683010610208837000,21.600837158203124,1.6323999166488647,-0.9350000023841858,9.624499320983887
1683010610228837000,21.620837158203123,1.6141999959945679,-0.958299994468689,9.625199317932129
1683010610248837000,21.640837158203126,1.5959999561309814,-0.9886999726295471,9.625199317932129
1683010610268837000,21.660837158203126,1.5886999368667603,-1.027999997138977,9.622300148010254
1683010610288837000,21.680837158203126,1.5963000059127808,-1.0749999284744263,9.615900039672852
1683010610308837000,21.700837158203125,1.6175999641418457,-1.1101999282836914,9.60830020904541
1683010610328837000,21.720837158203125,1.650999903678894,-1.1069999933242798,9.602999687194824
1683010610348837000,21.740837158203124,1.7039999961853027,-1.0684000253677368,9.598099708557129
1683010610368837000,21.760837158203124,1.7511999607086182,-1.0015000104904175,9.596799850463867
1683010610388837000,21.780837158203123,1.794600009918213,-0.9315999746322632,9.59589958190918
1683010610408837000,21.800837158203127,1.8292999267578125,-0.8840000033378601,9.593799591064453
1683010610428837000,21.820837158203126,1.8315999507904053,-0.8650999665260315,9.595099449157715
1683010610448837000,21.840837158203126,1.794600009918213,-0.864799976348877,9.602099418640137
1683010610468837000,21.860837158203125,1.7460999488830566,-0.8561999797821045,9.611800193786621
1683010610488837000,21.880837158203125,1.7216999530792236,-0.8226999640464783,9.619099617004395
1683010610508840200,21.900840087890625,1.727199912071228,-0.7663999795913696,9.62279987335205
1683010610528838700,21.920838623046876,1.7551000118255615,-0.6983999609947205,9.622900009155273
1683010610548838700,21.940838623046876,1.7763999700546265,-0.6247000098228455,9.624099731445312
1683010610568838700,21.960838623046875,1.7807999849319458,-0.5450999736785889,9.62809944152832
1683010610588838700,21.980838623046875,1.7821999788284302,-0.46609997749328613,9.631999969482422
1683010610608838700,22.000838623046874,1.7914999723434448,-0.397599995136261,9.633399963378906
1683010610628838700,22.020838623046874,1.799299955368042,-0.3507999777793884,9.633699417114258
1683010610648838700,22.040838623046874,1.7983999252319336,-0.32429999113082886,9.63479995727539
1683010610668837000,22.060837158203125,1.788599967956543,-0.31349998712539673,9.63700008392334
1683010610688837000,22.080837158203124,1.775999903678894,-0.3131999969482422,9.639399528503418
1683010610708837000,22.100837158203124,1.765199899673462,-0.3208000063896179,9.64109992980957
1683010610728837000,22.120837158203123,1.7588999271392822,-0.33059999346733093,9.641900062561035
1683010610748837000,22.140837158203126,1.7599999904632568,-0.3344999849796295,9.641599655151367
1683010610768837000,22.160837158203126,1.768799901008606,-0.3321000039577484,9.639999389648438
1683010610788837000,22.180837158203126,1.7826999425888062,-0.33059999346733093,9.637499809265137
1683010610808837000,22.200837158203125,1.800399899482727,-0.33559998869895935,9.634099960327148
1683010610828837000,22.220837158203125,1.8209999799728394,-0.352400004863739,9.629599571228027
1683010610848837000,22.240837158203124,1.8375999927520752,-0.3798999786376953,9.625399589538574
1683010610868837000,22.260837158203124,1.8518999814987183,-0.41669997572898865,9.621099472045898
1683010610888837000,22.280837158203123,1.8668999671936035,-0.46140000224113464,9.616199493408203
1683010610908837000,22.300837158203127,1.8833999633789062,-0.5109999775886536,9.610499382019043
1683010610928837000,22.320837158203126,1.8966000080108643,-0.5619999766349792,9.604999542236328
1683010610948837000,22.340837158203126,1.9002999067306519,-0.6057999730110168,9.60159969329834
1683010610968837000,22.360837158203125,1.9030998945236206,-0.655299961566925,9.597799301147461
1683010610988837000,22.380837158203125,1.9134999513626099,-0.7114999890327454,9.591699600219727
1683010611008837000,22.400837158203124,1.9335999488830566,-0.7537999749183655,9.58449935913086
1683010611028837000,22.420837158203124,1.9652999639511108,-0.7777999639511108,9.576099395751953
1683010611048837000,22.440837158203124,2.002699851989746,-0.7915999889373779,9.56719970703125
1683010611068837000,22.460837158203127,2.030400037765503,-0.8015999794006348,9.560500144958496
1683010611088837000,22.480837158203126,2.0485000610351562,-0.824400007724762,9.554800033569336
1683010611108837000,22.500837158203126,2.0650999546051025,-0.863599956035614,9.547699928283691
1683010611128837000,22.520837158203125,2.089599847793579,-0.9103999733924866,9.538000106811523
1683010611148837000,22.540837158203125,2.1278998851776123,-0.9412999749183655,9.526599884033203
1683010611168837000,22.560837158203125,2.1761999130249023,-0.9369999766349792,9.51609992980957
1683010611188837000,22.580837158203124,2.2246999740600586,-0.9109999537467957,9.507399559020996
1683010611208837000,22.600837158203124,2.249300003051758,-0.8811999559402466,9.504399299621582
1683010611228837000,22.620837158203123,2.219099998474121,-0.8472999930381775,9.51449966430664
1683010611248837000,22.640837158203126,2.1420998573303223,-0.8208999633789062,9.534500122070312
1683010611268837000,22.660837158203126,2.05649995803833,-0.8154000043869019,9.553799629211426
1683010611288837000,22.680837158203126,1.997499942779541,-0.8233999609947205,9.56559944152832
1683010611308837000,22.700837158203125,1.9648000001907349,-0.8339999914169312,9.571499824523926
1683010611328837000,22.720837158203125,1.9290999174118042,-0.8461999893188477,9.577699661254883
1683010611348837000,22.740837158203124,1.8772000074386597,-0.8496999740600586,9.587699890136719
1683010611368837000,22.760837158203124,1.8177999258041382,-0.8377999663352966,9.600099563598633
1683010611388837000,22.780837158203123,1.7645999193191528,-0.8179000020027161,9.611800193786621
1683010611408837000,22.800837158203127,1.7214999198913574,-0.7943999767303467,9.621600151062012
1683010611428837000,22.820837158203126,1.6878999471664429,-0.7682999968528748,9.629599571228027
1683010611448837000,22.840837158203126,1.6567000150680542,-0.746399998664856,9.636799812316895
1683010611468837000,22.860837158203125,1.6280999183654785,-0.7324999570846558,9.6427001953125
1683010611488837000,22.880837158203125,1.6021000146865845,-0.7292999625205994,9.647299766540527
1683010611508837000,22.900837158203124,1.5860999822616577,-0.733299970626831,9.649700164794922
1683010611528837000,22.920837158203124,1.5789999961853027,-0.7434999942779541,9.649999618530273
1683010611548837000,22.940837158203124,1.5755999088287354,-0.7550999522209167,9.649700164794922
1683010611568837000,22.960837158203127,1.5738999843597412,-0.765500009059906,9.649099349975586
1683010611588837000,22.980837158203126,1.5715999603271484,-0.7760999798774719,9.648699760437012
1683010611608837000,23.000837158203126,1.5763999223709106,-0.7910999655723572,9.646699905395508
1683010611628837000,23.020837158203125,1.593400001525879,-0.8100000023841858,9.64229965209961
1683010611648837000,23.040837158203125,1.618299961090088,-0.8289999961853027,9.636499404907227
1683010611668837000,23.060837158203125,1.6495000123977661,-0.8323000073432922,9.630999565124512
1683010611688837000,23.080837158203124,1.6595999002456665,-0.8335999846458435,9.62909984588623
1683010611708837000,23.100837158203124,1.660599946975708,-0.8551999926567078,9.627099990844727
1683010611728837000,23.120837158203123,1.6644999980926514,-0.8775999546051025,9.62440013885498
1683010611748837000,23.140837158203126,1.673699975013733,-0.8901999592781067,9.621600151062012
1683010611768837000,23.160837158203126,1.6871999502182007,-0.8991000056266785,9.618399620056152
1683010611788837000,23.180837158203126,1.7032999992370605,-0.9145999550819397,9.614099502563477
1683010611808837000,23.200837158203125,1.7156000137329102,-0.9456999897956848,9.60890007019043
1683010611828837000,23.220837158203125,1.7220999002456665,-0.9746999740600586,9.604899406433105
1683010611848837000,23.240837158203124,1.7250999212265015,-0.9801999926567078,9.603799819946289
1683010611868840200,23.260840087890625,1.7347999811172485,-0.9664999842643738,9.603400230407715
1683010611888838700,23.280838623046876,1.7568999528884888,-0.9458999633789062,9.601399421691895
1683010611908838700,23.300838623046875,1.7845999002456665,-0.9296000003814697,9.597899436950684
1683010611928838700,23.320838623046875,1.8039000034332275,-0.9301999807357788,9.59429931640625
1683010611948838700,23.340838623046874,1.8046000003814697,-0.942799985408783,9.592899322509766
1683010611968838700,23.360838623046874,1.7863999605178833,-0.9598999619483948,9.594599723815918
1683010611988838700,23.380838623046873,1.771899938583374,-0.9623000025749207,9.597099304199219
1683010612008838700,23.400838623046877,1.774399995803833,-0.9462999701499939,9.598199844360352
1683010612028838700,23.420838623046876,1.7875999212265015,-0.9193999767303467,9.598299980163574
1683010612048838700,23.440838623046876,1.8014999628067017,-0.8798999786376953,9.599499702453613
1683010612068838700,23.460838623046875,1.813099980354309,-0.8337000012397766,9.601399421691895
1683010612088838700,23.480838623046875,1.827299952507019,-0.7883999943733215,9.602499961853027
1683010612108838700,23.500838623046874,1.841499924659729,-0.7512999773025513,9.602799415588379
1683010612128838700,23.520838623046874,1.8446999788284302,-0.7283999919891357,9.603899955749512
1683010612148838700,23.540838623046874,1.834399938583374,-0.7208999991416931,9.606499671936035
1683010612168838700,23.560838623046877,1.8177999258041382,-0.722000002861023,9.609600067138672
1683010612188838700,23.580838623046876,1.8021999597549438,-0.7252999544143677,9.612199783325195
1683010612208838700,23.600838623046876,1.7940999269485474,-0.7271999716758728,9.61359977722168
1683010612228838700,23.620838623046875,1.7914999723434448,-0.7274999618530273,9.614099502563477
1683010612248838700,23.640838623046875,1.7899999618530273,-0.7267000079154968,9.614399909973145
1683010612268838700,23.660838623046875,1.788100004196167,-0.7251999974250793,9.614899635314941
1683010612288838700,23.680838623046874,1.7901999950408936,-0.7229999899864197,9.61460018157959
1683010612308838700,23.700838623046874,1.793199896812439,-0.7199999690055847,9.614299774169922
1683010612328838700,23.720838623046873,1.7973999977111816,-0.7143999934196472,9.613999366760254
1683010612348838700,23.740838623046876,1.81059992313385,-0.7077999711036682,9.61199951171875
1683010612368838700,23.760838623046876,1.831299901008606,-0.7001999616622925,9.608599662780762
1683010612388838700,23.780838623046876,1.8443999290466309,-0.6900999546051025,9.606800079345703
1683010612408838700,23.800838623046875,1.8553999662399292,-0.6732999682426453,9.605899810791016
1683010612428838700,23.820838623046875,1.8661999702453613,-0.65829998254776,9.604899406433105
1683010612448838700,23.840838623046874,1.8697999715805054,-0.6502000093460083,9.604700088500977
1683010612468838700,23.860838623046874,1.8746999502182007,-0.6686999797821045,9.602499961853027
1683010612488838700,23.880838623046873,1.8914999961853027,-0.6880999803543091,9.597799301147461
1683010612508873200,23.900873291015625,1.9067999124526978,-0.6847000122070312,9.594999313354492
1683010612528838700,23.920838623046876,1.9392999410629272,-0.6638999581336975,9.59000015258789
1683010612548838700,23.940838623046876,1.972599983215332,-0.6478999853134155,9.58430004119873
1683010612568838700,23.960838623046875,1.9954999685287476,-0.6645999550819397,9.578399658203125
1683010612588838700,23.980838623046875,2.01419997215271,-0.7001000046730042,9.5718994140625
1683010612608838700,24.000838623046874,2.0334999561309814,-0.7200999855995178,9.566399574279785
1683010612628838700,24.020838623046874,2.0618999004364014,-0.713699996471405,9.560799598693848
1683010612648838700,24.040838623046874,2.097899913787842,-0.6919999718666077,9.554499626159668
1683010612668837000,24.060837158203125,2.1201000213623047,-0.6711999773979187,9.55109977722168
1683010612688837000,24.080837158203124,2.1168999671936035,-0.6560999751091003,9.552899360656738
1683010612708837000,24.100837158203124,2.090100049972534,-0.651199996471405,9.559100151062012
1683010612728837000,24.120837158203123,2.0569000244140625,-0.6523000001907349,9.56619930267334
1683010612748837000,24.140837158203126,2.031899929046631,-0.6502000093460083,9.571700096130371
1683010612768837000,24.160837158203126,2.0139999389648438,-0.642799973487854,9.576000213623047
1683010612788837000,24.180837158203126,1.99809992313385,-0.6337999701499939,9.579899787902832
1683010612808837000,24.200837158203125,1.9731999635696411,-0.6256999969482422,9.585599899291992
1683010612828837000,24.220837158203125,1.9368000030517578,-0.6202999949455261,9.593400001525879
1683010612848837000,24.240837158203124,1.892799973487854,-0.6190999746322632,9.60219955444336
1683010612868837000,24.260837158203124,1.8470999002456665,-0.6263999938964844,9.610699653625488
1683010612888837000,24.280837158203123,1.803299903869629,-0.6434000134468079,9.617899894714355
1683010612908837000,24.300837158203127,1.76010000705719,-0.6662999987602234,9.624300003051758
1683010612928837000,24.320837158203126,1.7131999731063843,-0.699400007724762,9.630399703979492
1683010612948837000,24.340837158203126,1.663599967956543,-0.7376999855041504,9.636300086975098
1683010612968837000,24.360837158203125,1.6175999641418457,-0.7827000021934509,9.64050006866455
1683010612988837000,24.380837158203125,1.5823999643325806,-0.8327999711036682,9.642199516296387
1683010613008837000,24.400837158203124,1.5587999820709229,-0.8809999823570251,9.64169979095459
1683010613028837000,24.420837158203124,1.5441999435424805,-0.9267999529838562,9.639800071716309
1683010613048837000,24.440837158203124,1.5360000133514404,-0.9679999947547913,9.637100219726562
1683010613068837000,24.460837158203127,1.532599925994873,-0.9993000030517578,9.6343994140625
1683010613088837000,24.480837158203126,1.5357999801635742,-1.025399923324585,9.631099700927734
1683010613108837000,24.500837158203126,1.5408999919891357,-1.0534999370574951,9.627299308776855
1683010613128837000,24.520837158203125,1.5515999794006348,-1.0830999612808228,9.622300148010254
1683010613148837000,24.540837158203125,1.567699909210205,-1.107699990272522,9.616899490356445
1683010613168837000,24.560837158203125,1.5606999397277832,-1.1442999839782715,9.613699913024902
1683010613188837000,24.580837158203124,1.5389999151229858,-1.20169997215271,9.610199928283691
1683010613208837000,24.600837158203124,1.524399995803833,-1.2635999917984009,9.604599952697754
1683010613228837000,24.620837158203123,1.5096999406814575,-1.3091999292373657,9.600799560546875
1683010613248837000,24.640837158203126,1.5026999711990356,-1.347599983215332,9.596599578857422
1683010613268837000,24.660837158203126,1.5016999244689941,-1.3811999559402466,9.592000007629395
1683010613288837000,24.680837158203126,1.4951000213623047,-1.4119999408721924,9.588500022888184
1683010613308837000,24.700837158203125,1.4855999946594238,-1.4187999963760376,9.58899974822998
1683010613328837000,24.720837158203125,1.4814000129699707,-1.3810999393463135,9.595199584960938
1683010613348837000,24.740837158203124,1.493499994277954,-1.3152999877929688,9.602499961853027
1683010613368837000,24.760837158203124,1.5187000036239624,-1.2354999780654907,9.609199523925781
1683010613388837000,24.780837158203123,1.5490999221801758,-1.167099952697754,9.612899780273438
1683010613408837000,24.800837158203127,1.5644999742507935,-1.1445999145507812,9.613100051879883
1683010613428837000,24.820837158203126,1.5490999221801758,-1.1649999618530273,9.613100051879883
1683010613448837000,24.840837158203126,1.5180999040603638,-1.195599913597107,9.614299774169922
1683010613468837000,24.860837158203125,1.5033999681472778,-1.2078999280929565,9.615099906921387
1683010613488837000,24.880837158203125,1.5132999420166016,-1.1848000288009644,9.616399765014648
1683010613508837000,24.900837158203124,1.5394999980926514,-1.1395999193191528,9.61769962310791
1683010613528837000,24.920837158203124,1.5707999467849731,-1.0892000198364258,9.618499755859375
1683010613548837000,24.940837158203124,1.5953999757766724,-1.0410000085830688,9.619799613952637
1683010613568837000,24.960837158203127,1.6109999418258667,-1.0087000131607056,9.620599746704102
1683010613588837000,24.980837158203126,1.6132999658584595,-0.9977999925613403,9.621399879455566
1683010613608837000,25.000837158203126,1.6079999208450317,-1.0023000240325928,9.62179946899414
1683010613628837000,25.020837158203125,1.6060999631881714,-1.01419997215271,9.62090015411377
1683010613648837000,25.040837158203125,1.6044999361038208,-1.0303000211715698,9.619400024414062
1683010613668837000,25.060837158203125,1.5963999032974243,-1.0506999492645264,9.618599891662598
1683010613688837000,25.080837158203124,1.5871999263763428,-1.0733000040054321,9.617599487304688
1683010613708837000,25.100837158203124,1.5830999612808228,-1.0953999757766724,9.615799903869629
1683010613728837000,25.120837158203123,1.5812000036239624,-1.114400029182434,9.613900184631348
1683010613748837000,25.140837158203126,1.580199956893921,-1.1305999755859375,9.612199783325195
1683010613768837000,25.160837158203126,1.584999918937683,-1.1442999839782715,9.6097993850708
1683010613788837000,25.180837158203126,1.594499945640564,-1.157599925994873,9.606599807739258
1683010613808837000,25.200837158203125,1.6104999780654907,-1.1685999631881714,9.60260009765625
1683010613828837000,25.220837158203125,1.6279000043869019,-1.1790999174118042,9.598400115966797
1683010613848837000,25.240837158203124,1.6466000080108643,-1.1952999830245972,9.593199729919434
1683010613868837000,25.260837158203124,1.667699933052063,-1.208899974822998,9.587800025939941
