time,seconds_elapsed,z,y,x
1682999486565056500,0.034056396484375,-0.2215999960899353,0.07119999825954437,0.3513999879360199
1682999486585056500,0.054056396484375,-0.2215999960899353,0.07119999825954437,0.3513999879360199
1682999486605062700,0.074062744140625,-0.2215999960899353,0.07119999825954437,0.3513999879360199
1682999486625058000,0.09405810546875,0.0004999999655410647,-0.0004999999655410647,0.003499999875202775
1682999486645058000,0.11405810546875,-0.02719999849796295,-0.17189998924732208,0.1314999908208847
1682999486665058000,0.13405810546875,-0.024799998849630356,-0.12919999659061432,0.2590999901294708
1682999486685058000,0.15405810546875,0.09910000115633011,-0.13369999825954437,0.24079999327659607
1682999486705058000,0.17405810546875,0.18799999356269836,-0.10989999771118164,0.27219998836517334
1682999486725056500,0.194056396484375,0.39969998598098755,-0.05889999866485596,0.1890999972820282
1682999486745056500,0.214056396484375,0.3247999846935272,0.0616999976336956,0.0786999985575676
1682999486765058000,0.23405810546875,0.08999999612569809,0.1151999980211258,0.02709999866783619
1682999486785056500,0.254056396484375,0.02979999966919422,0.14579999446868896,0.07750000059604645
1682999486805059600,0.2740595703125,-0.03759999945759773,0.17069999873638153,0.16949999332427979
1682999486825058000,0.29405810546875,-0.05339999869465828,0.08980000019073486,0.17319999635219574
1682999486845058000,0.31405810546875,0.010999999940395355,0.13339999318122864,0.029199998825788498
1682999486865058000,0.33405810546875,0.09359999746084213,0.14649999141693115,-0.15309999883174896
1682999486885056500,0.354056396484375,0.15199999511241913,0.06650000065565109,-0.027699999511241913
1682999486905058000,0.37405810546875,0.1939999908208847,0.13210000097751617,0.07970000058412552
1682999486925056500,0.394056396484375,0.3215999901294708,0.3456999957561493,0.21559999883174896
1682999486945058000,0.41405810546875,0.15600000321865082,0.3992999792098999,0.15379999577999115
1682999486965058000,0.43405810546875,0.2856000065803528,0.11149999499320984,0.2433999925851822
1682999486985058000,0.45405810546875,0.22829999029636383,0.018299998715519905,0.039400000125169754
1682999487005056500,0.474056396484375,0.40379998087882996,-0.027799999341368675,-0.2321999967098236
1682999487025056500,0.494056396484375,0.5342000126838684,0.06159999966621399,-0.39139997959136963
1682999487045058000,0.51405810546875,0.2296999990940094,0.22419999539852142,-0.42239999771118164
1682999487065056500,0.534056396484375,0.053700000047683716,0.37299999594688416,-0.3625999987125397
1682999487085058000,0.55405810546875,-0.03869999945163727,0.5615999698638916,-0.5692999958992004
1682999487105058000,0.57405810546875,-0.12370000034570694,0.6669999957084656,-0.5719000101089478
1682999487125058000,0.59405810546875,-0.10359999537467957,0.5400999784469604,-0.5202000141143799
1682999487145058000,0.61405810546875,-0.14919999241828918,0.17579999566078186,-0.4910999834537506
1682999487165058000,0.63405810546875,-0.07519999891519547,-0.1589999943971634,-0.2069999873638153
1682999487185058000,0.65405810546875,0.15160000324249268,-0.3714999854564667,0.3634999990463257
1682999487205058000,0.67405810546875,0.06759999692440033,-0.3342999815940857,0.561199963092804
1682999487225058000,0.69405810546875,0.27489998936653137,-0.3107999861240387,1.0162999629974365
1682999487245056500,0.714056396484375,0.3865000009536743,-0.22579999268054962,1.2285000085830688
1682999487265058000,0.73405810546875,0.21310000121593475,-0.015799999237060547,1.1043999195098877
1682999487285058000,0.75405810546875,0.4034999907016754,0.30859997868537903,1.0669000148773193
1682999487305058000,0.77405810546875,0.36730000376701355,0.6672999858856201,0.7164999842643738
1682999487325058000,0.79405810546875,0.21289999783039093,0.8989999890327454,-0.008299999870359898
1682999487345058000,0.81405810546875,0.13570000231266022,1.0709999799728394,-0.57669997215271
1682999487365058000,0.83405810546875,0.04989999905228615,1.1833999156951904,-0.8590999841690063
1682999487385058000,0.85405810546875,-0.027400000020861626,1.1740999221801758,-0.6590999960899353
1682999487405058000,0.87405810546875,-0.06839999556541443,1.0992000102996826,-0.44769999384880066
1682999487425056500,0.894056396484375,0.053199999034404755,1.0835999250411987,-0.09549999982118607
1682999487445058000,0.91405810546875,0.22599999606609344,0.9941999912261963,0.4957999885082245
1682999487465058000,0.93405810546875,0.11809999495744705,1.011699914932251,0.6373999714851379
1682999487485058000,0.95405810546875,0.3000999987125397,0.9944999814033508,0.5752999782562256
1682999487505058000,0.97405810546875,0.37950000166893005,0.8892999887466431,0.7871999740600586
1682999487525056500,0.994056396484375,0.4657999873161316,0.8819999694824219,0.9277999997138977
1682999487545058000,1.01405810546875,0.4576999843120575,1.0145999193191528,0.6462999582290649
1682999487565058000,1.03405810546875,0.36149999499320984,1.073099970817566,0.5702999830245972
1682999487585058000,1.05405810546875,0.49049997329711914,1.0513999462127686,0.7005000114440918
1682999487605058000,1.07405810546875,0.45260000228881836,0.8501999974250793,1.0368000268936157
1682999487625058000,1.09405810546875,0.22459998726844788,0.7146999835968018,1.400399923324585
1682999487645058000,1.11405810546875,0.13910000026226044,0.6693999767303467,1.7634999752044678
1682999487665058000,1.13405810546875,0.33739998936653137,0.39980000257492065,2.422499895095825
1682999487685058000,1.15405810546875,0.19609999656677246,-0.20399999618530273,2.973099946975708
1682999487705058000,1.17405810546875,0.04739999771118164,-0.3224000036716461,2.523099899291992
1682999487725058000,1.19405810546875,-0.22439999878406525,-0.3587999939918518,1.083799958229065
1682999487745056500,1.214056396484375,-0.34709998965263367,-0.2110999971628189,-0.14919999241828918
1682999487765058000,1.23405810546875,-0.18439999222755432,-0.1590999960899353,-0.2775999903678894
1682999487785059600,1.2540595703125,-0.24249999225139618,0.06849999725818634,-0.2449999898672104
1682999487805059600,1.2740595703125,-0.3018999993801117,-0.14169999957084656,-0.16300000250339508
1682999487825059600,1.2940595703125,-0.4348999857902527,-0.4715999960899353,-0.09950000047683716
1682999487845059600,1.3140595703125,-0.5335000157356262,-0.788599967956543,0.0015999999595806003
1682999487865058000,1.33405810546875,-0.26989999413490295,-1.0026999711990356,0.006899999920278788
1682999487885058000,1.35405810546875,-0.1599999964237213,-1.1227999925613403,-0.004799999762326479
1682999487905058000,1.37405810546875,-0.13519999384880066,-1.132599949836731,-0.16269999742507935
1682999487925056500,1.394056396484375,-0.23489999771118164,-1.0886999368667603,-0.5648999810218811
1682999487945058000,1.41405810546875,-0.5444999933242798,-0.9983999729156494,-1.0348999500274658
1682999487965058000,1.43405810546875,-0.8032000064849854,-0.8723999857902527,-1.45579993724823
1682999487985058000,1.45405810546875,-1.0777000188827515,-0.9602999687194824,-1.7706999778747559
1682999488005058000,1.47405810546875,-1.0958999395370483,-0.9993000030517578,-1.6165999174118042
1682999488025059600,1.4940595703125,-0.9799000024795532,-0.8902999758720398,-1.434399962425232
1682999488045058000,1.51405810546875,-0.7056999802589417,-0.7497999668121338,-1.2710999250411987
1682999488065058000,1.53405810546875,-0.5503000020980835,-0.6277999877929688,-1.2651000022888184
1682999488085058000,1.55405810546875,-0.3959999978542328,-0.5083000063896179,-1.327799916267395
1682999488105058000,1.57405810546875,-0.18649999797344208,-0.39469999074935913,-1.3018999099731445
1682999488125058000,1.59405810546875,0.025299999862909317,-0.11189999431371689,-1.4615999460220337
1682999488145058000,1.61405810546875,0.0018999999156221747,0.15199999511241913,-1.5023999214172363
1682999488165058000,1.63405810546875,-0.05209999904036522,0.459199994802475,-1.3567999601364136
1682999488185058000,1.65405810546875,-0.08169999718666077,0.7877999544143677,-0.6919999718666077
1682999488205058000,1.67405810546875,-0.18930000066757202,0.9404999613761902,0.4715999960899353
1682999488225056500,1.694056396484375,-0.26589998602867126,0.7689999938011169,1.1354999542236328
1682999488245056500,1.714056396484375,-0.296999990940094,0.9656999707221985,1.4778000116348267
1682999488265058000,1.73405810546875,-0.27379998564720154,1.1739000082015991,2.007999897003174
1682999488285058000,1.75405810546875,-0.5116999745368958,1.1881999969482422,2.615000009536743
1682999488305058000,1.77405810546875,-0.6926999688148499,0.9827999472618103,2.916299819946289
1682999488325058000,1.79405810546875,-0.7827000021934509,0.3880999982357025,3.1611998081207275
1682999488345058000,1.81405810546875,-0.620199978351593,-0.17889998853206635,2.8509998321533203
1682999488365058000,1.83405810546875,-0.07840000092983246,-0.3928000032901764,2.1433000564575195
1682999488385056500,1.854056396484375,0.4819999933242798,-0.46769997477531433,1.8884999752044678
1682999488405058000,1.87405810546875,0.517799973487854,-0.4705999791622162,1.659500002861023
1682999488425056500,1.894056396484375,0.43209999799728394,-0.46889999508857727,0.8488999605178833
1682999488445058000,1.91405810546875,0.21539999544620514,-0.6280999779701233,-0.020099999383091927
1682999488465058000,1.93405810546875,0.07569999992847443,-1.1241999864578247,0.35179999470710754
1682999488485058000,1.95405810546875,0.01489999983459711,-1.6845999956130981,1.4218999147415161
1682999488505058000,1.97405810546875,-0.06889999657869339,-1.9125999212265015,1.792099952697754
1682999488525056500,1.994056396484375,-0.030799999833106995,-1.6431999206542969,0.8321999907493591
1682999488545058000,2.01405810546875,0.08150000125169754,-1.3913999795913696,-0.5925999879837036
1682999488565058000,2.03405810546875,0.21199999749660492,-1.2192000150680542,-1.3969999551773071
1682999488585058000,2.05405810546875,0.40230000019073486,-1.208899974822998,-1.476099967956543
1682999488605058000,2.07405810546875,0.39399999380111694,-1.222999930381775,-1.51829993724823
1682999488625058000,2.09405810546875,0.1946999877691269,-1.3291999101638794,-1.7285000085830688
1682999488645058000,2.11405810546875,0.03500000014901161,-1.2761999368667603,-2.1050000190734863
1682999488665058000,2.13405810546875,0.06379999965429306,-1.059999942779541,-2.3041000366210938
1682999488685058000,2.15405810546875,0.37109997868537903,-0.7134999632835388,-1.698699951171875
1682999488705058000,2.17405810546875,0.5929999947547913,-0.590399980545044,-0.712399959564209
1682999488725058000,2.19405810546875,0.8763999938964844,-0.468099981546402,0.03779999911785126
1682999488745056500,2.214056396484375,1.0784000158309937,-0.22419999539852142,0.0738999992609024
1682999488765058000,2.23405810546875,1.1611000299453735,0.02319999970495701,-0.28919997811317444
1682999488785058000,2.25405810546875,1.1273999214172363,0.06539999693632126,-0.6304000020027161
1682999488805056500,2.274056396484375,1.153499960899353,0.14639998972415924,-0.9894999861717224
1682999488825058000,2.29405810546875,1.1358000040054321,0.3270999789237976,-1.180299997329712
1682999488845058000,2.31405810546875,0.8962999582290649,0.3308999836444855,-0.8807999491691589
1682999488865058000,2.33405810546875,0.6931999921798706,0.353300005197525,-0.13169999420642853
1682999488885058000,2.35405810546875,0.46889999508857727,0.16249999403953552,0.9673999547958374
1682999488905058000,2.37405810546875,0.3520999848842621,-0.18789999186992645,2.4656999111175537
1682999488925056500,2.394056396484375,0.10329999774694443,-0.5680999755859375,1.8736000061035156
1682999488945058000,2.41405810546875,0.1525000035762787,-0.23029999434947968,1.2067999839782715
1682999488965058000,2.43405810546875,0.6455999612808228,-0.5342000126838684,1.8186999559402466
1682999488985058000,2.45405810546875,0.5012999773025513,-0.4912000000476837,2.9951000213623047
1682999489005058000,2.47405810546875,0.35029998421669006,-0.39719998836517334,3.746500015258789
1682999489025056500,2.494056396484375,-0.22219999134540558,-0.5051000118255615,3.538100004196167
1682999489045058000,2.51405810546875,-0.5331999659538269,-0.48829999566078186,1.6842999458312988
1682999489065058000,2.53405810546875,-0.16749998927116394,-0.4495999813079834,-0.44669997692108154
1682999489085058000,2.55405810546875,0.2798999845981598,-0.6398000121116638,-1.3751999139785767
1682999489105058000,2.57405810546875,0.5230000019073486,-1.1075999736785889,-0.8632999658584595
1682999489125058000,2.59405810546875,0.3276999890804291,-1.6050999164581299,0.33719998598098755
1682999489145058000,2.61405810546875,-0.3262999951839447,-1.9422999620437622,0.6875999569892883
1682999489165056500,2.634056396484375,-0.8289999961853027,-1.8643999099731445,0.47759997844696045
1682999489185058000,2.65405810546875,-1.1450999975204468,-1.4240999221801758,-0.38029998540878296
1682999489205058000,2.67405810546875,-1.0540999174118042,-1.011299967765808,-1.2668999433517456
1682999489225056500,2.694056396484375,-0.6726999878883362,-0.7793999910354614,-1.7490999698638916
1682999489245056500,2.714056396484375,-0.31200000643730164,-0.7012999653816223,-1.8678998947143555
1682999489265058000,2.73405810546875,-0.044499997049570084,-0.7290999889373779,-1.7228999137878418
1682999489285058000,2.75405810546875,-0.007999999448657036,-0.6791999936103821,-1.5987999439239502
1682999489305058000,2.77405810546875,0.07360000163316727,-0.5952999591827393,-1.4261000156402588
1682999489325058000,2.79405810546875,0.2303999960422516,-0.6258999705314636,-1.1068999767303467
1682999489345058000,2.81405810546875,0.3734000027179718,-0.5029999613761902,-0.7292999625205994
1682999489365058000,2.83405810546875,0.526699960231781,-0.486299991607666,-0.7617999911308289
1682999489385058000,2.85405810546875,0.3888999819755554,-0.21459999680519104,-1.1065000295639038
1682999489405058000,2.87405810546875,0.25189998745918274,0.3571999967098236,-1.1855000257492065
1682999489425056500,2.894056396484375,-0.020499998703598976,0.8041999936103821,-0.7838000059127808
1682999489445058000,2.91405810546875,-0.40639999508857727,0.9727999567985535,-0.2839999794960022
1682999489465058000,2.93405810546875,-0.820099949836731,1.1146999597549438,-0.1753999888896942
1682999489485058000,2.95405810546875,-1.1302000284194946,1.097599983215332,-0.23249998688697815
1682999489505058000,2.97405810546875,-1.1663999557495117,0.9302999973297119,-0.042799998074769974
1682999489525056500,2.994056396484375,-0.7706999778747559,0.6067999601364136,0.8440999984741211
1682999489545058000,3.01405810546875,-0.1200999990105629,0.5884000062942505,1.771799921989441
1682999489565058000,3.03405810546875,0.07249999791383743,0.5432000160217285,2.787899971008301
1682999489585058000,3.05405810546875,-0.0802999958395958,-0.05429999902844429,3.2440998554229736
1682999489605058000,3.07405810546875,-0.1979999989271164,-0.8086000084877014,3.1033999919891357
1682999489625058000,3.09405810546875,0.18369999527931213,-1.0929999351501465,2.9532999992370605
1682999489645058000,3.11405810546875,0.866599977016449,-1.0152000188827515,3.1489999294281006
1682999489665058000,3.13405810546875,1.1685999631881714,-0.6643999814987183,2.953199863433838
1682999489685058000,3.15405810546875,0.7818999886512756,-0.2433999925851822,1.6096999645233154
1682999489705056500,3.174056396484375,0.3849000036716461,-0.27799999713897705,0.25920000672340393
1682999489725058000,3.19405810546875,-0.11809999495744705,-0.9562999606132507,0.24899999797344208
1682999489745056500,3.214056396484375,-0.3537999987602234,-1.8608999252319336,1.0236999988555908
1682999489765058000,3.23405810546875,-0.5155999660491943,-2.424999952316284,1.0133999586105347
1682999489785058000,3.25405810546875,-0.4017999768257141,-2.2567999362945557,-0.19669999182224274
1682999489805058000,3.27405810546875,-0.3545999825000763,-1.8565999269485474,-1.5016999244689941
1682999489825058000,3.29405810546875,-0.16609999537467957,-1.5654999017715454,-1.8987998962402344
1682999489845058000,3.31405810546875,-0.07519999891519547,-1.3681999444961548,-1.6543999910354614
1682999489865058000,3.33405810546875,-0.23109999299049377,-1.138700008392334,-1.5130999088287354
1682999489885058000,3.35405810546875,-0.5511999726295471,-0.9066999554634094,-1.5108000040054321
1682999489905058000,3.37405810546875,-0.8720999956130981,-0.8227999806404114,-1.5472999811172485
1682999489925056500,3.394056396484375,-0.9752999544143677,-0.6255999803543091,-1.5332999229431152
1682999489945058000,3.41405810546875,-0.9156999588012695,-0.562999963760376,-1.1850999593734741
1682999489965058000,3.43405810546875,-0.8423999547958374,-0.6924999952316284,-0.5823999643325806
1682999489985058000,3.45405810546875,-0.6466000080108643,-0.8648999929428101,-0.2254999876022339
1682999490005058000,3.47405810546875,-0.32420000433921814,-0.8384000062942505,-0.19039998948574066
1682999490025056500,3.494056396484375,-0.0072999997064471245,-0.6682999730110168,-0.28049999475479126
1682999490045058000,3.51405810546875,0.17839999496936798,-0.5026999711990356,-0.5059999823570251
1682999490065058000,3.53405810546875,0.13449999690055847,-0.5888999700546265,-0.8484999537467957
1682999490085058000,3.55405810546875,0.22360000014305115,-0.3619999885559082,-0.9662999510765076
1682999490105058000,3.57405810546875,0.4185999929904938,-0.16169999539852142,-0.6157999634742737
1682999490125058000,3.59405810546875,0.6761999726295471,0.011599999852478504,0.11539999395608902
1682999490145058000,3.61405810546875,0.8235999941825867,0.1662999987602234,0.8364999890327454
1682999490165056500,3.634056396484375,0.946899950504303,0.27300000190734863,1.400399923324585
1682999490185058000,3.65405810546875,1.0223000049591064,0.4649999737739563,1.642300009727478
1682999490205058000,3.67405810546875,1.030900001525879,0.5837999582290649,1.8572999238967896
1682999490225056500,3.694056396484375,0.965999960899353,0.5406000018119812,2.7777998447418213
1682999490245056500,3.714056396484375,1.007200002670288,0.5426999926567078,3.615999937057495
1682999490265058000,3.73405810546875,1.0078999996185303,0.8579999804496765,3.8838999271392822
1682999490285058000,3.75405810546875,0.90829998254776,1.3258999586105347,2.731299877166748
1682999490305058000,3.77405810546875,0.7936999797821045,1.5155999660491943,0.2304999977350235
1682999490325058000,3.79405810546875,0.6588000059127808,1.3073999881744385,-1.9224998950958252
1682999490345058000,3.81405810546875,0.8294000029563904,0.5266000032424927,-1.9361999034881592
1682999490365058000,3.83405810546875,0.6843999624252319,-0.6574999690055847,-0.44200000166893005
1682999490385058000,3.85405810546875,0.30649998784065247,-1.4615999460220337,1.2044999599456787
1682999490405058000,3.87405810546875,-0.18449999392032623,-1.7186999320983887,1.9073998928070068
1682999490425056500,3.894056396484375,-0.3889999985694885,-1.5,1.5221999883651733
1682999490445058000,3.91405810546875,-0.46769997477531433,-1.1449999809265137,0.2962000072002411
1682999490465058000,3.93405810546875,-0.6019999980926514,-1.0956000089645386,-0.8865999579429626
1682999490485058000,3.95405810546875,-0.8520999550819397,-1.2805999517440796,-1.615299940109253
1682999490505058000,3.97405810546875,-0.9917999505996704,-1.2538999319076538,-2.020900011062622
1682999490525056500,3.994056396484375,-1.1047999858856201,-1.1786999702453613,-2.1059999465942383
1682999490545058000,4.01405810546875,-1.2591999769210815,-1.0678999423980713,-1.9199999570846558
1682999490565056500,4.034056396484375,-1.1899999380111694,-0.8255999684333801,-1.8539999723434448
1682999490585058000,4.05405810546875,-0.9092999696731567,-0.6482999920845032,-1.573099970817566
1682999490605056500,4.074056396484375,-0.5845000147819519,-0.5515999794006348,-1.0770000219345093
1682999490625058000,4.09405810546875,-0.2838999927043915,-0.4156000018119812,-0.9024999737739563
1682999490645058000,4.11405810546875,-0.17509999871253967,-0.2709999978542328,-1.0103999376296997
1682999490665058000,4.13405810546875,-0.18789999186992645,-0.03399999812245369,-1.1765999794006348
1682999490685058000,4.15405810546875,-0.19059999287128448,0.15150000154972076,-1.254599928855896
1682999490705058000,4.17405810546875,-0.009599999524652958,0.39969998598098755,-1.097999930381775
1682999490725056500,4.194056396484375,0.22360000014305115,0.6204000115394592,-0.6976999640464783
1682999490745056500,4.214056396484375,0.41019999980926514,0.7881999611854553,0.06419999897480011
1682999490765058000,4.23405810546875,0.3130999803543091,0.8149999976158142,0.9740999937057495
1682999490785058000,4.25405810546875,0.3303999900817871,0.8682999610900879,2.003999948501587
1682999490805058000,4.27405810546875,0.3901999890804291,0.8220999836921692,2.9965999126434326
1682999490825058000,4.29405810546875,0.17309999465942383,0.704800009727478,3.6747000217437744
1682999490845058000,4.31405810546875,-0.03240000084042549,0.35499998927116394,3.84060001373291
1682999490865058000,4.33405810546875,-0.3111000061035156,-0.11329999566078186,3.4575998783111572
1682999490885058000,4.35405810546875,-0.3772999942302704,-0.18490000069141388,2.498999834060669
1682999490905058000,4.37405810546875,-0.12449999898672104,-0.022199999541044235,1.7136999368667603
1682999490925058000,4.39405810546875,-0.12950000166893005,0.06439999490976334,1.0576000213623047
1682999490945058000,4.41405810546875,-0.16290000081062317,0.09549999982118607,0.1444000005722046
1682999490965058000,4.43405810546875,0.03879999741911888,-0.003599999938160181,-0.6019999980926514
1682999490985058000,4.45405810546875,0.11319999396800995,-0.5613999962806702,-0.02579999901354313
1682999491005058000,4.47405810546875,-0.01939999870955944,-1.3215999603271484,1.3669999837875366
1682999491025056500,4.494056396484375,-0.11479999870061874,-1.8269000053405762,2.2052998542785645
1682999491045058000,4.51405810546875,-0.24279999732971191,-1.9234999418258667,1.7400999069213867
1682999491065056500,4.534056396484375,-0.24849998950958252,-1.8758999109268188,0.3017999827861786
1682999491085058000,4.55405810546875,-0.20960000157356262,-1.8697999715805054,-0.914199948310852
1682999491105056500,4.574056396484375,-0.10749999433755875,-1.8665999174118042,-1.5500999689102173
1682999491125058000,4.59405810546875,-0.0794999971985817,-1.8792999982833862,-1.7766999006271362
1682999491145058000,4.61405810546875,0.020499998703598976,-1.5399999618530273,-1.8609999418258667
1682999491165058000,4.63405810546875,-0.020099999383091927,-1.1841999292373657,-1.871999979019165
1682999491185058000,4.65405810546875,-0.22139999270439148,-1.0185999870300293,-1.7680999040603638
1682999491205058000,4.67405810546875,-0.397599995136261,-0.9727999567985535,-1.7810999155044556
1682999491225056500,4.694056396484375,-0.39159998297691345,-0.9251999855041504,-1.5384999513626099
1682999491245056500,4.714056396484375,-0.11059999465942383,-0.8116999864578247,-1.0236999988555908
1682999491265058000,4.73405810546875,0.1387999951839447,-0.6636999845504761,-0.4339999854564667
1682999491285058000,4.75405810546875,0.30300000309944153,-0.3653999865055084,-0.1404999941587448
1682999491305058000,4.77405810546875,0.4092999994754791,-0.20179998874664307,-0.39259999990463257
1682999491325058000,4.79405810546875,0.430899977684021,-0.026799999177455902,-0.942799985408783
1682999491345058000,4.81405810546875,0.46369999647140503,0.1363999992609024,-1.2250999212265015
1682999491365058000,4.83405810546875,0.4763000011444092,0.11009999364614487,-0.78329998254776
1682999491385058000,4.85405810546875,0.49879997968673706,0.008499999530613422,0.2815999984741211
1682999491405058000,4.87405810546875,0.6327999830245972,-0.06589999794960022,1.4498000144958496
1682999491425056500,4.894056396484375,0.6765999794006348,-0.07829999923706055,2.3808000087738037
1682999491445058000,4.91405810546875,0.5961999893188477,-0.14010000228881836,2.685699939727783
1682999491465058000,4.93405810546875,0.7520999908447266,-0.018799999728798866,2.3290998935699463
1682999491485058000,4.95405810546875,0.8691999912261963,-0.16009999811649323,2.5253000259399414
1682999491505056500,4.974056396484375,0.7263000011444092,-0.27649998664855957,2.8559999465942383
1682999491525056500,4.994056396484375,0.6596999764442444,-0.36309999227523804,2.901700019836426
1682999491545058000,5.01405810546875,0.3791999816894531,-0.18060000240802765,2.3306000232696533
1682999491565058000,5.03405810546875,0.12060000002384186,0.25119999051094055,1.0052000284194946
1682999491585058000,5.05405810546875,0.006799999624490738,0.7547999620437622,-0.6389999985694885
1682999491605056500,5.074056396484375,-0.10569999366998672,0.7556999921798706,-1.601199984550476
1682999491625058000,5.09405810546875,-0.14749999344348907,0.2809000015258789,-1.0827000141143799
1682999491645058000,5.11405810546875,-0.22609999775886536,-0.32420000433921814,0.30079999566078186
1682999491665058000,5.13405810546875,-0.28380000591278076,-0.857699990272522,1.2674000263214111
1682999491685058000,5.15405810546875,-0.3806999921798706,-1.076799988746643,0.9004999995231628
1682999491705058000,5.17405810546875,-0.271699994802475,-0.871399998664856,-0.3928999900817871
1682999491725058000,5.19405810546875,-0.07419999688863754,-0.5712999701499939,-1.3291000127792358
1682999491745056500,5.214056396484375,0.15479999780654907,-0.3483999967575073,-1.5482999086380005
1682999491765058000,5.23405810546875,0.048499997705221176,-0.18599998950958252,-1.3776999711990356
1682999491785058000,5.25405810546875,-0.2541999816894531,-0.17149999737739563,-1.3960999250411987
1682999491805058000,5.27405810546875,-0.635699987411499,-0.22709999978542328,-1.7095999717712402
1682999491825058000,5.29405810546875,-0.7523999810218811,-0.27300000190734863,-1.9542999267578125
1682999491845058000,5.31405810546875,-0.5392000079154968,-0.4311999976634979,-1.7378000020980835
1682999491865058000,5.33405810546875,-0.2142999917268753,-0.4756999909877777,-1.326200008392334
1682999491885058000,5.35405810546875,0.13599999248981476,-0.36969998478889465,-0.7981999516487122
1682999491905058000,5.37405810546875,0.29670000076293945,-0.22769999504089355,-0.3789999783039093
1682999491925056500,5.394056396484375,0.33969998359680176,0.14639998972415924,-0.30300000309944153
1682999491945058000,5.41405810546875,0.18400000035762787,0.5503000020980835,-0.40149998664855957
1682999491965058000,5.43405810546875,-0.27629998326301575,0.7121999859809875,-0.5866000056266785
1682999491985058000,5.45405810546875,-0.7229999899864197,0.7920999526977539,-0.7608999609947205
1682999492005058000,5.47405810546875,-0.9354999661445618,0.8407999873161316,-0.6604999899864197
1682999492025056500,5.494056396484375,-0.9139999747276306,0.8012999892234802,-0.11979999393224716
1682999492045058000,5.51405810546875,-0.6280999779701233,0.8190999627113342,0.733299970626831
1682999492065058000,5.53405810546875,-0.4447000026702881,0.960599958896637,1.6643999814987183
1682999492085058000,5.55405810546875,-0.46449998021125793,1.0484999418258667,2.300999879837036
1682999492105056500,5.574056396484375,-0.5343999862670898,0.8601999878883362,2.526900053024292
1682999492125058000,5.59405810546875,-0.28689998388290405,0.49079999327659607,3.068199872970581
1682999492145058000,5.61405810546875,0.15609999001026154,0.029999999329447746,3.4036998748779297
1682999492165058000,5.63405810546875,0.7373999953269958,-0.21050000190734863,3.2128000259399414
1682999492185058000,5.65405810546875,0.8992999792098999,-0.02759999968111515,2.171599864959717
1682999492205058000,5.67405810546875,0.5982999801635742,0.13279999792575836,0.5914999842643738
1682999492225058000,5.69405810546875,0.19609999656677246,0.06209999695420265,-0.536799967288971
1682999492245056500,5.714056396484375,0.3443000018596649,-0.6484000086784363,-0.020899999886751175
1682999492265058000,5.73405810546875,0.16979999840259552,-1.1532000303268433,1.4364999532699585
1682999492285058000,5.75405810546875,0.14059999585151672,-1.6850999593734741,2.6805999279022217
1682999492305058000,5.77405810546875,-0.24479998648166656,-1.8956999778747559,2.0638999938964844
1682999492325058000,5.79405810546875,-0.4195999801158905,-1.6095999479293823,0.16279999911785126
1682999492345058000,5.81405810546875,-0.5665000081062317,-1.5367000102996826,-1.2324999570846558
1682999492365058000,5.83405810546875,-0.3709000051021576,-1.746999979019165,-1.5992000102996826
1682999492385058000,5.85405810546875,-0.3467999994754791,-1.8817999362945557,-1.4702999591827393
1682999492405058000,5.87405810546875,-0.46469998359680176,-1.8553999662399292,-1.6186000108718872
1682999492425056500,5.894056396484375,-0.44599997997283936,-1.5684999227523804,-2.178499937057495
1682999492445058000,5.91405810546875,-0.17999999225139618,-1.2516000270843506,-2.484099864959717
1682999492465058000,5.93405810546875,0.11069999635219574,-1.0770000219345093,-2.0767998695373535
1682999492485058000,5.95405810546875,0.2847999930381775,-0.9580999612808228,-1.3969999551773071
1682999492505058000,5.97405810546875,0.26729997992515564,-0.8486999869346619,-0.5033000111579895
1682999492525056500,5.994056396484375,-0.021699998527765274,-0.7421000003814697,0.09470000118017197
1682999492545058000,6.01405810546875,-0.34790000319480896,-0.6444999575614929,0.08669999986886978
1682999492565058000,6.03405810546875,-0.3959999978542328,-0.3497999906539917,-0.6417999863624573
1682999492585058000,6.05405810546875,-0.10799999535083771,-0.016499999910593033,-1.257599949836731
1682999492605058000,6.07405810546875,0.24629999697208405,0.031300000846385956,-1.0282000303268433
1682999492625058000,6.09405810546875,0.3261999785900116,0.07809999585151672,-0.25189998745918274
1682999492645058000,6.11405810546875,0.36239999532699585,0.1671999990940094,0.5899999737739563
1682999492665056500,6.134056396484375,0.3360999822616577,0.3008999824523926,1.3603999614715576
1682999492685058000,6.15405810546875,0.3164999783039093,0.4745999872684479,2.0423998832702637
1682999492705058000,6.17405810546875,0.3263999819755554,0.7095999717712402,2.3341000080108643
1682999492725056500,6.194056396484375,0.2578999996185303,0.663599967956543,2.560999870300293
1682999492745056500,6.214056396484375,0.15479999780654907,0.3926999866962433,3.014699935913086
1682999492765058000,6.23405810546875,-0.10619999468326569,0.0892999991774559,2.9948999881744385
1682999492785058000,6.25405810546875,-0.1297999918460846,-0.07849999517202377,2.248699903488159
1682999492805058000,6.27405810546875,-0.03790000081062317,-0.06619999557733536,1.3853999376296997
1682999492825058000,6.29405810546875,0.10359999537467957,-0.0052999998442828655,0.384799987077713
1682999492845058000,6.31405810546875,0.31949999928474426,0.2724999785423279,-0.8598999977111816
1682999492865056500,6.334056396484375,0.5371999740600586,0.5435000061988831,-1.9655998945236206
1682999492885058000,6.35405810546875,0.6574999690055847,0.29499998688697815,-1.5425999164581299
1682999492905058000,6.37405810546875,0.34139999747276306,-0.3292999863624573,-0.07569999992847443
1682999492925058000,6.39405810546875,0.09119999408721924,-0.8210999965667725,1.0663999319076538
1682999492945058000,6.41405810546875,-0.1832999885082245,-0.8294000029563904,1.1105999946594238
1682999492965058000,6.43405810546875,-0.18729999661445618,-0.47540000081062317,0.3425999879837036
1682999492985058000,6.45405810546875,-0.13930000364780426,-0.2856999933719635,-0.4032000005245209
1682999493005058000,6.47405810546875,-0.010999999940395355,-0.22280000150203705,-0.734499990940094
1682999493025056500,6.494056396484375,-0.13619999587535858,-0.21539999544620514,-0.8107999563217163
1682999493045058000,6.51405810546875,-0.3676999807357788,-0.22619999945163727,-0.9866999983787537
1682999493065058000,6.53405810546875,-0.6495000123977661,-0.38119998574256897,-1.163699984550476
1682999493085058000,6.55405810546875,-0.7439999580383301,-0.34109997749328613,-1.3712999820709229
1682999493105058000,6.57405810546875,-0.627299964427948,-0.14309999346733093,-1.37309992313385
1682999493125058000,6.59405810546875,-0.39249998331069946,-0.09099999815225601,-1.1094999313354492
1682999493145058000,6.61405810546875,-0.2858999967575073,0.04189999774098396,-0.894599974155426
1682999493165058000,6.63405810546875,-0.1687999963760376,0.16699999570846558,-0.943399965763092
1682999493185058000,6.65405810546875,-0.16589999198913574,0.284199982881546,-0.9226999878883362
1682999493205058000,6.67405810546875,-0.3304999768733978,0.45229998230934143,-1.0685999393463135
1682999493225058000,6.69405810546875,-0.5489000082015991,0.5799999833106995,-1.184499979019165
1682999493245059600,6.7140595703125,-0.7961999773979187,0.6764999628067017,-1.0651999711990356
1682999493265059600,6.7340595703125,-0.8021000027656555,0.8154000043869019,-0.6031999588012695
1682999493285058000,6.75405810546875,-0.6541999578475952,0.7561999559402466,0.10329999774694443
1682999493305056500,6.774056396484375,-0.38439998030662537,0.7894999980926514,0.8782999515533447
1682999493325058000,6.79405810546875,-0.047199998050928116,0.8242999911308289,1.7220999002456665
1682999493345058000,6.81405810546875,0.12109999358654022,0.7670999765396118,2.5857999324798584
1682999493365056500,6.834056396484375,0.13459999859333038,0.649399995803833,2.8810999393463135
1682999493385058000,6.85405810546875,0.2247999906539917,0.34880000352859497,2.629999876022339
1682999493405058000,6.87405810546875,0.18789999186992645,-0.020399998873472214,2.70389986038208
1682999493425056500,6.894056396484375,0.21069999039173126,-0.3179999887943268,2.9440999031066895
1682999493445058000,6.91405810546875,0.3634999990463257,-0.47029998898506165,2.8432998657226562
1682999493465058000,6.93405810546875,0.3467999994754791,-0.12439999729394913,2.1045000553131104
1682999493485058000,6.95405810546875,0.28610000014305115,0.09119999408721924,0.5609999895095825
1682999493505058000,6.97405810546875,0.19429999589920044,-0.14739999175071716,-0.6182999610900879
1682999493525056500,6.994056396484375,0.23309999704360962,-0.561199963092804,-0.2994999885559082
1682999493545058000,7.01405810546875,0.306799978017807,-1.0425000190734863,1.2862999439239502
1682999493565058000,7.03405810546875,0.08419999480247498,-1.1238999366760254,2.463899850845337
1682999493585058000,7.05405810546875,-0.16609999537467957,-1.0931999683380127,1.9463999271392822
1682999493605056500,7.074056396484375,-0.5083999633789062,-0.917199969291687,0.2669000029563904
1682999493625058000,7.09405810546875,-0.6984999775886536,-0.9771999716758728,-1.1265000104904175
1682999493645058000,7.11405810546875,-0.27300000190734863,-1.1151999235153198,-1.6936999559402466
1682999493665058000,7.13405810546875,0.04800000041723251,-1.1633999347686768,-1.6430000066757202
1682999493685058000,7.15405810546875,0.13179999589920044,-1.1065999269485474,-1.6339999437332153
1682999493705058000,7.17405810546875,-0.03689999878406525,-1.0392999649047852,-1.8326998949050903
1682999493725058000,7.19405810546875,-0.32690000534057617,-0.9645999670028687,-2.1008999347686768
1682999493745056500,7.214056396484375,-0.5166999697685242,-1.0155999660491943,-2.104599952697754
1682999493765058000,7.23405810546875,-0.44929999113082886,-0.9444999694824219,-1.8043999671936035
1682999493785058000,7.25405810546875,-0.10359999537467957,-0.8341000080108643,-1.279099941253662
1682999493805058000,7.27405810546875,0.2003999948501587,-0.6279000043869019,-0.676099956035614
1682999493825058000,7.29405810546875,0.17229999601840973,-0.5715000033378601,-0.1525999903678894
1682999493845058000,7.31405810546875,0.18699999153614044,-0.21239998936653137,-0.1662999987602234
1682999493865058000,7.33405810546875,0.322299987077713,-0.22219999134540558,-0.7174999713897705
1682999493885058000,7.35405810546875,0.46459999680519104,0.10569999366998672,-1.011099934577942
1682999493905058000,7.37405810546875,0.7024999856948853,0.28619998693466187,-0.765999972820282
1682999493925058000,7.39405810546875,0.7876999974250793,0.40070000290870667,0.01809999905526638
1682999493945058000,7.41405810546875,0.865399956703186,0.6118999719619751,1.0160000324249268
1682999493965058000,7.43405810546875,0.9836999773979187,0.6784999966621399,1.9638999700546265
1682999493985058000,7.45405810546875,0.8448999524116516,0.6758999824523926,2.420799970626831
1682999494005058000,7.47405810546875,0.5248000025749207,0.32510000467300415,2.084699869155884
1682999494025056500,7.494056396484375,0.47859999537467957,0.048499997705221176,1.7322999238967896
1682999494045058000,7.51405810546875,0.31379997730255127,0.008999999612569809,2.046599864959717
1682999494065056500,7.534056396484375,0.3010999858379364,0.07599999755620956,2.447499990463257
1682999494085058000,7.55405810546875,0.19900000095367432,0.14989998936653137,2.6432998180389404
1682999494105058000,7.57405810546875,-0.13509999215602875,0.4611999988555908,1.8672999143600464
1682999494125058000,7.59405810546875,-0.3138999938964844,0.553600013256073,0.052799999713897705
1682999494145058000,7.61405810546875,-0.12319999933242798,0.3037000000476837,-1.2487999200820923
1682999494165058000,7.63405810546875,0.289000004529953,0.005399999674409628,-1.0397999286651611
1682999494185058000,7.65405810546875,0.7003999948501587,-0.4461999833583832,0.21549999713897705
1682999494205058000,7.67405810546875,0.7858999967575073,-0.8382999897003174,1.5461000204086304
1682999494225058000,7.69405810546875,0.448199987411499,-1.2100999355316162,1.8847999572753906
1682999494245056500,7.714056396484375,0.41909998655319214,-1.2113999128341675,0.8252999782562256
1682999494265058000,7.73405810546875,0.281499981880188,-0.597599983215332,-0.6128000020980835
1682999494285058000,7.75405810546875,-0.0007999999797903001,-0.2450999915599823,-1.5791000127792358
1682999494305058000,7.77405810546875,-0.36169999837875366,-0.14399999380111694,-1.9279999732971191
1682999494325058000,7.79405810546875,-0.6297000050544739,-0.07979999482631683,-1.9449999332427979
1682999494345058000,7.81405810546875,-0.7274999618530273,-0.024299999698996544,-1.9340999126434326
1682999494365058000,7.83405810546875,-0.8216999769210815,-0.15609999001026154,-1.9835000038146973
1682999494385058000,7.85405810546875,-0.6358000040054321,-0.19419999420642853,-2.082399845123291
1682999494405058000,7.87405810546875,-0.26969999074935913,-0.09059999883174896,-1.8483999967575073
1682999494425056500,7.894056396484375,0.06239999830722809,-0.00930000003427267,-1.232800006866455
1682999494445058000,7.91405810546875,0.18389999866485596,0.1517999917268753,-0.7060999870300293
1682999494465058000,7.93405810546875,0.2620999813079834,0.3197000026702881,-0.34540000557899475
1682999494485058000,7.95405810546875,0.1817999929189682,0.36399999260902405,-0.4039999842643738
1682999494505058000,7.97405810546875,0.04779999703168869,0.482699990272522,-0.5776000022888184
1682999494525056500,7.994056396484375,-0.16019999980926514,0.6597999930381775,-0.6132000088691711
1682999494545058000,8.01405810546875,-0.2368999868631363,0.750499963760376,-0.25689998269081116
1682999494565058000,8.03405810546875,-0.4657999873161316,0.5701999664306641,0.17729999125003815
1682999494585058000,8.05405810546875,-0.6800999641418457,0.5069000124931335,0.6013999581336975
1682999494605058000,8.07405810546875,-0.6866999864578247,0.5943999886512756,0.9185999631881714
1682999494625058000,8.09405810546875,-0.7870999574661255,0.5120999813079834,1.2661999464035034
1682999494645056500,8.114056396484376,-0.7554999589920044,0.3814999759197235,1.7898999452590942
1682999494665056500,8.134056396484375,-0.6358000040054321,-0.11939999461174011,2.537899971008301
1682999494685058000,8.15405810546875,-0.41419997811317444,-0.510699987411499,3.1661999225616455
1682999494705058000,8.17405810546875,-0.00930000003427267,-0.5783999562263489,3.450699806213379
1682999494725058000,8.19405810546875,0.4204999804496765,-0.3489999771118164,3.1198999881744385
1682999494745056500,8.214056396484375,0.38670000433921814,0.0949999988079071,1.6144999265670776
1682999494765058000,8.23405810546875,0.45479997992515564,0.37059998512268066,-0.003999999724328518
1682999494785058000,8.25405810546875,0.8677999973297119,0.1720999926328659,-0.28700000047683716
1682999494805058000,8.27405810546875,0.9096999764442444,-0.38749998807907104,0.9390999674797058
1682999494825058000,8.29405810546875,0.6956999897956848,-0.8901000022888184,2.2605998516082764
1682999494845058000,8.31405810546875,0.2709999978542328,-1.3183000087738037,2.551300048828125
1682999494865058000,8.33405810546875,0.01769999973475933,-1.5210999250411987,0.9280999898910522
1682999494885058000,8.35405810546875,-0.14239999651908875,-1.4257999658584595,-1.1079999208450317
1682999494905058000,8.37405810546875,0.02369999885559082,-1.058899998664856,-2.3367998600006104
1682999494925056500,8.394056396484375,0.37449997663497925,-0.7676999568939209,-2.1756999492645264
1682999494945058000,8.41405810546875,0.3335999846458435,-0.852899968624115,-1.295300006866455
1682999494965058000,8.43405810546875,0.14810000360012054,-0.8703999519348145,-0.8784999847412109
1682999494985058000,8.45405810546875,-0.0066999997943639755,-0.41110000014305115,-1.0871000289916992
1682999495005058000,8.47405810546875,-0.18850000202655792,-0.17899999022483826,-1.6162999868392944
1682999495025058000,8.49405810546875,-0.3279999792575836,-0.02879999950528145,-1.7034999132156372
1682999495045058000,8.51405810546875,-0.4400999844074249,-0.20889998972415924,-1.3121999502182007
1682999495065058000,8.53405810546875,-0.43299999833106995,-0.26330000162124634,-0.825499951839447
1682999495085058000,8.55405810546875,-0.32589998841285706,-0.17170000076293945,-0.5644999742507935
1682999495105056500,8.574056396484375,-0.1882999986410141,0.053599998354911804,-0.5572999715805054
1682999495125058000,8.59405810546875,0.06960000097751617,0.18779999017715454,-0.6557999849319458
1682999495145058000,8.61405810546875,0.2970999777317047,0.2329999953508377,-0.5383999943733215
1682999495165058000,8.63405810546875,0.5356000065803528,0.18379999697208405,0.01889999955892563
1682999495185058000,8.65405810546875,0.7689999938011169,0.11969999969005585,0.9666999578475952
1682999495205069000,8.674069091796875,0.9215999841690063,0.1014999970793724,2.108799934387207
1682999495225058000,8.69405810546875,0.8485999703407288,-0.04209999740123749,2.867499828338623
1682999495245056500,8.714056396484375,0.7439999580383301,-0.14569999277591705,2.589400053024292
1682999495265058000,8.73405810546875,0.6168000102043152,-0.13840000331401825,1.9723999500274658
1682999495285059600,8.7540595703125,0.6421999931335449,-0.5392999649047852,1.935499906539917
1682999495305059600,8.7740595703125,0.7452999949455261,-0.726099967956543,2.0219998359680176
1682999495325058000,8.79405810546875,0.9806999564170837,-0.5062999725341797,2.0764999389648438
1682999495345059600,8.8140595703125,0.6764000058174133,-0.020099999383091927,1.3977999687194824
1682999495365059600,8.8340595703125,0.26909998059272766,0.210999995470047,-0.11949999630451202
1682999495385058000,8.85405810546875,0.3384999930858612,0.2142999917268753,-1.355199933052063
1682999495405058000,8.87405810546875,0.36069998145103455,-0.06870000064373016,-1.354200005531311
1682999495425056500,8.894056396484375,0.16529999673366547,-0.6448000073432922,-0.22339999675750732
1682999495445058000,8.91405810546875,0.04699999839067459,-1.1476999521255493,0.7549999952316284
1682999495465058000,8.93405810546875,-0.11629999428987503,-1.2412999868392944,1.0268999338150024
1682999495485058000,8.95405810546875,0.003399999812245369,-0.8605999946594238,0.48739999532699585
1682999495505058000,8.97405810546875,-0.15379999577999115,-0.4147000014781952,-0.35409998893737793
1682999495525056500,8.994056396484375,-0.3179999887943268,-0.22049999237060547,-0.8810999989509583
1682999495545058000,9.01405810546875,-0.46239998936653137,-0.22909998893737793,-1.2304999828338623
1682999495565056500,9.034056396484376,-0.6148999929428101,-0.23089998960494995,-1.5116000175476074
1682999495585059600,9.0540595703125,-0.6987000107765198,-0.23229999840259552,-1.7742999792099
1682999495605059600,9.0740595703125,-0.6990999579429626,-0.1923999935388565,-1.7939000129699707
1682999495625058000,9.09405810546875,-0.7019000053405762,-0.06159999966621399,-1.7078999280929565
1682999495645059600,9.1140595703125,-0.6225999593734741,0.02459999918937683,-1.6617000102996826
1682999495665059600,9.1340595703125,-0.4681999981403351,0.18799999356269836,-1.5748000144958496
1682999495685058000,9.15405810546875,-0.36579999327659607,0.2830999791622162,-1.2608000040054321
1682999495705058000,9.17405810546875,-0.40309998393058777,0.29569998383522034,-0.800599992275238
1682999495725058000,9.19405810546875,-0.4277999997138977,0.2768999934196472,-0.4400999844074249
1682999495745056500,9.214056396484375,-0.5687999725341797,0.2854999899864197,-0.28540000319480896
1682999495765059600,9.2340595703125,-0.5913000106811523,0.4131999909877777,-0.38439998030662537
1682999495785058000,9.25405810546875,-0.37129998207092285,0.5162000060081482,-0.41200000047683716
1682999495805058000,9.27405810546875,-0.15119999647140503,0.5708999633789062,-0.09510000050067902
1682999495825058000,9.29405810546875,0.013700000010430813,0.49709999561309814,0.5338000059127808
1682999495845058000,9.31405810546875,0.2264999896287918,0.5162000060081482,1.240299940109253
1682999495865058000,9.33405810546875,0.2409999966621399,0.582099974155426,1.9164999723434448
1682999495885059600,9.3540595703125,0.23409999907016754,0.6308000087738037,2.4654998779296875
1682999495905059600,9.3740595703125,0.21769998967647552,0.35569998621940613,2.8992998600006104
1682999495925056500,9.394056396484375,0.06870000064373016,0.26319998502731323,3.1669998168945312
1682999495945059600,9.4140595703125,0.0851999968290329,0.1289999932050705,2.7988998889923096
1682999495965059600,9.4340595703125,0.16380000114440918,-0.07750000059604645,2.150099992752075
1682999495985059600,9.4540595703125,0.15439999103546143,-0.016300000250339508,1.1876999139785767
1682999496005059600,9.4740595703125,0.14499999582767487,-0.050599999725818634,0.18649999797344208
1682999496025056500,9.494056396484375,0.313400000333786,-0.2856000065803528,-0.010300000198185444
1682999496045058000,9.51405810546875,0.42170000076293945,-0.6157000064849854,0.963699996471405
1682999496065058000,9.53405810546875,0.34139999747276306,-0.9229999780654907,2.0657999515533447
1682999496085058000,9.55405810546875,0.07440000027418137,-1.1826999187469482,2.3511998653411865
1682999496105058000,9.57405810546875,-0.038100000470876694,-1.115299940109253,1.3665999174118042
1682999496125058000,9.59405810546875,-0.18199999630451202,-0.9426999688148499,0.007199999876320362
1682999496145058000,9.61405810546875,-0.41579997539520264,-0.8625999689102173,-0.9970999956130981
1682999496165056500,9.634056396484375,-0.45899999141693115,-0.9307000041007996,-1.3743000030517578
1682999496185058000,9.65405810546875,-0.6870999932289124,-1.0809999704360962,-1.4900000095367432
1682999496205058000,9.67405810546875,-0.7791000008583069,-1.1546999216079712,-1.775399923324585
1682999496225056500,9.694056396484376,-0.7785999774932861,-0.9585999846458435,-2.2281999588012695
1682999496245056500,9.714056396484375,-0.5392000079154968,-0.6428999900817871,-2.3382999897003174
1682999496265059600,9.7340595703125,-0.2587999999523163,-0.37119999527931213,-1.8322999477386475
1682999496285058000,9.75405810546875,-0.10740000009536743,-0.28599998354911804,-1.2013999223709106
1682999496305058000,9.77405810546875,0.062199998646974564,-0.1704999953508377,-0.7084999680519104
1682999496325058000,9.79405810546875,0.11829999834299088,-0.07750000059604645,-0.3140999972820282
1682999496345058000,9.81405810546875,0.21609999239444733,-0.060499999672174454,-0.2224999964237213
1682999496365056500,9.834056396484375,0.21220000088214874,-0.056199997663497925,-0.5801999568939209
1682999496385056500,9.854056396484374,0.34439998865127563,-0.014699999243021011,-0.9167999625205994
1682999496405058000,9.87405810546875,0.4113999903202057,0.06449999660253525,-0.8011999726295471
1682999496425056500,9.894056396484375,0.6122999787330627,0.1899999976158142,-0.09759999811649323
1682999496445056500,9.914056396484375,0.7694999575614929,0.27079999446868896,0.9280999898910522
1682999496465056500,9.934056396484374,0.854200005531311,0.2920999825000763,2.14739990234375
1682999496485058000,9.95405810546875,0.8445000052452087,0.3587999939918518,2.9034998416900635
1682999496505058000,9.97405810546875,0.7735999822616577,0.38089999556541443,3.043299913406372
1682999496525056500,9.994056396484375,0.6482999920845032,0.1589999943971634,2.1975998878479004
1682999496545058000,10.01405810546875,0.6649999618530273,-0.17739999294281006,1.9538999795913696
1682999496565058000,10.03405810546875,0.5691999793052673,-0.05199999734759331,2.2869999408721924
1682999496585058000,10.05405810546875,0.5656999945640564,0.01769999973475933,2.422799825668335
1682999496605059600,10.0740595703125,0.4244999885559082,0.2505999803543091,1.3733999729156494
1682999496625058000,10.09405810546875,0.36629998683929443,0.5845000147819519,-0.3310000002384186
1682999496645058000,10.11405810546875,0.6154999732971191,0.8420999646186829,-1.3174999952316284
1682999496665058000,10.13405810546875,0.5291000008583069,0.7744999527931213,-0.8343999981880188
1682999496685058000,10.15405810546875,0.2011999934911728,0.31859999895095825,0.5475000143051147
1682999496705058000,10.17405810546875,-0.22039999067783356,-0.3756999969482422,1.4578999280929565
1682999496725056500,10.194056396484376,-0.6226999759674072,-0.7558000087738037,1.2797999382019043
1682999496745056500,10.214056396484375,-0.6556999683380127,-0.6205999851226807,0.1615999937057495
1682999496765058000,10.23405810546875,-0.5602999925613403,-0.45909997820854187,-0.8848999738693237
1682999496785059600,10.2540595703125,-0.7080000042915344,-0.48579999804496765,-1.517699956893921
1682999496805058000,10.27405810546875,-0.7428999543190002,-0.5551999807357788,-1.649999976158142
1682999496825058000,10.29405810546875,-0.7560999989509583,-0.5375999808311462,-1.6363999843597412
1682999496845058000,10.31405810546875,-0.7269999980926514,-0.5149999856948853,-1.7418999671936035
1682999496865056500,10.334056396484375,-0.740399956703186,-0.5457000136375427,-1.906999945640564
1682999496885058000,10.35405810546875,-0.7228999733924866,-0.47349998354911804,-2.150599956512451
1682999496905059600,10.3740595703125,-0.5404999852180481,-0.3416000008583069,-2.187999963760376
1682999496925059600,10.3940595703125,-0.46799999475479126,-0.14869999885559082,-1.8341999053955078
1682999496945058000,10.41405810546875,-0.4341000020503998,-0.05609999969601631,-1.2856999635696411
1682999496965056500,10.434056396484374,-0.3773999810218811,0.01119999960064888,-0.7472999691963196
1682999496985058000,10.45405810546875,-0.2611999809741974,0.014499999582767487,-0.1599999964237213
1682999497005058000,10.47405810546875,-0.2305999994277954,0.023599999025464058,0.1914999932050705
1682999497025056500,10.494056396484375,-0.23929999768733978,0.16179999709129333,0.054099999368190765
1682999497045058000,10.51405810546875,-0.07829999923706055,0.3231000006198883,-0.18779999017715454
1682999497065059600,10.5340595703125,-0.10639999806880951,0.5077999830245972,0.042500000447034836
1682999497085059600,10.5540595703125,-0.16099999845027924,0.6468999981880188,0.8991000056266785
1682999497105056500,10.574056396484375,-0.16449999809265137,0.6687999963760376,1.8805999755859375
1682999497125058000,10.59405810546875,-0.3303000032901764,0.8305999636650085,2.6333999633789062
1682999497145059600,10.6140595703125,-0.542199969291687,0.5281999707221985,3.2495999336242676
1682999497165058000,10.63405810546875,-0.37790000438690186,0.22929999232292175,3.9276998043060303
1682999497185058000,10.65405810546875,-0.4204999804496765,0.262800008058548,4.370500087738037
1682999497205058000,10.67405810546875,-0.2821999788284302,0.07639999687671661,3.8546998500823975
1682999497225058000,10.69405810546875,-0.025699999183416367,0.13570000231266022,2.5513999462127686
1682999497245056500,10.714056396484375,0.013199999928474426,0.11899999529123306,0.7712000012397766
1682999497265058000,10.73405810546875,0.10639999806880951,-0.19659999012947083,-0.6053999662399292
1682999497285058000,10.75405810546875,0.3686999976634979,-0.84579998254776,-0.6589999794960022
1682999497305058000,10.77405810546875,0.2874000072479248,-1.2115999460220337,0.35499998927116394
1682999497325058000,10.79405810546875,-0.045499999076128006,-1.4375,1.1211999654769897
1682999497345058000,10.81405810546875,-0.2533999979496002,-1.591399908065796,0.858299970626831
1682999497365058000,10.83405810546875,-0.40619999170303345,-1.344599962234497,-0.5149999856948853
1682999497385058000,10.85405810546875,-0.6305999755859375,-1.1535999774932861,-1.7188999652862549
1682999497405058000,10.87405810546875,-0.44859999418258667,-1.014299988746643,-2.2662999629974365
1682999497425056500,10.894056396484375,-0.23829999566078186,-0.9738999605178833,-2.07069993019104
1682999497445058000,10.91405810546875,-0.18889999389648438,-0.9690999984741211,-1.7100999355316162
1682999497465059600,10.9340595703125,-0.2606000006198883,-0.8781999945640564,-1.7719999551773071
1682999497485058000,10.95405810546875,-0.24539999663829803,-0.6782000064849854,-1.7565999031066895
1682999497505059600,10.9740595703125,-0.21299999952316284,-0.5687999725341797,-1.4788999557495117
1682999497525056500,10.994056396484375,-0.10999999940395355,-0.5541999936103821,-0.9382999539375305
1682999497545058000,11.01405810546875,0.14549998939037323,-0.3714999854564667,-0.4065999984741211
1682999497565056500,11.034056396484376,0.1793999969959259,-0.20569999516010284,-0.06019999831914902
1682999497585059600,11.0540595703125,0.16589999198913574,-0.07360000163316727,-0.026099998503923416
1682999497605056500,11.074056396484375,0.17880000174045563,0.038100000470876694,-0.40199998021125793
1682999497625058000,11.09405810546875,0.30879998207092285,0.2101999968290329,-0.6978999972343445
1682999497645058000,11.11405810546875,0.6071000099182129,0.4366999864578247,-0.4643999934196472
1682999497665058000,11.13405810546875,0.915399968624115,0.548799991607666,0.23839999735355377
1682999497685058000,11.15405810546875,1.2441999912261963,0.6656999588012695,1.077299952507019
1682999497705058000,11.17405810546875,1.4460999965667725,0.8294000029563904,2.0523998737335205
1682999497725058000,11.19405810546875,1.1424000263214111,0.6901999711990356,2.419299840927124
1682999497745056500,11.214056396484375,0.8391000032424927,0.6240000128746033,1.9266999959945679
1682999497765058000,11.23405810546875,0.7095999717712402,0.524399995803833,1.781999945640564
1682999497785059600,11.2540595703125,0.4822999835014343,0.018799999728798866,2.4795000553131104
1682999497805056500,11.274056396484376,0.19169999659061432,-0.3041999936103821,2.7121999263763428
1682999497825058000,11.29405810546875,0.19779999554157257,-0.5327000021934509,2.1524999141693115
1682999497845058000,11.31405810546875,0.03590000048279762,-0.121799997985363,0.7604999542236328
1682999497865058000,11.33405810546875,0.2683999836444855,0.0632999986410141,-0.9811999797821045
1682999497885056500,11.354056396484374,0.762999951839447,-0.02149999886751175,-1.9134999513626099
1682999497905058000,11.37405810546875,0.8068999648094177,-0.06870000064373016,-1.2100999355316162
1682999497925059600,11.3940595703125,0.42829999327659607,-0.4520999789237976,0.4562999904155731
1682999497945059600,11.4140595703125,-0.0803999975323677,-1.0637999773025513,1.531000018119812
1682999497965056500,11.434056396484374,-0.6455999612808228,-1.2249000072479248,1.4397999048233032
1682999497985058000,11.45405810546875,-0.6779999732971191,-0.7576000094413757,0.2830999791622162
1682999498005058000,11.47405810546875,-0.7565000057220459,-0.2777000069618225,-0.8709999918937683
1682999498025056500,11.494056396484375,-0.7821999788284302,-0.14909999072551727,-1.5239999294281006
1682999498045058000,11.51405810546875,-0.5791999697685242,-0.21679998934268951,-1.3626999855041504
1682999498065058000,11.53405810546875,-0.647599995136261,-0.3561999797821045,-1.164099931716919
1682999498085058000,11.55405810546875,-0.6473000049591064,-0.37549999356269836,-1.0267999172210693
1682999498105058000,11.57405810546875,-0.7256999611854553,-0.41099998354911804,-1.135699987411499
1682999498125058000,11.59405810546875,-0.7292999625205994,-0.3974999785423279,-1.4413999319076538
1682999498145058000,11.61405810546875,-0.7184000015258789,-0.3764999806880951,-1.511099934577942
1682999498165059600,11.6340595703125,-0.5191999673843384,-0.2044999897480011,-1.3449000120162964
1682999498185059600,11.6540595703125,-0.298799991607666,0.019500000402331352,-1.1388999223709106
1682999498205058000,11.67405810546875,-0.21149998903274536,0.23899999260902405,-0.9529999494552612
1682999498225056500,11.694056396484376,-0.2458999902009964,0.3504999876022339,-0.7872999906539917
1682999498245056500,11.714056396484375,-0.39899998903274536,0.24289999902248383,-0.7389000058174133
1682999498265058000,11.73405810546875,-0.503600001335144,0.29659998416900635,-0.8165000081062317
1682999498285059600,11.7540595703125,-0.44689998030662537,0.46619999408721924,-0.8445000052452087
1682999498305058000,11.77405810546875,-0.12489999830722809,0.5949000120162964,-0.32349997758865356
1682999498325058000,11.79405810546875,0.0210999995470047,0.3879999816417694,0.8027999997138977
1682999498345058000,11.81405810546875,-0.08859999477863312,0.3782999813556671,1.9661999940872192
1682999498365058000,11.83405810546875,-0.07530000060796738,0.5087000131607056,2.6303999423980713
1682999498385058000,11.85405810546875,-0.13849999010562897,0.6833999752998352,2.649899959564209
1682999498405058000,11.87405810546875,0.023899998515844345,0.11289999634027481,2.691200017929077
1682999498425056500,11.894056396484375,0.16859999299049377,-0.1559000015258789,2.898699998855591
1682999498445058000,11.91405810546875,0.6848999857902527,-0.18389999866485596,3.184999942779541
1682999498465058000,11.93405810546875,0.9138000011444092,-0.19249999523162842,3.3559999465942383
1682999498485058000,11.95405810546875,0.741599977016449,-0.09009999781847,2.427500009536743
1682999498505058000,11.97405810546875,0.48559999465942383,0.0989999994635582,0.26479998230934143
1682999498525059600,11.9940595703125,0.3422999978065491,0.08460000157356262,-1.1007999181747437
1682999498545059600,12.0140595703125,0.40119999647140503,-0.4690999984741211,-0.6628999710083008
1682999498565058000,12.03405810546875,0.12280000001192093,-0.691100001335144,0.8937999606132507
1682999498585058000,12.05405810546875,-0.13910000026226044,-0.8208000063896179,2.0329999923706055
1682999498605059600,12.0740595703125,-0.2777000069618225,-1.0494999885559082,1.6643999814987183
1682999498625058000,12.09405810546875,-0.3199999928474426,-0.9138000011444092,0.06449999660253525
1682999498645058000,12.11405810546875,-0.3173999786376953,-0.7930999994277954,-1.062399983406067
1682999498665058000,12.13405810546875,0.021399999037384987,-0.8737999796867371,-1.3062999248504639
1682999498685058000,12.15405810546875,0.22689999639987946,-0.7989999651908875,-1.1086000204086304
1682999498705058000,12.17405810546875,0.17870000004768372,-0.7480999827384949,-1.25409996509552
1682999498725056500,12.194056396484376,-0.09510000050067902,-0.6584999561309814,-1.7430999279022217
1682999498745056500,12.214056396484375,-0.2628999948501587,-0.5572999715805054,-1.9490998983383179
1682999498765058000,12.23405810546875,-0.2547000050544739,-0.40779998898506165,-1.6967999935150146
1682999498785058000,12.25405810546875,-0.3199999928474426,-0.4291999936103821,-1.2207999229431152
1682999498805058000,12.27405810546875,-0.25929999351501465,-0.4213999807834625,-0.8914999961853027
1682999498825058000,12.29405810546875,-0.10359999537467957,-0.15969999134540558,-0.7579999566078186
1682999498845058000,12.31405810546875,0.15729999542236328,0.07849999517202377,-0.5946999788284302
1682999498865058000,12.33405810546875,0.4465000033378601,0.2256999909877777,-0.527999997138977
1682999498885058000,12.35405810546875,0.6223999857902527,0.34700000286102295,-0.48979997634887695
1682999498905058000,12.37405810546875,0.7735999822616577,0.32019999623298645,-0.2856000065803528
1682999498925059600,12.3940595703125,0.8427000045776367,0.2996000051498413,0.24139998853206635
1682999498945058000,12.41405810546875,0.8482999801635742,0.38609999418258667,1.0019999742507935
1682999498965056500,12.434056396484374,0.9253000020980835,0.5077999830245972,2.0555999279022217
1682999498985058000,12.45405810546875,0.8023999929428101,0.5680999755859375,2.5281999111175537
1682999499005058000,12.47405810546875,0.6987999677658081,0.5551999807357788,2.2864999771118164
1682999499025059600,12.4940595703125,0.6665999889373779,0.46209999918937683,1.5597999095916748
1682999499045058000,12.51405810546875,0.4902999997138977,0.1930999904870987,1.7279999256134033
1682999499065059600,12.5340595703125,0.35760000348091125,0.37209999561309814,2.0988998413085938
1682999499085058000,12.55405810546875,0.2904999852180481,0.4156000018119812,1.813499927520752
1682999499105059600,12.5740595703125,-0.04919999837875366,0.42239999771118164,0.9314999580383301
1682999499125059600,12.5940595703125,0.04399999976158142,0.3190000057220459,-0.25290000438690186
1682999499145056500,12.614056396484376,0.2621999979019165,-0.05929999798536301,-0.8966999650001526
1682999499165059600,12.6340595703125,0.3824999928474426,-0.397599995136261,-0.4730999767780304
1682999499185059600,12.6540595703125,0.31290000677108765,-0.736799955368042,0.39989998936653137
1682999499205092400,12.67409228515625,0.030799999833106995,-1.138100028038025,0.8705999851226807
1682999499225059600,12.6940595703125,-0.19820000231266022,-1.5175999402999878,0.6468999981880188
1682999499245056500,12.714056396484375,-0.3449999988079071,-1.6017999649047852,-0.3391999900341034
1682999499265058000,12.73405810546875,-0.3756999969482422,-1.4169999361038208,-1.1369999647140503
1682999499285058000,12.75405810546875,-0.41909998655319214,-0.9909999966621399,-1.4847999811172485
1682999499305059600,12.7740595703125,-0.5223999619483948,-0.7062999606132507,-1.3048999309539795
1682999499325058000,12.79405810546875,-0.7490999698638916,-0.5440999865531921,-1.1369999647140503
1682999499345058000,12.81405810546875,-0.8781999945640564,-0.3353999853134155,-1.18559992313385
1682999499365058000,12.83405810546875,-0.8789999485015869,-0.22289998829364777,-1.3219999074935913
1682999499385058000,12.85405810546875,-0.7256999611854553,-0.24049998819828033,-1.4577999114990234
1682999499405058000,12.87405810546875,-0.6270999908447266,-0.3540000021457672,-1.4670000076293945
1682999499425056500,12.894056396484375,-0.4193999767303467,-0.3894999921321869,-1.3202999830245972
1682999499445058000,12.91405810546875,-0.2685000002384186,-0.28029999136924744,-1.330199956893921
1682999499465059600,12.9340595703125,-0.07729999721050262,-0.13840000331401825,-1.1039999723434448
1682999499485059600,12.9540595703125,-0.17249999940395355,-0.021299999207258224,-0.761199951171875
1682999499505058000,12.97405810546875,-0.25929999351501465,0.12060000002384186,-0.6151999831199646
1682999499525056500,12.994056396484375,-0.3425999879837036,0.30219998955726624,-0.3308999836444855
1682999499545058000,13.01405810546875,-0.36879998445510864,0.5846999883651733,-0.19189999997615814
1682999499565058000,13.03405810546875,-0.3434000015258789,0.8104999661445618,-0.01269999984651804
1682999499585058000,13.05405810546875,-0.3224000036716461,0.9098999500274658,0.6250999569892883
1682999499605056500,13.074056396484375,-0.14819999039173126,0.9950999617576599,1.3490999937057495
1682999499625058000,13.09405810546875,-0.0478999987244606,1.0576000213623047,2.1022000312805176
1682999499645058000,13.11405810546875,-0.13809999823570251,1.1509000062942505,2.7971999645233154
1682999499665056500,13.134056396484375,-0.21480000019073486,0.8914999961853027,3.5042998790740967
1682999499685058000,13.15405810546875,-0.35999998450279236,0.618399977684021,3.8583998680114746
1682999499705058000,13.17405810546875,-0.2985000014305115,0.2312999963760376,3.7121999263763428
1682999499725056500,13.194056396484376,0.03869999945163727,-0.16609999537467957,2.942199945449829
1682999499745056500,13.214056396484375,0.1946999877691269,-0.24379999935626984,1.6252999305725098
1682999499765058000,13.23405810546875,0.20419999957084656,-0.23659999668598175,0.015699999406933784
1682999499785058000,13.25405810546875,0.5417999625205994,-0.42080000042915344,-0.924299955368042
1682999499805058000,13.27405810546875,0.8027999997138977,-0.7760999798774719,-0.31929999589920044
1682999499825058000,13.29405810546875,0.5396000146865845,-0.962399959564209,0.9195999503135681
1682999499845059600,13.3140595703125,0.1542000025510788,-1.0692999362945557,1.7303999662399292
1682999499865061000,13.33406103515625,-0.03709999844431877,-1.1933000087738037,0.9872999787330627
1682999499885058000,13.35405810546875,-0.22540000081062317,-1.142300009727478,-0.40619999170303345
1682999499905058000,13.37405810546875,-0.3352999985218048,-0.9810999631881714,-1.4254999160766602
1682999499925056500,13.394056396484375,-0.21220000088214874,-0.9502999782562256,-1.71999990940094
1682999499945058000,13.41405810546875,-0.11919999867677689,-1.0450999736785889,-1.3690999746322632
1682999499965056500,13.434056396484374,-0.22689999639987946,-1.0774999856948853,-1.264299988746643
1682999499985058000,13.45405810546875,-0.2800000011920929,-0.8973999619483948,-1.4333000183105469
1682999500005058000,13.47405810546875,-0.3156999945640564,-0.7121999859809875,-1.5625
1682999500025056500,13.494056396484375,-0.1842999905347824,-0.5735999941825867,-1.438099980354309
1682999500045058000,13.51405810546875,-0.022699998691678047,-0.4341000020503998,-1.0404000282287598
1682999500065058000,13.53405810546875,0.204599991440773,-0.2992999851703644,-0.5748999714851379
1682999500085058000,13.55405810546875,0.47669997811317444,-0.11949999630451202,-0.42249998450279236
1682999500105058000,13.57405810546875,0.5342000126838684,0.025999998673796654,-0.3865000009536743
1682999500125058000,13.59405810546875,0.5532000064849854,0.11189999431371689,-0.5162000060081482
1682999500145058000,13.61405810546875,0.597000002861023,0.1898999959230423,-0.8894000053405762
1682999500165058000,13.63405810546875,0.5321999788284302,0.15079998970031738,-0.8799999952316284
1682999500185058000,13.65405810546875,0.5392000079154968,0.27809998393058777,-0.20520000159740448
1682999500205058000,13.67405810546875,0.6595999598503113,0.3578999936580658,0.8700000047683716
1682999500225056500,13.694056396484376,0.7597000002861023,0.4381999969482422,1.9434999227523804
1682999500245056500,13.714056396484375,0.8402000069618225,0.4699999988079071,2.810299873352051
1682999500265058000,13.73405810546875,0.8561999797821045,0.3579999804496765,2.277400016784668
1682999500285058000,13.75405810546875,0.9369999766349792,0.03669999912381172,1.2688000202178955
1682999500305058000,13.77405810546875,1.036199927330017,-0.27399998903274536,1.3312000036239624
1682999500325058000,13.79405810546875,0.8858999609947205,-0.22109998762607574,1.7914999723434448
1682999500345058000,13.81405810546875,0.6545999646186829,-0.5842999815940857,1.6902999877929688
1682999500365056500,13.834056396484375,0.3434999883174896,-0.7587999701499939,0.7870000004768372
1682999500385058000,13.85405810546875,0.27239999175071716,-0.24560000002384186,-0.44829997420310974
1682999500405058000,13.87405810546875,0.6638000011444092,-0.09569999575614929,-1.0054999589920044
1682999500425058000,13.89405810546875,0.8965999484062195,-0.26510000228881836,-0.17170000076293945
1682999500445058000,13.91405810546875,0.9319999814033508,-0.5871999859809875,0.5515999794006348
1682999500465056500,13.934056396484374,0.6936999559402466,-1.1460000276565552,0.6990000009536743
1682999500485058000,13.95405810546875,0.3473999798297882,-1.400499939918518,0.4274999797344208
1682999500505056500,13.974056396484375,0.12839999794960022,-1.191100001335144,-0.06839999556541443
1682999500525056500,13.994056396484375,-0.17870000004768372,-0.8743999600410461,-0.5162000060081482
1682999500545058000,14.01405810546875,-0.4526999890804291,-0.625499963760376,-0.8367999792098999
1682999500565058000,14.03405810546875,-0.8235999941825867,-0.3634999990463257,-1.1770999431610107
1682999500585058000,14.05405810546875,-0.9307999610900879,-0.14100000262260437,-1.3013999462127686
1682999500605058000,14.07405810546875,-0.9606999754905701,-0.12429999560117722,-1.191100001335144
1682999500625059600,14.0940595703125,-1.0360000133514404,-0.27570000290870667,-1.0921999216079712
1682999500645058000,14.11405810546875,-0.7434999942779541,-0.19789999723434448,-1.160499930381775
1682999500665058000,14.13405810546875,-0.3919000029563904,-0.1362999975681305,-1.0230000019073486
1682999500685058000,14.15405810546875,-0.1841999888420105,-0.06269999593496323,-0.8366000056266785
1682999500705058000,14.17405810546875,-0.03449999913573265,0.05859999731183052,-0.7861999869346619
1682999500725056500,14.194056396484376,-0.1356000006198883,0.16979999840259552,-0.7547000050544739
1682999500745056500,14.214056396484375,-0.2947999835014343,0.21739999949932098,-0.6643999814987183
1682999500765058000,14.23405810546875,-0.49219998717308044,0.23999999463558197,-0.7311999797821045
1682999500785058000,14.25405810546875,-0.6105999946594238,0.25859999656677246,-0.9648000001907349
1682999500805058000,14.27405810546875,-0.5454999804496765,0.39729997515678406,-1.0312999486923218
1682999500825058000,14.29405810546875,-0.31189998984336853,0.5092999935150146,-0.42080000042915344
1682999500845058000,14.31405810546875,-0.12109999358654022,0.649399995803833,0.5315999984741211
1682999500865058000,14.33405810546875,0.0738999992609024,0.8705999851226807,1.386299967765808
1682999500885058000,14.35405810546875,0.18060000240802765,1.0511000156402588,2.0943000316619873
1682999500905058000,14.37405810546875,0.1931999921798706,1.3219000101089478,2.174799919128418
1682999500925058000,14.39405810546875,0.181099995970726,1.3899999856948853,1.8156999349594116
1682999500945058000,14.41405810546875,0.22119998931884766,1.0709999799728394,1.5959999561309814
1682999500965056500,14.434056396484374,0.18029999732971191,0.6365000009536743,1.9548999071121216
1682999500985058000,14.45405810546875,0.28939998149871826,0.4502999782562256,2.4803998470306396
1682999501005058000,14.47405810546875,0.4721999764442444,0.4576999843120575,2.694499969482422
1682999501025056500,14.494056396484375,0.25040000677108765,0.6298999786376953,2.094399929046631
1682999501045058000,14.51405810546875,0.1347000002861023,0.5970999598503113,1.0636999607086182
1682999501065058000,14.53405810546875,0.09030000120401382,0.17459999024868011,0.8064999580383301
1682999501085058000,14.55405810546875,-0.0568000003695488,-0.2886999845504761,1.8056999444961548
1682999501105058000,14.57405810546875,-0.17979998886585236,-0.6699000000953674,2.9433999061584473
1682999501125058000,14.59405810546875,-0.3610000014305115,-1.114300012588501,3.129999876022339
1682999501145058000,14.61405810546875,-0.7522000074386597,-1.486799955368042,1.4882999658584595
1682999501165058000,14.63405810546875,-0.9353999495506287,-1.6471999883651733,-0.849299967288971
1682999501185058000,14.65405810546875,-0.8060999512672424,-1.573699951171875,-2.5886998176574707
1682999501205058000,14.67405810546875,-0.7123000025749207,-1.2826999425888062,-3.2094998359680176
1682999501225056500,14.694056396484376,-0.5291000008583069,-1.2935999631881714,-2.428799867630005
1682999501245056500,14.714056396484375,-0.6547999978065491,-1.341399908065796,-1.3075000047683716
1682999501265058000,14.73405810546875,-0.7423999905586243,-0.9670999646186829,-0.9757999777793884
1682999501285058000,14.75405810546875,-0.5882999897003174,-0.3181000053882599,-1.2879999876022339
1682999501305058000,14.77405810546875,-0.6230999827384949,-0.0794999971985817,-1.5786999464035034
1682999501325058000,14.79405810546875,-0.6104999780654907,-0.18869999051094055,-1.4402999877929688
1682999501345058000,14.81405810546875,-0.2305999994277954,-0.1753999888896942,-1.048200011253357
1682999501365058000,14.83405810546875,0.06379999965429306,-0.05559999868273735,-0.5299000144004822
1682999501385058000,14.85405810546875,0.1306999921798706,0.11289999634027481,-0.3343999981880188
1682999501405058000,14.87405810546875,0.1687999963760376,0.18549999594688416,-0.3911999762058258
1682999501425056500,14.894056396484375,0.3337000012397766,0.15230000019073486,-0.45639997720718384
1682999501445058000,14.91405810546875,0.5813999772071838,0.15569999814033508,-0.3649999797344208
1682999501465056500,14.934056396484374,1.0013999938964844,0.12680000066757202,0.13930000364780426
1682999501485058000,14.95405810546875,1.3181999921798706,0.09869999438524246,0.8907999992370605
1682999501505058000,14.97405810546875,1.515299916267395,0.10480000078678131,1.6732999086380005
1682999501525056500,14.994056396484375,1.413599967956543,0.05009999871253967,2.0336999893188477
1682999501545058000,15.01405810546875,1.1410999298095703,0.08630000054836273,1.5619999170303345
1682999501565058000,15.03405810546875,0.824999988079071,0.16429999470710754,0.8483999967575073
1682999501585058000,15.05405810546875,0.46320000290870667,0.10080000013113022,1.0376999378204346
1682999501605058000,15.07405810546875,0.06929999589920044,0.16429999470710754,1.605799913406372
1682999501625058000,15.09405810546875,-0.020399998873472214,0.41769999265670776,2.1232998371124268
1682999501645059600,15.1140595703125,-0.13359999656677246,0.49779999256134033,2.2881999015808105
1682999501665059600,15.1340595703125,-0.2872999906539917,0.7662999629974365,1.11899995803833
1682999501685058000,15.15405810546875,0.28299999237060547,0.5773999691009521,-0.615399956703186
1682999501705058000,15.17405810546875,0.8965999484062195,0.27730000019073486,-1.1304999589920044
1682999501725056500,15.194056396484376,1.0894999504089355,-0.12119999527931213,0.2531000077724457
1682999501745056500,15.214056396484375,0.8572999835014343,-0.8300999999046326,2.200199842453003
1682999501765058000,15.23405810546875,0.2215999960899353,-1.534999966621399,2.684799909591675
1682999501785058000,15.25405810546875,-0.022299999371170998,-1.7906999588012695,1.1065000295639038
1682999501805058000,15.27405810546875,-0.01119999960064888,-1.2150999307632446,-0.4259999990463257
1682999501825058000,15.29405810546875,-0.10819999873638153,-0.526699960231781,-1.2804999351501465
1682999501845058000,15.31405810546875,-0.4291999936103821,-0.5160999894142151,-1.058899998664856
1682999501865058000,15.33405810546875,-0.9091999530792236,-0.7739999890327454,-0.8405999541282654
1682999501885058000,15.35405810546875,-1.0960999727249146,-0.8290999531745911,-1.0928000211715698
1682999501905058000,15.37405810546875,-1.157099962234497,-0.7005999684333801,-1.6959999799728394
1682999501925058000,15.39405810546875,-1.0206999778747559,-0.7008000016212463,-2.151900053024292
1682999501945058000,15.41405810546875,-0.772599995136261,-0.6879000067710876,-2.158799886703491
1682999501965056500,15.434056396484374,-0.4724999964237213,-0.6315999627113342,-1.8162999153137207
1682999501985058000,15.45405810546875,-0.19439999759197235,-0.4822999835014343,-1.4652999639511108
1682999502005058000,15.47405810546875,-0.04639999940991402,-0.2848999798297882,-1.1926000118255615
1682999502025056500,15.494056396484375,-0.0486999973654747,-0.14100000262260437,-0.9293999671936035
1682999502045058000,15.51405810546875,-0.18969999253749847,-0.009800000116229057,-0.8521999716758728
1682999502065058000,15.53405810546875,-0.30889999866485596,0.15479999780654907,-0.9111999869346619
1682999502085058000,15.55405810546875,-0.4414999783039093,0.3960999846458435,-0.9598999619483948
1682999502105056500,15.574056396484375,-0.5842999815940857,0.5098000168800354,-0.939799964427948
1682999502125058000,15.59405810546875,-0.5564999580383301,0.5260999798774719,-0.5561000108718872
1682999502145058000,15.61405810546875,-0.38839998841285706,0.5497999787330627,0.0819999948143959
1682999502165058000,15.63405810546875,-0.12219999730587006,0.5178999900817871,1.0032999515533447
1682999502185058000,15.65405810546875,0.010699999518692493,0.5922999978065491,1.913100004196167
1682999502205058000,15.67405810546875,0.013299999758601189,0.6779999732971191,2.575899839401245
1682999502225056500,15.694056396484376,-0.06079999729990959,0.6836999654769897,2.4946999549865723
1682999502245056500,15.714056396484375,0.15519998967647552,0.33309999108314514,2.5253000259399414
1682999502265058000,15.73405810546875,0.20189999043941498,0.21220000088214874,2.9289000034332275
1682999502285056500,15.754056396484375,0.4651999771595001,0.07809999585151672,3.3422999382019043
1682999502305056500,15.774056396484376,0.3895999789237976,0.05959999933838844,2.6301000118255615
1682999502325056500,15.794056396484375,0.3237999975681305,0.015699999406933784,1.2453999519348145
1682999502345058000,15.81405810546875,0.613099992275238,-0.20649999380111694,0.4820999801158905
1682999502365058000,15.83405810546875,0.6717000007629395,-0.5929999947547913,1.1445000171661377
1682999502385058000,15.85405810546875,0.5098999738693237,-0.82669997215271,1.9630999565124512
1682999502405058000,15.87405810546875,0.29089999198913574,-1.0946999788284302,2.290099859237671
1682999502425056500,15.894056396484375,0.0786999985575676,-1.0273000001907349,1.3466999530792236
1682999502445058000,15.91405810546875,-0.2604999840259552,-0.779699981212616,-0.11259999871253967
1682999502465056500,15.934056396484374,-0.48919999599456787,-0.6900999546051025,-1.3240000009536743
1682999502485058000,15.95405810546875,-0.6435999870300293,-1.128000020980835,-2.0227999687194824
1682999502505058000,15.97405810546875,-0.67249995470047,-1.3411999940872192,-2.4380998611450195
1682999502525056500,15.994056396484375,-0.5661999583244324,-1.0709999799728394,-2.406599998474121
1682999502545058000,16.01405810546875,-0.51419997215271,-0.9756999611854553,-1.9393999576568604
1682999502565058000,16.03405810546875,-0.39719998836517334,-0.7062999606132507,-1.5139999389648438
1682999502585058000,16.05405810546875,-0.17719998955726624,-0.3303999900817871,-1.1870999336242676
1682999502605056500,16.074056396484377,0.0551999993622303,-0.12610000371932983,-0.870199978351593
1682999502625058000,16.09405810546875,0.20179998874664307,-0.046299997717142105,-0.6022999882698059
1682999502645058000,16.11405810546875,0.296999990940094,0.03700000047683716,-0.3730999827384949
1682999502665058000,16.13405810546875,0.31039997935295105,0.14749999344348907,-0.367499977350235
1682999502685059600,16.1540595703125,0.2516999840736389,0.2254999876022339,-0.4777999818325043
1682999502705059600,16.1740595703125,0.3238999843597412,0.2708999812602997,-0.4989999830722809
1682999502725056500,16.194056396484374,0.407399982213974,0.1639000028371811,-0.28619998693466187
1682999502745056500,16.214056396484374,0.5537999868392944,0.008700000122189522,0.13099999725818634
1682999502765058000,16.23405810546875,0.7400999665260315,-0.06589999794960022,0.802299976348877
1682999502785058000,16.25405810546875,0.9053999781608582,-0.18230000138282776,1.6405999660491943
1682999502805058000,16.27405810546875,0.9111999869346619,-0.21559999883174896,2.1262998580932617
1682999502825056500,16.294056396484375,0.8780999779701233,-0.1946999877691269,2.014899969100952
1682999502845058000,16.31405810546875,0.9072999954223633,-0.3382999897003174,1.955199956893921
1682999502865058000,16.33405810546875,0.7114999890327454,-0.4712999761104584,2.4151999950408936
1682999502885058000,16.35405810546875,0.3840000033378601,-0.5045999884605408,2.25600004196167
1682999502905058000,16.37405810546875,0.46559998393058777,-0.6169999837875366,2.0794999599456787
1682999502925056500,16.394056396484373,0.2029999941587448,-0.3026999831199646,1.5393999814987183
1682999502945059600,16.4140595703125,0.22519999742507935,-0.037699997425079346,0.08720000088214874
1682999502965058000,16.43405810546875,0.38580000400543213,0.012899999506771564,-1.3420000076293945
1682999502985058000,16.45405810546875,0.4712999761104584,-0.0058999997563660145,-1.7980999946594238
1682999503005058000,16.47405810546875,0.5011999607086182,-0.0616999976336956,-0.9222999811172485
1682999503025056500,16.494056396484375,0.10319999605417252,-0.3027999997138977,0.47939997911453247
1682999503045058000,16.51405810546875,-0.2443999946117401,-0.6262999773025513,1.389299988746643
1682999503065058000,16.53405810546875,-0.48249998688697815,-0.611299991607666,1.1996999979019165
1682999503085058000,16.55405810546875,-0.45649999380111694,-0.36169999837875366,0.1762000024318695
1682999503105056500,16.574056396484377,-0.44209998846054077,-0.12529999017715454,-0.9424999952316284
1682999503125058000,16.59405810546875,-0.2708999812602997,-0.2750999927520752,-1.4498999118804932
1682999503145058000,16.61405810546875,-0.18230000138282776,-0.4664999842643738,-1.5728999376296997
1682999503165056500,16.634056396484375,-0.21689999103546143,-0.7178999781608582,-1.549899935722351
1682999503185058000,16.65405810546875,-0.2369999885559082,-0.7421999573707581,-1.4693999290466309
1682999503205058000,16.67405810546875,-0.17790000140666962,-0.574400007724762,-1.3222999572753906
1682999503225056500,16.694056396484374,-0.15799999237060547,-0.40039998292922974,-1.079200029373169
1682999503245056500,16.714056396484374,-0.11400000005960464,-0.1363999992609024,-0.9442999958992004
1682999503265058000,16.73405810546875,-0.12379999458789825,0.036399997770786285,-1.0235999822616577
1682999503285059600,16.7540595703125,-0.054999999701976776,0.1168999969959259,-1.042099952697754
1682999503305056500,16.774056396484376,0.019999999552965164,0.2320999950170517,-1.0002000331878662
1682999503325056500,16.794056396484375,-0.0738999992609024,0.33570000529289246,-0.9772999882698059
1682999503345058000,16.81405810546875,-0.26260000467300415,0.3691999912261963,-0.9643999934196472
1682999503365058000,16.83405810546875,-0.4675000011920929,0.6085999608039856,-0.9223999977111816
1682999503385058000,16.85405810546875,-0.6405999660491943,0.7884999513626099,-0.6649999618530273
1682999503405058000,16.87405810546875,-0.755899965763092,0.9323999881744385,-0.04559999704360962
1682999503425056500,16.894056396484373,-0.7472999691963196,0.9520999789237976,0.995199978351593
1682999503445058000,16.91405810546875,-0.7181000113487244,1.1345999240875244,1.819700002670288
1682999503465056500,16.934056396484376,-0.7013999819755554,1.2954999208450317,2.222399950027466
1682999503485056500,16.954056396484376,-0.7781999707221985,0.9965999722480774,2.135200023651123
1682999503505056500,16.974056396484375,-0.6024999618530273,0.42319998145103455,1.9899998903274536
1682999503525056500,16.994056396484375,-0.10899999737739563,0.02199999988079071,2.35509991645813
1682999503545056500,17.014056396484374,0.23199999332427979,-0.19820000231266022,3.013000011444092
1682999503565056500,17.034056396484374,0.39259999990463257,-0.10669999569654465,3.2000999450683594
1682999503585056500,17.054056396484373,0.5575999617576599,0.10830000042915344,2.1332998275756836
1682999503605056500,17.074056396484377,0.75,0.2011999934911728,0.5295000076293945
1682999503625056500,17.094056396484376,0.8611999750137329,-0.1664000004529953,0.2578999996185303
1682999503645056500,17.114056396484376,0.8395999670028687,-0.5406999588012695,1.3034999370574951
1682999503665056500,17.134056396484375,0.7304999828338623,-0.8686999678611755,2.6780998706817627
1682999503685056500,17.154056396484375,0.2166999876499176,-1.1065000295639038,2.915299892425537
1682999503705056500,17.174056396484374,-0.05249999836087227,-1.2760999202728271,1.146299958229065
1682999503725056500,17.194056396484374,-0.10809999704360962,-1.1648999452590942,-0.8420999646186829
1682999503745056500,17.214056396484374,-0.11019999533891678,-0.9258999824523926,-2.2776999473571777
1682999503765056500,17.234056396484377,-0.04490000009536743,-0.9887999892234802,-2.682799816131592
1682999503785058000,17.25405810546875,-0.15039999783039093,-1.1931999921798706,-2.02239990234375
1682999503805058000,17.27405810546875,-0.29739999771118164,-1.1789000034332275,-1.5135999917984009
1682999503825056500,17.294056396484375,-0.4830999970436096,-1.0127999782562256,-1.4767999649047852
1682999503845058000,17.31405810546875,-0.6017000079154968,-0.7717999815940857,-1.5673999786376953
1682999503865056500,17.334056396484375,-0.6306999921798706,-0.7996999621391296,-1.3442999124526978
1682999503885058000,17.35405810546875,-0.5442000031471252,-0.7346999645233154,-0.9944999814033508
1682999503905058000,17.37405810546875,-0.45239999890327454,-0.626800000667572,-0.5666999816894531
1682999503925058000,17.39405810546875,-0.4268999993801117,-0.5239999890327454,-0.26659998297691345
1682999503945058000,17.41405810546875,-0.3376999795436859,-0.46609997749328613,-0.28929999470710754
1682999503965058000,17.43405810546875,-0.08229999989271164,-0.33169999718666077,-0.7719999551773071
1682999503985058000,17.45405810546875,0.17409999668598175,-0.23889999091625214,-1.0967999696731567
1682999504005059600,17.4740595703125,0.4470999836921692,-0.13199999928474426,-0.8337999582290649
1682999504025056500,17.494056396484375,0.7737999558448792,-0.032899998128414154,0.07519999891519547
1682999504045058000,17.51405810546875,0.9321999549865723,0.09839999675750732,1.1104999780654907
1682999504065058000,17.53405810546875,1.0185999870300293,0.08329999446868896,2.2812998294830322
1682999504085056500,17.554056396484373,0.8149999976158142,0.17249999940395355,2.9909000396728516
1682999504105056500,17.574056396484377,0.5936999917030334,0.25200000405311584,2.2614998817443848
1682999504125058000,17.59405810546875,0.8545999526977539,0.23199999332427979,1.5170999765396118
1682999504145058000,17.61405810546875,0.7904999852180481,0.3563999831676483,1.6550999879837036
1682999504165058000,17.63405810546875,0.3188999891281128,0.2694999873638153,2.025599956512451
1682999504185058000,17.65405810546875,0.19009999930858612,-0.038599997758865356,1.7798999547958374
1682999504205058000,17.67405810546875,0.17229999601840973,0.20250000059604645,1.2314999103546143
1682999504225056500,17.694056396484374,0.0279999990016222,0.7003999948501587,0.2897999882698059
1682999504245056500,17.714056396484374,0.03199999779462814,0.8514999747276306,-0.7294999957084656
1682999504265058000,17.73405810546875,0.3604999780654907,0.5981999635696411,-1.0019999742507935
1682999504285058000,17.75405810546875,0.44669997692108154,0.24939998984336853,-0.16779999434947968
1682999504305058000,17.77405810546875,0.27809998393058777,-0.09690000116825104,0.967799961566925
1682999504325056500,17.794056396484375,-0.0008999999845400453,-0.5386999845504761,1.7013999223709106
1682999504345058000,17.81405810546875,-0.2719999849796295,-0.8741999864578247,1.1708999872207642
1682999504365058000,17.83405810546875,-0.3814999759197235,-0.9320999979972839,-0.29889997839927673
1682999504385058000,17.85405810546875,-0.4212999939918518,-0.7764999866485596,-1.305999994277954
1682999504405058000,17.87405810546875,-0.5241000056266785,-0.7170000076293945,-1.7928999662399292
1682999504425056500,17.894056396484373,-0.6509000062942505,-0.6424999833106995,-1.6144999265670776
1682999504445058000,17.91405810546875,-0.7797999978065491,-0.5539999604225159,-1.1933000087738037
1682999504465058000,17.93405810546875,-0.6990999579429626,-0.40689998865127563,-1.0281000137329102
1682999504485058000,17.95405810546875,-0.5821999907493591,-0.4072999954223633,-1.156599998474121
1682999504505058000,17.97405810546875,-0.4544000029563904,-0.5267999768257141,-1.5195999145507812
1682999504525056500,17.994056396484375,-0.19029998779296875,-0.5358999967575073,-1.6761000156402588
1682999504545058000,18.01405810546875,0.1492999941110611,-0.3456999957561493,-1.4895999431610107
1682999504565056500,18.034056396484374,0.36059999465942383,-0.1832999885082245,-1.2838000059127808
1682999504585058000,18.05405810546875,0.47999998927116394,0.029199998825788498,-1.1856999397277832
1682999504605058000,18.07405810546875,0.49939998984336853,0.29899999499320984,-0.9205999970436096
1682999504625058000,18.09405810546875,0.262800008058548,0.4449999928474426,-0.6168000102043152
1682999504645058000,18.11405810546875,0.17109999060630798,0.5842999815940857,-0.24399998784065247
1682999504665058000,18.13405810546875,0.04089999943971634,0.6966999769210815,0.3051999807357788
1682999504685058000,18.15405810546875,-0.19259999692440033,0.7303000092506409,0.8442999720573425
1682999504705058000,18.17405810546875,-0.30660000443458557,0.7986999750137329,1.2762999534606934
1682999504725056500,18.194056396484374,-0.26080000400543213,0.895799994468689,1.6801999807357788
1682999504745056500,18.214056396484374,-0.24289999902248383,0.8781999945640564,2.173099994659424
1682999504765058000,18.23405810546875,-0.2069999873638153,0.5259000062942505,2.666299819946289
1682999504785058000,18.25405810546875,-0.24849998950958252,0.2296999990940094,2.7574000358581543
1682999504805058000,18.27405810546875,-0.23979999125003815,0.14989998936653137,2.2806999683380127
1682999504825056500,18.294056396484375,0.015199999324977398,0.10989999771118164,1.6009999513626099
1682999504845058000,18.31405810546875,0.008499999530613422,0.2736999988555908,0.8734999895095825
1682999504865058000,18.33405810546875,-0.10289999842643738,0.2572999894618988,0.12559999525547028
1682999504885058000,18.35405810546875,-0.034299999475479126,0.023599999025464058,-0.07319999486207962
1682999504905061000,18.37406103515625,-0.12919999659061432,-0.47349998354911804,0.6753000020980835
1682999504925059600,18.3940595703125,-0.25859999656677246,-0.6708999872207642,1.621899962425232
1682999504945058000,18.41405810546875,-0.2345999926328659,-0.6653000116348267,1.9674999713897705
1682999504965058000,18.43405810546875,-0.23719999194145203,-0.6347999572753906,1.5404999256134033
1682999504985058000,18.45405810546875,-0.09229999780654907,-0.6265999674797058,0.4902999997138977
1682999505005056500,18.474056396484375,-0.05590000003576279,-0.6771999597549438,-0.606499969959259
1682999505025056500,18.494056396484375,0.09860000014305115,-0.7598999738693237,-1.0855000019073486
1682999505045058000,18.51405810546875,0.09399999678134918,-1.1417999267578125,-1.2319999933242798
1682999505065058000,18.53405810546875,0.054899998009204865,-1.3350999355316162,-1.3899999856948853
1682999505085058000,18.55405810546875,0.02329999953508377,-1.2114999294281006,-1.6272999048233032
1682999505105058000,18.57405810546875,0.03680000081658363,-0.9404000043869019,-1.757200002670288
1682999505125058000,18.59405810546875,-0.01899999938905239,-0.8337999582290649,-1.6624999046325684
1682999505145058000,18.61405810546875,-0.0737999975681305,-0.7534999847412109,-1.284500002861023
1682999505165058000,18.63405810546875,-0.10099999606609344,-0.6599999666213989,-0.8776999711990356
1682999505185058000,18.65405810546875,-0.058799996972084045,-0.5029000043869019,-0.7060999870300293
1682999505205058000,18.67405810546875,0.02290000021457672,-0.42729997634887695,-0.6804999709129333
1682999505225056500,18.694056396484374,0.16679999232292175,-0.24390000104904175,-0.6247000098228455
1682999505245056500,18.714056396484374,0.36640000343322754,-0.09380000084638596,-0.5390999913215637
1682999505265058000,18.73405810546875,0.6233999729156494,-0.09389999508857727,-0.20809999108314514
1682999505285058000,18.75405810546875,0.9068999886512756,-0.10639999806880951,0.7305999994277954
1682999505305058000,18.77405810546875,1.0405999422073364,-0.17839999496936798,1.737299919128418
1682999505325056500,18.794056396484375,1.0202000141143799,-0.3148999810218811,2.5281999111175537
1682999505345058000,18.81405810546875,0.9129999876022339,-0.23729999363422394,2.5648000240325928
1682999505365058000,18.83405810546875,0.9794999957084656,-0.02279999852180481,1.9464999437332153
1682999505385058000,18.85405810546875,1.184499979019165,0.02329999953508377,2.202199935913086
1682999505405058000,18.87405810546875,0.8326999545097351,-0.0885000005364418,2.378200054168701
1682999505425056500,18.894056396484373,0.8139999508857727,-0.47859999537467957,2.074399948120117
1682999505445058000,18.91405810546875,0.8003999590873718,-0.3483999967575073,1.4279999732971191
1682999505465058000,18.93405810546875,0.4453999996185303,0.06749999523162842,0.016200000420212746
1682999505485058000,18.95405810546875,0.45089998841285706,0.284199982881546,-1.305400013923645
1682999505505058000,18.97405810546875,0.4244999885559082,0.17599999904632568,-1.7324999570846558
1682999505525056500,18.994056396484375,0.04959999769926071,-0.16830000281333923,-0.9448999762535095
1682999505545058000,19.01405810546875,-0.48979997634887695,-0.5591999888420105,0.09479999542236328
1682999505565058000,19.03405810546875,-0.6567999720573425,-0.8208999633789062,0.7616999745368958
1682999505585058000,19.05405810546875,-0.6530999541282654,-0.6548999547958374,0.7809999585151672
1682999505605058000,19.07405810546875,-0.536799967288971,-0.1712999939918518,0.32839998602867126
1682999505625058000,19.09405810546875,-0.47079998254776,0.06289999932050705,-0.3296000063419342
1682999505645058000,19.11405810546875,-0.44759997725486755,-0.02759999968111515,-0.9267999529838562
1682999505665058000,19.13405810546875,-0.5069999694824219,-0.1581999957561493,-1.2870999574661255
1682999505685058000,19.15405810546875,-0.43699997663497925,-0.2531000077724457,-1.4412999153137207
1682999505705058000,19.17405810546875,-0.3537999987602234,-0.3107999861240387,-1.3608999252319336
1682999505725056500,19.194056396484374,-0.3773999810218811,-0.34139999747276306,-1.3312000036239624
1682999505745056500,19.214056396484374,-0.3520999848842621,-0.28209999203681946,-1.4297999143600464
1682999505765058000,19.23405810546875,-0.2888999879360199,0.008799999952316284,-1.469599962234497
1682999505785058000,19.25405810546875,-0.16899999976158142,0.21050000190734863,-1.3324999809265137
1682999505805058000,19.27405810546875,-0.13819999992847443,0.3008999824523926,-1.1166999340057373
1682999505825056500,19.294056396484375,-0.15680000185966492,0.3447999954223633,-0.9693999886512756
1682999505845058000,19.31405810546875,-0.06499999761581421,0.4804999828338623,-0.8998000025749207
1682999505865058000,19.33405810546875,0.02159999869763851,0.6107000112533569,-0.7906000018119812
1682999505885056500,19.354056396484374,0.028099998831748962,0.8349999785423279,-0.6428999900817871
1682999505905058000,19.37405810546875,0.06439999490976334,1.0404000282287598,-0.3871999979019165
1682999505925058000,19.39405810546875,0.18609999120235443,1.2249000072479248,0.12349999696016312
1682999505945058000,19.41405810546875,0.3027999997138977,1.3306000232696533,1.006600022315979
1682999505965056500,19.434056396484376,0.2538999915122986,1.386299967765808,1.9479999542236328
1682999505985058000,19.45405810546875,0.20879998803138733,1.3026000261306763,2.869799852371216
1682999506005058000,19.47405810546875,0.19409999251365662,0.9359999895095825,3.684999942779541
1682999506025056500,19.494056396484375,0.24469999969005585,0.28669998049736023,4.207799911499023
1682999506045058000,19.51405810546875,0.07349999994039536,0.0885000005364418,3.995299816131592
1682999506065058000,19.53405810546875,0.06849999725818634,-0.008499999530613422,3.1385998725891113
1682999506085058000,19.55405810546875,-0.15079998970031738,-0.043699998408555984,1.7167999744415283
1682999506105058000,19.57405810546875,-0.413100004196167,-0.24699999392032623,0.051500000059604645
1682999506125058000,19.59405810546875,-0.05719999969005585,-0.7145000100135803,-0.6419000029563904
1682999506145058000,19.61405810546875,-0.010499999858438969,-1.124400019645691,0.25519999861717224
1682999506165058000,19.63405810546875,-0.41509997844696045,-1.4442999362945557,1.6509000062942505
1682999506185058000,19.65405810546875,-0.6887999773025513,-1.7084999084472656,1.955399990081787
1682999506205058000,19.67405810546875,-0.5902999639511108,-1.4781999588012695,0.5708000063896179
1682999506225056500,19.694056396484374,-0.3750999867916107,-1.3233000040054321,-0.9550999999046326
1682999506245056500,19.714056396484374,-0.3797999918460846,-1.0029000043869019,-1.6680999994277954
1682999506265058000,19.73405810546875,-0.12479999661445618,-0.9347999691963196,-1.4428999423980713
1682999506285058000,19.75405810546875,-0.09600000083446503,-1.0917999744415283,-0.906499981880188
1682999506305058000,19.77405810546875,-0.11299999803304672,-0.94159996509552,-0.9484999775886536
1682999506325056500,19.794056396484375,-0.2655999958515167,-0.5232999920845032,-1.469499945640564
1682999506345058000,19.81405810546875,-0.2928999960422516,-0.28139999508857727,-1.921199917793274
1682999506365059600,19.8340595703125,-0.32339999079704285,-0.25540000200271606,-1.854200005531311
1682999506385058000,19.85405810546875,-0.24859999120235443,-0.34450000524520874,-1.4356999397277832
1682999506405058000,19.87405810546875,-0.08429999649524689,-0.23849999904632568,-0.7040999531745911
1682999506425058000,19.89405810546875,0.13120000064373016,0.002199999988079071,-0.22739998996257782
1682999506445058000,19.91405810546875,0.2013999968767166,0.1412999927997589,-0.18150000274181366
1682999506465058000,19.93405810546875,0.25929999351501465,0.1582999974489212,-0.3604999780654907
1682999506485058000,19.95405810546875,0.3310999870300293,0.1996999979019165,-0.48019999265670776
1682999506505058000,19.97405810546875,0.5178999900817871,0.2069999873638153,-0.19739998877048492
1682999506525056500,19.994056396484375,0.6887999773025513,0.14980000257492065,0.46769997477531433
1682999506545058000,20.01405810546875,0.8310999870300293,0.12839999794960022,1.2202999591827393
1682999506565058000,20.03405810546875,0.9413999915122986,-0.010900000110268593,1.9812999963760376
1682999506585058000,20.05405810546875,0.8741999864578247,-0.3009999990463257,2.5062999725341797
1682999506605058000,20.07405810546875,0.7032999992370605,-0.3968999981880188,2.2482998371124268
1682999506625058000,20.09405810546875,0.7950999736785889,-0.5142999887466431,2.09089994430542
1682999506645058000,20.11405810546875,0.8669999837875366,-0.4869000017642975,2.3153998851776123
1682999506665056500,20.134056396484375,0.7913999557495117,-0.35989999771118164,2.0866000652313232
1682999506685058000,20.15405810546875,0.8139999508857727,-0.22179999947547913,1.1345000267028809
1682999506705058000,20.17405810546875,0.6442999839782715,0.10989999771118164,-0.2954999804496765
1682999506725056500,20.194056396484374,0.6502999663352966,0.30469998717308044,-1.4584999084472656
1682999506745056500,20.214056396484374,0.699400007724762,-0.010599999688565731,-1.5999000072479248
1682999506765058000,20.23405810546875,0.6385999917984009,-0.44419997930526733,-0.4398999810218811
1682999506785058000,20.25405810546875,0.5119999647140503,-0.9185999631881714,1.048799991607666
1682999506805058000,20.27405810546875,0.27559998631477356,-1.2352999448776245,1.9966999292373657
1682999506825056500,20.294056396484375,-0.013599999248981476,-1.1783000230789185,1.5835999250411987
1682999506845058000,20.31405810546875,-0.03680000081658363,-0.8258999586105347,0.3212999999523163
1682999506865058000,20.33405810546875,-0.1712999939918518,-0.38089999556541443,-0.6647999882698059
1682999506885058000,20.35405810546875,-0.3610999882221222,-0.26159998774528503,-1.2585999965667725
1682999506905058000,20.37405810546875,-0.5990999937057495,-0.4138999879360199,-1.5583000183105469
1682999506925058000,20.39405810546875,-0.7228999733924866,-0.5331999659538269,-1.7702000141143799
1682999506945058000,20.41405810546875,-0.6886999607086182,-0.5259000062942505,-1.983199954032898
1682999506965058000,20.43405810546875,-0.5917999744415283,-0.4505999982357025,-2.1484999656677246
1682999506985058000,20.45405810546875,-0.4553000032901764,-0.39419999718666077,-2.1287999153137207
1682999507005058000,20.47405810546875,-0.5289999842643738,-0.5218999981880188,-1.9334999322891235
1682999507025056500,20.494056396484375,-0.555400013923645,-0.49789997935295105,-1.5626999139785767
1682999507045058000,20.51405810546875,-0.36820000410079956,-0.17899999022483826,-1.0662000179290771
1682999507065058000,20.53405810546875,-0.2328999936580658,0.06430000066757202,-0.8355000019073486
1682999507085058000,20.55405810546875,-0.3358999788761139,0.28279998898506165,-0.722599983215332
1682999507105058000,20.57405810546875,-0.47269999980926514,0.5324999690055847,-0.6175999641418457
1682999507125058000,20.59405810546875,-0.4462999999523163,0.9702999591827393,-0.32409998774528503
1682999507145058000,20.61405810546875,-0.38509997725486755,1.0997999906539917,0.527999997138977
1682999507165058000,20.63405810546875,-0.33319997787475586,1.0398999452590942,1.3198999166488647
1682999507185061000,20.65406103515625,-0.1559000015258789,0.9328999519348145,1.7000999450683594
1682999507205059600,20.6740595703125,0.07400000095367432,0.9474999904632568,1.5621999502182007
1682999507225056500,20.694056396484374,0.2854999899864197,1.0169999599456787,1.4357999563217163
1682999507245056500,20.714056396484374,0.44929999113082886,0.7464999556541443,1.5656999349594116
1682999507265058000,20.73405810546875,0.6771000027656555,0.3046000003814697,2.039099931716919
1682999507285058000,20.75405810546875,0.7834999561309814,0.10819999873638153,2.5414998531341553
1682999507305058000,20.77405810546875,0.43639999628067017,0.047199998050928116,2.6308999061584473
1682999507325056500,20.794056396484375,0.30300000309944153,-0.11249999701976776,1.9474999904632568
1682999507345059600,20.8140595703125,0.26589998602867126,0.04339999705553055,1.0607999563217163
1682999507365056500,20.834056396484375,-0.16939999163150787,0.08269999921321869,0.0072999997064471245
1682999507385058000,20.85405810546875,-0.3212999999523163,-0.21319998800754547,-0.3391999900341034
1682999507405058000,20.87405810546875,-0.3344999849796295,-0.6729999780654907,0.40199998021125793
1682999507425056500,20.894056396484373,-0.11329999566078186,-0.9281999468803406,1.9914000034332275
1682999507445058000,20.91405810546875,-0.37939998507499695,-0.9430999755859375,3.0346999168395996
1682999507465058000,20.93405810546875,-0.6517999768257141,-1.0194000005722046,2.723299980163574
1682999507485058000,20.95405810546875,-0.3895999789237976,-1.1305999755859375,0.7321000099182129
1682999507505058000,20.97405810546875,-0.28279998898506165,-0.9790999889373779,-0.8514999747276306
1682999507525056500,20.994056396484375,-0.11389999836683273,-1.0408999919891357,-1.8645999431610107
1682999507545058000,21.01405810546875,-0.003599999938160181,-1.034500002861023,-2.3287999629974365
1682999507565058000,21.03405810546875,-0.014399999752640724,-1.1080999374389648,-2.2562999725341797
1682999507585059600,21.0540595703125,-0.060999996960163116,-1.0770000219345093,-1.931399941444397
1682999507605059600,21.0740595703125,-0.049300000071525574,-0.7662999629974365,-1.6871999502182007
1682999507625058000,21.09405810546875,-0.02669999934732914,-0.4893999993801117,-1.3662999868392944
1682999507645058000,21.11405810546875,-0.07149999588727951,-0.3141999840736389,-1.0271999835968018
1682999507665058000,21.13405810546875,-0.23119999468326569,-0.2231999933719635,-0.6500999927520752
1682999507685058000,21.15405810546875,-0.22519999742507935,-0.061400000005960464,-0.2920999825000763
1682999507705058000,21.17405810546875,-0.07229999452829361,0.1859000027179718,0.03779999911785126
1682999507725056500,21.194056396484374,0.05289999768137932,0.28459998965263367,0.2215999960899353
1682999507745056500,21.214056396484374,0.14909999072551727,0.21769998967647552,0.26909998059272766
1682999507765058000,21.23405810546875,0.24379999935626984,0.21789999306201935,0.20960000157356262
1682999507785058000,21.25405810546875,0.4129999876022339,0.18019999563694,0.33660000562667847
1682999507805058000,21.27405810546875,0.5509999990463257,0.1516999900341034,0.7669000029563904
1682999507825056500,21.294056396484375,0.6665999889373779,-0.012899999506771564,1.1964999437332153
1682999507845058000,21.31405810546875,0.7569999694824219,-0.15919999778270721,1.4785999059677124
1682999507865058000,21.33405810546875,0.8246999979019165,-0.11879999935626984,1.378600001335144
1682999507885058000,21.35405810546875,0.7218999862670898,-0.29760000109672546,0.9855999946594238
1682999507905058000,21.37405810546875,0.4658999741077423,-0.46859997510910034,1.2698999643325806
1682999507925058000,21.39405810546875,-0.008200000040233135,-0.29989999532699585,1.522499918937683
1682999507945058000,21.41405810546875,-0.21079999208450317,0.04050000011920929,1.284500002861023
1682999507965058000,21.43405810546875,-0.25939998030662537,0.06889999657869339,0.920699954032898
1682999507985058000,21.45405810546875,-0.3935999870300293,0.025699999183416367,0.46799999475479126
1682999508005058000,21.47405810546875,-0.020099999383091927,-0.17219999432563782,0.1224999949336052
1682999508025056500,21.494056396484375,0.649899959564209,-0.4113999903202057,0.13189999759197235
1682999508045058000,21.51405810546875,1.1342999935150146,-0.5378999710083008,0.22139999270439148
1682999508065058000,21.53405810546875,1.180999994277954,-0.7423999905586243,0.3409999907016754
1682999508085059600,21.5540595703125,0.9890999794006348,-1.0561000108718872,0.608299970626831
1682999508105059600,21.5740595703125,0.5949000120162964,-0.7286999821662903,0.3955000042915344
1682999508125058000,21.59405810546875,0.19919998943805695,-0.35189998149871826,-0.07409999519586563
1682999508145056500,21.614056396484376,-0.06759999692440033,-0.32099997997283936,-0.5625999569892883
1682999508165056500,21.634056396484375,-0.5690000057220459,-0.2955999970436096,-0.9039999842643738
1682999508185056500,21.654056396484375,-0.9210000038146973,-0.32749998569488525,-1.1374999284744263
1682999508205058000,21.67405810546875,-1.0656999349594116,-0.3098999857902527,-1.2728999853134155
1682999508225056500,21.694056396484374,-1.0994999408721924,-0.23579999804496765,-1.301800012588501
1682999508245056500,21.714056396484374,-0.9972999691963196,-0.19370000064373016,-1.2138999700546265
1682999508265058000,21.73405810546875,-0.6103000044822693,-0.1348000019788742,-1.145799994468689
1682999508285059600,21.7540595703125,-0.2563000023365021,-0.046799998730421066,-0.9988999962806702
1682999508305059600,21.7740595703125,-0.0032999999821186066,0.14429999887943268,-0.9104999899864197
1682999508325059600,21.7940595703125,0.06780000030994415,0.3296000063419342,-0.7529000043869019
1682999508345058000,21.81405810546875,-0.08799999952316284,0.38749998807907104,-0.7028999924659729
1682999508365058000,21.83405810546875,-0.3317999839782715,0.4276999831199646,-0.8587999939918518
1682999508385058000,21.85405810546875,-0.5250999927520752,0.5622999668121338,-1.0541999340057373
1682999508405059600,21.8740595703125,-0.6850000023841858,0.6972000002861023,-1.0930999517440796
1682999508425058000,21.89405810546875,-0.7129999995231628,0.9095999598503113,-0.7990999817848206
1682999508445058000,21.91405810546875,-0.6780999898910522,0.942799985408783,-0.1915999948978424
1682999508465058000,21.93405810546875,-0.6376000046730042,0.7365999817848206,0.4936999976634979
1682999508485058000,21.95405810546875,-0.3621000051498413,0.5515999794006348,1.0221999883651733
1682999508505058000,21.97405810546875,0.03480000048875809,0.444599986076355,1.6495000123977661
1682999508525056500,21.994056396484375,0.19929999113082886,0.3621000051498413,2.060699939727783
1682999508545058000,22.01405810546875,0.5356999635696411,0.18609999120235443,2.609799861907959
1682999508565058000,22.03405810546875,0.5972999930381775,0.00559999980032444,3.148200035095215
1682999508585058000,22.05405810546875,0.3974999785423279,-0.08669999986886978,3.184000015258789
1682999508605058000,22.07405810546875,0.45899999141693115,-0.17409999668598175,2.760200023651123
1682999508625058000,22.09405810546875,0.5133000016212463,-0.019199999049305916,1.8779999017715454
1682999508645058000,22.11405810546875,0.2654999792575836,-0.08219999819993973,0.7522000074386597
1682999508665058000,22.13405810546875,0.07109999656677246,-0.3659999966621399,0.10729999840259552
1682999508685056500,22.154056396484375,0.032999999821186066,-0.7487999796867371,0.4617999792098999
1682999508705058000,22.17405810546875,-0.08899999409914017,-0.9660999774932861,1.2839000225067139
1682999508725056500,22.194056396484374,-0.20009998977184296,-1.0358999967575073,1.5353999137878418
1682999508745056500,22.214056396484374,-0.21869999170303345,-0.9564999938011169,0.5733000040054321
1682999508765058000,22.23405810546875,-0.13609999418258667,-0.9409999847412109,-0.37539997696876526
1682999508785058000,22.25405810546875,-0.18209999799728394,-0.8889999985694885,-0.7073000073432922
1682999508805058000,22.27405810546875,-0.2547999918460846,-0.848800003528595,-0.6685999631881714
1682999508825059600,22.2940595703125,-0.3630000054836273,-0.9127999544143677,-0.590999960899353
1682999508845061000,22.31406103515625,-0.42170000076293945,-0.7450999617576599,-0.9144999980926514
1682999508865058000,22.33405810546875,-0.48799997568130493,-0.6207000017166138,-1.3256999254226685
1682999508885058000,22.35405810546875,-0.44359999895095825,-0.6190999746322632,-1.6381999254226685
1682999508905059600,22.3740595703125,-0.3033999800682068,-0.7330999970436096,-1.6757999658584595
1682999508925058000,22.39405810546875,-0.16979999840259552,-0.7247999906539917,-1.2537000179290771
1682999508945058000,22.41405810546875,-0.06459999829530716,-0.6196999549865723,-0.5688999891281128
1682999508965058000,22.43405810546875,0.056699998676776886,-0.49939998984336853,-0.29649999737739563
1682999508985058000,22.45405810546875,0.14019998908042908,-0.5482999682426453,-0.5234000086784363
1682999509005058000,22.47405810546875,0.32339999079704285,-0.42170000076293945,-0.8181999921798706
1682999509025056500,22.494056396484375,0.5083999633789062,-0.040699999779462814,-0.49539998173713684
1682999509045058000,22.51405810546875,0.5964999794960022,0.16200000047683716,0.1403999924659729
1682999509065058000,22.53405810546875,0.702299952507019,0.11389999836683273,0.854200005531311
1682999509085058000,22.55405810546875,0.7299999594688416,0.09149999916553497,1.4886000156402588
1682999509105058000,22.57405810546875,0.7050999999046326,0.15680000185966492,1.8184999227523804
1682999509125058000,22.59405810546875,0.6527000069618225,0.21930000185966492,1.8744999170303345
1682999509145058000,22.61405810546875,0.486299991607666,0.2759000062942505,1.5394999980926514
1682999509165059600,22.6340595703125,0.36879998445510864,0.034299999475479126,1.6267999410629272
1682999509185056500,22.654056396484375,0.15150000154972076,-0.1605999916791916,2.0462000370025635
1682999509205058000,22.67405810546875,0.10089999437332153,-0.04999999701976776,1.8565999269485474
1682999509225059600,22.6940595703125,0.16609999537467957,-0.10920000076293945,1.365299940109253
1682999509245056500,22.714056396484374,-0.009399999864399433,0.13750000298023224,0.4138999879360199
1682999509265058000,22.73405810546875,0.006399999838322401,0.4851999878883362,-0.6837999820709229
1682999509285058000,22.75405810546875,0.4306999742984772,0.34610000252723694,-0.9946999549865723
1682999509305058000,22.77405810546875,0.4958999752998352,-0.14239999651908875,-0.11059999465942383
1682999509325056500,22.794056396484375,0.2717999815940857,-0.6140999794006348,0.7597999572753906
1682999509345058000,22.81405810546875,0.3093000054359436,-1.0404000282287598,0.81659996509552
1682999509365058000,22.83405810546875,0.2890999913215637,-0.9720999598503113,0.03280000016093254
1682999509385058000,22.85405810546875,0.25040000677108765,-0.6758999824523926,-0.7488999962806702
1682999509405058000,22.87405810546875,-0.022499999031424522,-0.4453999996185303,-1.1480000019073486
1682999509425056500,22.894056396484373,-0.5062999725341797,-0.4562999904155731,-1.1854000091552734
1682999509445058000,22.91405810546875,-0.8203999996185303,-0.3628999888896942,-0.9483999609947205
1682999509465056500,22.934056396484376,-1.2138999700546265,-0.21879999339580536,-0.917199969291687
1682999509485058000,22.95405810546875,-1.3212000131607056,-0.16539999842643738,-1.1898999214172363
1682999509505059600,22.9740595703125,-1.0963000059127808,0.009800000116229057,-1.4721999168395996
1682999509525056500,22.994056396484375,-0.8295999765396118,0.16249999403953552,-1.4220999479293823
1682999509545058000,23.01405810546875,-0.6104999780654907,0.10779999941587448,-1.0497000217437744
1682999509565058000,23.03405810546875,-0.3005000054836273,0.0031999999191612005,-0.8337999582290649
1682999509585056500,23.054056396484373,-0.06439999490976334,0.033900000154972076,-0.842199981212616
1682999509605056500,23.074056396484377,0.06989999860525131,0.19179999828338623,-0.9384999871253967
1682999509625058000,23.09405810546875,0.0989999994635582,0.26669999957084656,-0.9759999513626099
1682999509645058000,23.11405810546875,0.02979999966919422,0.37599998712539673,-1.0625
1682999509665058000,23.13405810546875,-0.12889999151229858,0.4430999755859375,-0.9819999933242798
1682999509685056500,23.154056396484375,-0.40199998021125793,0.5899999737739563,-0.5879999995231628
1682999509705058000,23.17405810546875,-0.6421999931335449,0.7121999859809875,-0.007999999448657036
1682999509725056500,23.194056396484374,-0.6933000087738037,0.7482999563217163,0.48339998722076416
1682999509745059600,23.2140595703125,-0.6083999872207642,0.8414999842643738,1.0425999164581299
1682999509765059600,23.2340595703125,-0.45909997820854187,0.8932999968528748,1.6405999660491943
1682999509785058000,23.25405810546875,-0.3625999987125397,0.84579998254776,2.3076000213623047
1682999509805058000,23.27405810546875,-0.25859999656677246,0.6872999668121338,2.936699867248535
1682999509825056500,23.294056396484375,-0.11580000072717667,0.36489999294281006,3.4687998294830322
1682999509845058000,23.31405810546875,0.023099999874830246,0.25459998846054077,3.481599807739258
1682999509865058000,23.33405810546875,0.25679999589920044,-0.026599999517202377,3.300999879837036
1682999509885058000,23.35405810546875,0.1744999885559082,-0.24159999191761017,2.6710000038146973
1682999509905058000,23.37405810546875,-0.17389999330043793,0.03659999743103981,0.9825999736785889
1682999509925056500,23.394056396484373,-0.29819998145103455,0.28119999170303345,-0.7599999904632568
1682999509945056500,23.414056396484376,-0.11789999902248383,-0.07899999618530273,-1.3500999212265015
1682999509965056500,23.434056396484376,-0.2667999863624573,-0.8109999895095825,-0.5169000029563904
1682999509985059600,23.4540595703125,-0.5791999697685242,-0.9505999684333801,0.8384000062942505
1682999510005059600,23.4740595703125,-0.6211999654769897,-1.070599913597107,1.4043999910354614
1682999510025059600,23.4940595703125,-0.29269999265670776,-1.1572999954223633,0.652899980545044
1682999510045058000,23.51405810546875,-0.12439999729394913,-1.0806000232696533,-0.25040000677108765
1682999510065058000,23.53405810546875,-0.052799999713897705,-0.9541999697685242,-0.8201999664306641
1682999510085056500,23.554056396484373,0.28679999709129333,-0.9475999474525452,-0.8208000063896179
1682999510105058000,23.57405810546875,0.2655999958515167,-0.8629999756813049,-0.8406999707221985
1682999510125058000,23.59405810546875,0.12449999898672104,-0.8700999617576599,-0.8895999789237976
1682999510145058000,23.61405810546875,0.0010999999940395355,-0.7662000060081482,-1.212499976158142
1682999510165059600,23.6340595703125,-0.016699999570846558,-0.6204000115394592,-1.3203999996185303
1682999510185059600,23.6540595703125,0.01769999973475933,-0.5663999915122986,-1.2436000108718872
1682999510205058000,23.67405810546875,0.042799998074769974,-0.5051000118255615,-0.9329999685287476
1682999510225056500,23.694056396484374,0.001500000013038516,-0.4219000041484833,-0.5446000099182129
1682999510245059600,23.7140595703125,0.006899999920278788,-0.1793999969959259,-0.3912999927997589
1682999510265059600,23.7340595703125,0.045899998396635056,0.02149999886751175,-0.63919997215271
1682999510285058000,23.75405810546875,0.17649999260902405,0.1274999976158142,-0.7487999796867371
1682999510305058000,23.77405810546875,0.28439998626708984,0.25450000166893005,-0.4375999867916107
1682999510325056500,23.794056396484375,0.42559999227523804,0.28209999203681946,0.21519999206066132
1682999510345058000,23.81405810546875,0.5566999912261963,0.18310000002384186,0.9063999652862549
1682999510365058000,23.83405810546875,0.5613999962806702,0.056199997663497925,1.4495999813079834
1682999510385056500,23.854056396484374,0.6549999713897705,0.11449999362230301,1.9047999382019043
1682999510405058000,23.87405810546875,0.5523999929428101,0.23510000109672546,1.8806999921798706
1682999510425058000,23.89405810546875,0.33550000190734863,0.12399999797344208,1.4767999649047852
1682999510445056500,23.914056396484376,0.28110000491142273,-0.23899999260902405,1.8489999771118164
1682999510465056500,23.934056396484376,0.05570000037550926,-0.2945999801158905,2.4238998889923096
1682999510485058000,23.95405810546875,0.13840000331401825,-0.34119999408721924,2.6937999725341797
1682999510505058000,23.97405810546875,0.22499999403953552,-0.27549999952316284,2.219899892807007
1682999510525056500,23.994056396484375,0.32510000467300415,0.16619999706745148,0.48240000009536743
1682999510545058000,24.01405810546875,0.46219998598098755,0.10089999437332153,-1.20169997215271
1682999510565058000,24.03405810546875,0.5097000002861023,-0.0949999988079071,-1.8621999025344849
1682999510585058000,24.05405810546875,0.5275999903678894,-0.4461999833583832,-0.984499990940094
1682999510605058000,24.07405810546875,0.26600000262260437,-0.6442999839782715,0.35850000381469727
1682999510625058000,24.09405810546875,-0.032999999821186066,-0.8682000041007996,1.0707999467849731
1682999510645058000,24.11405810546875,-0.10849999636411667,-0.8453999757766724,0.7646999955177307
1682999510665058000,24.13405810546875,-0.1467999964952469,-0.5178999900817871,-0.3432999849319458
1682999510685056500,24.154056396484375,-0.30469998717308044,-0.12139999866485596,-1.2146999835968018
1682999510705058000,24.17405810546875,-0.5292999744415283,0.03759999945759773,-1.59499990940094
1682999510725056500,24.194056396484374,-0.777999997138977,-0.01939999870955944,-1.4652999639511108
1682999510745056500,24.214056396484374,-0.8536999821662903,-0.11539999395608902,-1.2776999473571777
1682999510765058000,24.23405810546875,-0.7149999737739563,-0.08419999480247498,-1.2378000020980835
1682999510785058000,24.25405810546875,-0.5591999888420105,-0.06579999625682831,-1.4336999654769897
1682999510805058000,24.27405810546875,-0.3671000003814697,-0.07609999924898148,-1.6193000078201294
1682999510825056500,24.294056396484375,-0.16189999878406525,0.07539999485015869,-1.5789999961853027
1682999510845058000,24.31405810546875,0.03799999877810478,0.2101999968290329,-1.25409996509552
1682999510865056500,24.334056396484375,0.06619999557733536,0.3174999952316284,-0.8697999715805054
1682999510885058000,24.35405810546875,0.007699999958276749,0.3919000029563904,-0.5443999767303467
1682999510905058000,24.37405810546875,-0.11479999870061874,0.38749998807907104,-0.3174999952316284
1682999510925056500,24.394056396484373,-0.2638999819755554,0.38339999318122864,-0.3455999791622162
1682999510945056500,24.414056396484376,-0.32919999957084656,0.47429999709129333,-0.44200000166893005
1682999510965056500,24.434056396484376,-0.2636999785900116,0.5796999931335449,-0.34139999747276306
1682999510985058000,24.45405810546875,-0.18679998815059662,0.58160001039505,0.1412999927997589
1682999511005058000,24.47405810546875,-0.010199999436736107,0.6335999965667725,1.0543999671936035
1682999511025056500,24.494056396484375,0.06920000165700912,0.7249999642372131,2.0058000087738037
1682999511045058000,24.51405810546875,0.015099999494850636,0.7202999591827393,2.603799819946289
1682999511065058000,24.53405810546875,0.0023999998811632395,0.4529999792575836,2.9388999938964844
1682999511085056500,24.554056396484373,0.03240000084042549,0.08999999612569809,2.766700029373169
1682999511105058000,24.57405810546875,-0.06579999625682831,0.07609999924898148,2.2035999298095703
1682999511125058000,24.59405810546875,0.03619999811053276,0.07090000063180923,1.6625999212265015
1682999511145059600,24.6140595703125,0.03999999910593033,0.07259999960660934,1.1628999710083008
1682999511165059600,24.6340595703125,-0.053199999034404755,0.05329999700188637,0.5837000012397766
1682999511185056500,24.654056396484375,0.0737999975681305,-0.0037999998312443495,0.5127999782562256
1682999511205058000,24.67405810546875,0.1046999990940094,-0.16019999980926514,1.417699933052063
1682999511225056500,24.694056396484374,0.002300000051036477,-0.32889997959136963,2.306299924850464
1682999511245056500,24.714056396484374,-0.09969999641180038,-0.6103999614715576,2.3892998695373535
