time,seconds_elapsed,z,y,x
1682999486565056500,0.034056396484375,2.241799831390381,-0.2574999928474426,9.543399810791016
1682999486585056500,0.054056396484375,2.241799831390381,-0.2574999928474426,9.543399810791016
1682999486605062700,0.074062744140625,2.241799831390381,-0.2574999928474426,9.543399810791016
1682999486625058000,0.09405810546875,1.372399926185608,-1.4115999937057495,9.606900215148926
1682999486645058000,0.11405810546875,1.3707000017166138,-1.416700005531311,9.606399536132812
1682999486665058000,0.13405810546875,1.368299961090088,-1.4200999736785889,9.606200218200684
1682999486685058000,0.15405810546875,1.3717999458312988,-1.4254999160766602,9.604999542236328
1682999486705058000,0.17405810546875,1.3809999227523804,-1.4296000003814697,9.602999687194824
1682999486725056500,0.194056396484375,1.4143999814987183,-1.4316999912261963,9.597899436950684
1682999486745056500,0.214056396484375,1.4794999361038208,-1.4149999618530273,9.590499877929688
1682999486765058000,0.23405810546875,1.5475999116897583,-1.3213999271392822,9.593099594116211
1682999486785056500,0.254056396484375,1.5293999910354614,-1.3519999980926514,9.59179973602295
1682999486805059600,0.2740595703125,1.5379999876022339,-1.2983999252319336,9.597799301147461
1682999486825058000,0.29405810546875,1.5342999696731567,-1.2567999362945557,9.603899955749512
1682999486845058000,0.31405810546875,1.528499960899353,-1.2120999097824097,9.610599517822266
1682999486865058000,0.33405810546875,1.5341999530792236,-1.156599998474121,9.616499900817871
1682999486885056500,0.354056396484375,1.5443999767303467,-1.1256999969482422,9.618599891662598
1682999486905058000,0.37405810546875,1.5514999628067017,-1.1126999855041504,9.61889934539795
1682999486925056500,0.394056396484375,1.5512999296188354,-1.1007999181747437,9.620299339294434
1682999486945058000,0.41405810546875,1.5501999855041504,-1.0758999586105347,9.623299598693848
1682999486965058000,0.43405810546875,1.567699909210205,-1.0627999305725098,9.621899604797363
1682999486985058000,0.45405810546875,1.5956000089645386,-1.0382000207901,9.619999885559082
1682999487005056500,0.474056396484375,1.6358999013900757,-1.0017999410629272,9.61709976196289
1682999487025056500,0.494056396484375,1.7015999555587769,-0.9637999534606934,9.609600067138672
1682999487045058000,0.51405810546875,1.7706999778747559,-0.9203999638557434,9.601399421691895
1682999487065056500,0.534056396484375,1.7898999452590942,-0.892799973487854,9.6003999710083
1682999487085058000,0.55405810546875,1.7940999269485474,-0.8754000067710876,9.601299285888672
1682999487105058000,0.57405810546875,1.7908999919891357,-0.8532999753952026,9.603799819946289
1682999487125058000,0.59405810546875,1.7706999778747559,-0.8147000074386597,9.610899925231934
1682999487145058000,0.61405810546875,1.7378000020980835,-0.76419997215271,9.621099472045898
1682999487165058000,0.63405810546875,1.7030999660491943,-0.713699996471405,9.631199836730957
1682999487185058000,0.65405810546875,1.6723999977111816,-0.6776999831199646,9.639100074768066
1682999487205058000,0.67405810546875,1.6288999319076538,-0.6658999919891357,9.64739990234375
1682999487225058000,0.69405810546875,1.5881999731063843,-0.6796000003814697,9.653200149536133
1682999487245056500,0.714056396484375,1.5550999641418457,-0.7056999802589417,9.656700134277344
1682999487265058000,0.73405810546875,1.503000020980835,-0.7293999791145325,9.663199424743652
1682999487285058000,0.75405810546875,1.4400999546051025,-0.7498999834060669,9.671199798583984
1682999487305058000,0.77405810546875,1.3880000114440918,-0.7555999755859375,9.678400039672852
1682999487325058000,0.79405810546875,1.3363999128341675,-0.7322999835014343,9.6875
1682999487345058000,0.81405810546875,1.2960000038146973,-0.6786999702453613,9.6968994140625
1682999487365058000,0.83405810546875,1.2738999128341675,-0.6047999858856201,9.704699516296387
1682999487385058000,0.85405810546875,1.2630000114440918,-0.5268999934196472,9.710599899291992
1682999487405058000,0.87405810546875,1.2549999952316284,-0.4617999792098999,9.71500015258789
1682999487425056500,0.894056396484375,1.2608000040054321,-0.42659997940063477,9.715799331665039
1682999487445058000,0.91405810546875,1.2840999364852905,-0.4253999888896942,9.712800025939941
1682999487465058000,0.93405810546875,1.313599944114685,-0.43309998512268066,9.708600044250488
1682999487485058000,0.95405810546875,1.3571999073028564,-0.44529998302459717,9.70199966430664
1682999487505058000,0.97405810546875,1.3953999280929565,-0.4578000009059906,9.696000099182129
1682999487525056500,0.994056396484375,1.4169999361038208,-0.4602999985218048,9.69279956817627
1682999487545058000,1.01405810546875,1.444700002670288,-0.4359999895095825,9.689799308776855
1682999487565058000,1.03405810546875,1.4722999334335327,-0.39640000462532043,9.687299728393555
1682999487585058000,1.05405810546875,1.500100016593933,-0.35519999265670776,9.684700012207031
1682999487605058000,1.07405810546875,1.5281999111175537,-0.3107999861240387,9.68179988861084
1682999487625058000,1.09405810546875,1.5404999256134033,-0.2733999788761139,9.680999755859375
1682999487645058000,1.11405810546875,1.5475000143051147,-0.23799999058246613,9.68079948425293
1682999487665058000,1.13405810546875,1.5649999380111694,-0.203699991106987,9.678799629211426
1682999487685058000,1.15405810546875,1.5788999795913696,-0.15879999101161957,9.677399635314941
1682999487705058000,1.17405810546875,1.5901999473571777,-0.09919999539852142,9.676300048828125
1682999487725058000,1.19405810546875,1.607100009918213,-0.033399999141693115,9.67389965057373
1682999487745056500,1.214056396484375,1.621999979019165,0.024699999019503593,9.671500205993652
1682999487765058000,1.23405810546875,1.6160999536514282,0.05119999870657921,9.672399520874023
1682999487785059600,1.2540595703125,1.576200008392334,0.04910000041127205,9.678999900817871
1682999487805059600,1.2740595703125,1.5374999046325684,0.04360000044107437,9.685199737548828
1682999487825059600,1.2940595703125,1.5037999153137207,0.06949999928474426,9.690400123596191
1682999487845059600,1.3140595703125,1.455399990081787,0.13159999251365662,9.697099685668945
1682999487865058000,1.33405810546875,1.4172999858856201,0.19859999418258667,9.701600074768066
1682999487885058000,1.35405810546875,1.3956999778747559,0.25,9.703499794006348
1682999487905058000,1.37405810546875,1.3805999755859375,0.28919997811317444,9.704599380493164
1682999487925056500,1.394056396484375,1.372499942779541,0.3236999809741974,9.704699516296387
1682999487945058000,1.41405810546875,1.368299961090088,0.3610000014305115,9.703999519348145
1682999487965058000,1.43405810546875,1.3622000217437744,0.4016999900341034,9.70319938659668
1682999487985058000,1.45405810546875,1.3424999713897705,0.4404999911785126,9.704299926757812
1682999488005058000,1.47405810546875,1.3115999698638916,0.4697999954223633,9.707099914550781
1682999488025059600,1.4940595703125,1.2740999460220337,0.48819997906684875,9.711199760437012
1682999488045058000,1.51405810546875,1.2451000213623047,0.49480000138282776,9.714599609375
1682999488065058000,1.53405810546875,1.2171000242233276,0.49049997329711914,9.718400001525879
1682999488085058000,1.55405810546875,1.1902999877929688,0.4788999855518341,9.722299575805664
1682999488105058000,1.57405810546875,1.167199969291687,0.4633999764919281,9.725899696350098
1682999488125058000,1.59405810546875,1.1513999700546265,0.4453999996185303,9.728599548339844
1682999488145058000,1.61405810546875,1.1453999280929565,0.42649999260902405,9.73009967803955
1682999488165058000,1.63405810546875,1.1406999826431274,0.40369999408721924,9.73169994354248
1682999488185058000,1.65405810546875,1.1309999227523804,0.3790999948978424,9.733799934387207
1682999488205058000,1.67405810546875,1.1110999584197998,0.3538999855518341,9.73699951171875
1682999488225056500,1.694056396484375,1.0895999670028687,0.33899998664855957,9.739999771118164
1682999488245056500,1.714056396484375,1.0815999507904053,0.3384999930858612,9.740900039672852
1682999488265058000,1.73405810546875,1.0877000093460083,0.3361999988555908,9.740300178527832
1682999488285058000,1.75405810546875,1.0805000066757202,0.3317999839782715,9.741199493408203
1682999488305058000,1.77405810546875,1.0555000305175781,0.3312000036239624,9.743999481201172
1682999488325058000,1.79405810546875,1.0475000143051147,0.3472999930381775,9.74429988861084
1682999488345058000,1.81405810546875,1.0713000297546387,0.3750999867916107,9.740699768066406
1682999488365058000,1.83405810546875,1.1374999284744263,0.3928000032901764,9.732500076293945
1682999488385056500,1.854056396484375,1.2243000268936157,0.37939998507499695,9.72249984741211
1682999488405058000,1.87405810546875,1.2865999937057495,0.33329999446868896,9.716099739074707
1682999488425056500,1.894056396484375,1.323199987411499,0.2825999855995178,9.712800025939941
1682999488445058000,1.91405810546875,1.3535000085830688,0.2653000056743622,9.709099769592285
1682999488465058000,1.93405810546875,1.3460999727249146,0.2807999849319458,9.709699630737305
1682999488485058000,1.95405810546875,1.2795000076293945,0.2919999957084656,9.718400001525879
1682999488505058000,1.97405810546875,1.186900019645691,0.27489998936653137,9.730599403381348
1682999488525056500,1.994056396484375,1.1193000078201294,0.2505999803543091,9.739299774169922
1682999488545058000,2.01405810546875,1.0951999425888062,0.24399998784065247,9.742199897766113
1682999488565058000,2.03405810546875,1.0921999216079712,0.2483000010251999,9.742400169372559
1682999488585058000,2.05405810546875,1.0881999731063843,0.23809999227523804,9.7431001663208
1682999488605058000,2.07405810546875,1.067099928855896,0.21289999783039093,9.745999336242676
1682999488625058000,2.09405810546875,1.031000018119812,0.1915999948978424,9.750399589538574
1682999488645058000,2.11405810546875,0.9945999979972839,0.18769998848438263,9.754199981689453
1682999488665058000,2.13405810546875,0.9657999873161316,0.18719999492168427,9.757100105285645
1682999488685058000,2.15405810546875,0.9429000020027161,0.16429999470710754,9.75979995727539
1682999488705058000,2.17405810546875,0.9072999954223633,0.10989999771118164,9.763899803161621
1682999488725058000,2.19405810546875,0.8592999577522278,0.04639999940991402,9.768799781799316
1682999488745056500,2.214056396484375,0.8240000009536743,0.00839999970048666,9.771900177001953
1682999488765058000,2.23405810546875,0.8197999596595764,-0.003499999875202775,9.772299766540527
1682999488785058000,2.25405810546875,0.8436999917030334,-0.006599999964237213,9.7701997756958
1682999488805056500,2.274056396484375,0.886199951171875,-0.009099999442696571,9.766499519348145
1682999488825058000,2.29405810546875,0.9430999755859375,-0.013299999758601189,9.761099815368652
1682999488845058000,2.31405810546875,0.9962999820709229,-0.016999999061226845,9.755799293518066
1682999488865058000,2.33405810546875,1.0326999425888062,-0.01979999989271164,9.752099990844727
1682999488885058000,2.35405810546875,1.0412999391555786,-0.025200000032782555,9.751099586486816
1682999488905058000,2.37405810546875,1.0206999778747559,-0.027799999341368675,9.753299713134766
1682999488925056500,2.394056396484375,0.9851999878883362,-0.02019999921321869,9.756999969482422
1682999488945058000,2.41405810546875,0.9848999977111816,0.024399999529123306,9.756999969482422
1682999488965058000,2.43405810546875,1.021399974822998,0.06350000202655792,9.752999305725098
1682999488985058000,2.45405810546875,1.0187000036239624,0.04989999905228615,9.753399848937988
1682999489005058000,2.47405810546875,0.9833999872207642,-0.004799999762326479,9.75719928741455
1682999489025056500,2.494056396484375,0.9576999545097351,-0.034199997782707214,9.759699821472168
1682999489045058000,2.51405810546875,0.9548999667167664,-0.011799999512732029,9.760000228881836
1682999489065058000,2.53405810546875,1.0206999778747559,0.04749999940395355,9.753199577331543
1682999489085058000,2.55405810546875,1.132099986076355,0.1200999990105629,9.740300178527832
1682999489105058000,2.57405810546875,1.222499966621399,0.17589999735355377,9.728499412536621
1682999489125058000,2.59405810546875,1.251099944114685,0.20269998908042908,9.724299430847168
1682999489145058000,2.61405810546875,1.2285000085830688,0.21629999577999115,9.726900100708008
1682999489165056500,2.634056396484375,1.1917999982833862,0.23649999499320984,9.730999946594238
1682999489185058000,2.65405810546875,1.1450999975204468,0.2669999897480011,9.735799789428711
1682999489205058000,2.67405810546875,1.1031999588012695,0.2953999936580658,9.739899635314941
1682999489225056500,2.694056396484375,1.0845999717712402,0.30869999527931213,9.741499900817871
1682999489245056500,2.714056396484375,1.0770000219345093,0.29919999837875366,9.74269962310791
1682999489265058000,2.73405810546875,1.0643999576568604,0.27799999713897705,9.744699478149414
1682999489285058000,2.75405810546875,1.0376999378204346,0.2574999928474426,9.748099327087402
1682999489305058000,2.77405810546875,1.0051000118255615,0.24219998717308044,9.751899719238281
1682999489325058000,2.79405810546875,0.9659000039100647,0.2238999903202057,9.75629997253418
1682999489345058000,2.81405810546875,0.9208999872207642,0.19900000095367432,9.761199951171875
1682999489365058000,2.83405810546875,0.8950999975204468,0.16269999742507935,9.764299392700195
1682999489385058000,2.85405810546875,0.8858999609947205,0.11659999936819077,9.765799522399902
1682999489405058000,2.87405810546875,0.8855999708175659,0.06430000066757202,9.766300201416016
1682999489425056500,2.894056396484375,0.8834999799728394,0,9.76669979095459
1682999489445058000,2.91405810546875,0.8770999908447266,-0.0705999955534935,9.767000198364258
1682999489465058000,2.93405810546875,0.8788999915122986,-0.12429999560117722,9.766300201416016
1682999489485058000,2.95405810546875,0.8947999477386475,-0.14639998972415924,9.764599800109863
1682999489505058000,2.97405810546875,0.9309999942779541,-0.14579999446868896,9.761199951171875
1682999489525056500,2.994056396484375,0.9765999913215637,-0.14589999616146088,9.756799697875977
1682999489545058000,3.01405810546875,1.032099962234497,-0.15689998865127563,9.750899314880371
1682999489565058000,3.03405810546875,1.0845999717712402,-0.1704999953508377,9.74489974975586
1682999489585058000,3.05405810546875,1.129599928855896,-0.1711999922990799,9.739799499511719
1682999489605058000,3.07405810546875,1.188499927520752,-0.13279999792575836,9.733399391174316
1682999489625058000,3.09405810546875,1.2480000257492065,-0.0738999992609024,9.72659969329834
1682999489645058000,3.11405810546875,1.320199966430664,-0.053599998354911804,9.717199325561523
1682999489665058000,3.13405810546875,1.3907999992370605,-0.09059999883174896,9.706999778747559
1682999489685058000,3.15405810546875,1.4538999795913696,-0.13899999856948853,9.697199821472168
1682999489705056500,3.174056396484375,1.5370999574661255,-0.12399999797344208,9.684599876403809
1682999489725058000,3.19405810546875,1.5988999605178833,-0.04389999806880951,9.675299644470215
1682999489745056500,3.214056396484375,1.5992000102996826,0.03689999878406525,9.675199508666992
1682999489765058000,3.23405810546875,1.5943999290466309,0.0811999961733818,9.675799369812012
1682999489785058000,3.25405810546875,1.6276999711990356,0.10920000076293945,9.670000076293945
1682999489805058000,3.27405810546875,1.6784999370574951,0.1404999941587448,9.660900115966797
1682999489825058000,3.29405810546875,1.70579993724823,0.15330000221729279,9.655900001525879
1682999489845058000,3.31405810546875,1.7030999660491943,0.13259999454021454,9.656700134277344
1682999489865058000,3.33405810546875,1.6725999116897583,0.09919999539852142,9.662399291992188
1682999489885058000,3.35405810546875,1.6298999786376953,0.0731000006198883,9.669899940490723
1682999489905058000,3.37405810546875,1.587999939918518,0.05779999867081642,9.677000045776367
1682999489925056500,3.394056396484375,1.5539000034332275,0.04699999839067459,9.682600021362305
1682999489945058000,3.41405810546875,1.5236999988555908,0.033399999141693115,9.687399864196777
1682999489965058000,3.43405810546875,1.4896999597549438,0.01589999906718731,9.69279956817627
1682999489985058000,3.45405810546875,1.4506999254226685,0.0018999999156221747,9.698699951171875
1682999490005058000,3.47405810546875,1.4225000143051147,-0.004900000058114529,9.702899932861328
1682999490025056500,3.494056396484375,1.4096999168395996,-0.008299999870359898,9.704699516296387
1682999490045058000,3.51405810546875,1.4101999998092651,-0.016999999061226845,9.704699516296387
1682999490065058000,3.53405810546875,1.4148999452590942,-0.02879999950528145,9.703899383544922
1682999490085058000,3.55405810546875,1.4139999151229858,-0.03999999910593033,9.703999519348145
1682999490105058000,3.57405810546875,1.3954999446868896,-0.06369999796152115,9.706600189208984
1682999490125058000,3.59405810546875,1.3633999824523926,-0.1096000000834465,9.710700035095215
1682999490145058000,3.61405810546875,1.3240000009536743,-0.1662999987602234,9.715399742126465
1682999490165056500,3.634056396484375,1.279099941253662,-0.2239999920129776,9.720199584960938
1682999490185058000,3.65405810546875,1.242900013923645,-0.27869999408721924,9.723499298095703
1682999490205058000,3.67405810546875,1.2245999574661255,-0.32889997959136963,9.724299430847168
1682999490225056500,3.694056396484375,1.201200008392334,-0.37389999628067017,9.72559928894043
1682999490245056500,3.714056396484375,1.1403999328613281,-0.4250999987125397,9.730799674987793
1682999490265058000,3.73405810546875,1.0612000226974487,-0.4755999743938446,9.73740005493164
1682999490285058000,3.75405810546875,0.9940999746322632,-0.511900007724762,9.742599487304688
1682999490305058000,3.77405810546875,0.9909999966621399,-0.5153999924659729,9.742799758911133
1682999490325058000,3.79405810546875,1.0571999549865723,-0.46399998664855957,9.738399505615234
1682999490345058000,3.81405810546875,1.141700029373169,-0.37950000166893005,9.732500076293945
1682999490365058000,3.83405810546875,1.188599944114685,-0.3231000006198883,9.728899955749512
1682999490385058000,3.85405810546875,1.184000015258789,-0.3132999837398529,9.7298002243042
1682999490405058000,3.87405810546875,1.1553999185562134,-0.32099997997283936,9.732999801635742
1682999490425056500,3.894056396484375,1.1342999935150146,-0.3141999840736389,9.735699653625488
1682999490445058000,3.91405810546875,1.1444000005722046,-0.2671000063419342,9.735899925231934
1682999490465058000,3.93405810546875,1.1904000043869019,-0.1889999955892563,9.732199668884277
1682999490485058000,3.95405810546875,1.25409996509552,-0.11180000007152557,9.7253999710083
1682999490505058000,3.97405810546875,1.3055999279022217,-0.0502999983727932,9.719200134277344
1682999490525056500,3.994056396484375,1.330399990081787,-0.007799999788403511,9.715899467468262
1682999490545058000,4.01405810546875,1.327799916267395,0.01860000006854534,9.716300010681152
1682999490565056500,4.034056396484375,1.3076999187469482,0.031300000846385956,9.718999862670898
1682999490585058000,4.05405810546875,1.281999945640564,0.030399998649954796,9.722399711608887
1682999490605056500,4.074056396484375,1.2512999773025513,0.012199999764561653,9.726399421691895
1682999490625058000,4.09405810546875,1.2350999116897583,-0.015799999237060547,9.728499412536621
1682999490645058000,4.11405810546875,1.2343000173568726,-0.04270000010728836,9.728499412536621
1682999490665058000,4.13405810546875,1.2372000217437744,-0.06399999558925629,9.727999687194824
1682999490685058000,4.15405810546875,1.23989999294281,-0.0828000009059906,9.727499961853027
1682999490705058000,4.17405810546875,1.2353999614715576,-0.1054999977350235,9.727899551391602
1682999490725056500,4.194056396484375,1.2178000211715698,-0.13989999890327454,9.729700088500977
1682999490745056500,4.214056396484375,1.188099980354309,-0.1899999976158142,9.732500076293945
1682999490765058000,4.23405810546875,1.1577999591827393,-0.25599998235702515,9.734600067138672
1682999490785058000,4.25405810546875,1.1404999494552612,-0.32889997959136963,9.73449993133545
1682999490805058000,4.27405810546875,1.1395000219345093,-0.3905999958515167,9.7322998046875
1682999490825058000,4.29405810546875,1.1409000158309937,-0.4203999936580658,9.730899810791016
1682999490845058000,4.31405810546875,1.1404999494552612,-0.4041000008583069,9.73169994354248
1682999490865058000,4.33405810546875,1.1545000076293945,-0.3474999964237213,9.732199668884277
1682999490885058000,4.35405810546875,1.1912000179290771,-0.2856999933719635,9.7298002243042
1682999490905058000,4.37405810546875,1.271799921989441,-0.24249999225139618,9.720699310302734
1682999490925058000,4.39405810546875,1.3553999662399292,-0.22129999101161957,9.710000038146973
1682999490945058000,4.41405810546875,1.4180999994277954,-0.20329999923706055,9.701399803161621
1682999490965058000,4.43405810546875,1.4811999797821045,-0.16300000250339508,9.692699432373047
1682999490985058000,4.45405810546875,1.5341999530792236,-0.09549999982118607,9.685400009155273
1682999491005058000,4.47405810546875,1.5393999814987183,-0.031599998474121094,9.684999465942383
1682999491025056500,4.494056396484375,1.5073000192642212,0.012600000016391277,9.690099716186523
1682999491045058000,4.51405810546875,1.4785000085830688,0.06019999831914902,9.694299697875977
1682999491065056500,4.534056396484375,1.493899941444397,0.14010000228881836,9.691100120544434
1682999491085058000,4.55405810546875,1.543299913406372,0.2418999969959259,9.68139934539795
1682999491105056500,4.574056396484375,1.598099946975708,0.3269999921321869,9.670000076293945
1682999491125058000,4.59405810546875,1.638700008392334,0.3788999915122986,9.661299705505371
1682999491145058000,4.61405810546875,1.6563999652862549,0.4023999869823456,9.657299995422363
1682999491165058000,4.63405810546875,1.6480000019073486,0.40950000286102295,9.658499717712402
1682999491185058000,4.65405810546875,1.6237999200820923,0.4105999767780304,9.66249942779541
1682999491205058000,4.67405810546875,1.6038999557495117,0.4138000011444092,9.66569995880127
1682999491225056500,4.694056396484375,1.587999939918518,0.4152999818325043,9.66819953918457
1682999491245056500,4.714056396484375,1.5619999170303345,0.39980000257492065,9.673099517822266
1682999491265058000,4.73405810546875,1.5184999704360962,0.3596999943256378,9.681599617004395
1682999491285058000,4.75405810546875,1.4620999097824097,0.30660000443458557,9.692099571228027
1682999491305058000,4.77405810546875,1.4244999885559082,0.260699987411499,9.69909954071045
1682999491325058000,4.79405810546875,1.4223999977111816,0.23269999027252197,9.70009994506836
1682999491345058000,4.81405810546875,1.4386999607086182,0.21660000085830688,9.698100090026855
1682999491365058000,4.83405810546875,1.44569993019104,0.19380000233650208,9.697500228881836
1682999491385058000,4.85405810546875,1.423200011253357,0.15809999406337738,9.701499938964844
1682999491405058000,4.87405810546875,1.3676999807357788,0.11499999463558197,9.710100173950195
1682999491425056500,4.894056396484375,1.2943999767303467,0.06849999725818634,9.720499992370605
1682999491445058000,4.91405810546875,1.2276999950408936,0.02239999920129776,9.729399681091309
1682999491465058000,4.93405810546875,1.199299931526184,-0.010499999858438969,9.732999801635742
1682999491485058000,4.95405810546875,1.1998999118804932,-0.026099998503923416,9.73289966583252
1682999491505056500,4.974056396484375,1.1759999990463257,-0.05689999833703041,9.735699653625488
1682999491525056500,4.994056396484375,1.1445999145507812,-0.10749999433755875,9.738999366760254
1682999491545058000,5.01405810546875,1.1210999488830566,-0.14299999177455902,9.741299629211426
1682999491565058000,5.03405810546875,1.1050999164581299,-0.16290000081062317,9.742799758911133
1682999491585058000,5.05405810546875,1.1306999921798706,-0.1762000024318695,9.73960018157959
1682999491605056500,5.074056396484375,1.2041000127792358,-0.1673000007867813,9.730999946594238
1682999491625058000,5.09405810546875,1.2753000259399414,-0.13379999995231628,9.722399711608887
1682999491645058000,5.11405810546875,1.2851999998092651,-0.0973999947309494,9.7214994430542
1682999491665058000,5.13405810546875,1.254599928855896,-0.0738999992609024,9.725699424743652
1682999491685058000,5.15405810546875,1.2239999771118164,-0.04099999740719795,9.7298002243042
1682999491705058000,5.17405810546875,1.232800006866455,0.018199998885393143,9.728799819946289
1682999491725058000,5.19405810546875,1.2705999612808228,0.08100000023841858,9.723599433898926
1682999491745056500,5.214056396484375,1.316100001335144,0.11299999803304672,9.717199325561523
1682999491765058000,5.23405810546875,1.3438999652862549,0.11729999631643295,9.713399887084961
1682999491785058000,5.25405810546875,1.3524999618530273,0.12239999324083328,9.7121000289917
1682999491805058000,5.27405810546875,1.351599931716919,0.14869999885559082,9.711899757385254
1682999491825058000,5.29405810546875,1.350600004196167,0.18469999730587006,9.711400032043457
1682999491845058000,5.31405810546875,1.3531999588012695,0.20569999516010284,9.710599899291992
1682999491865058000,5.33405810546875,1.3517999649047852,0.20109999179840088,9.710899353027344
1682999491885058000,5.35405810546875,1.3446999788284302,0.1735999882221222,9.71239948272705
1682999491905058000,5.37405810546875,1.3310999870300293,0.12969999015331268,9.71500015258789
1682999491925056500,5.394056396484375,1.3174999952316284,0.07909999787807465,9.717399597167969
1682999491945058000,5.41405810546875,1.3162999153137207,0.028199998661875725,9.71780014038086
1682999491965058000,5.43405810546875,1.3255999088287354,-0.01589999906718731,9.716599464416504
1682999491985058000,5.45405810546875,1.3407999277114868,-0.046799998730421066,9.714399337768555
1682999492005058000,5.47405810546875,1.3571999073028564,-0.06610000133514404,9.711999893188477
1682999492025056500,5.494056396484375,1.3650999069213867,-0.08549999445676804,9.710700035095215
1682999492045058000,5.51405810546875,1.3636000156402588,-0.11299999803304672,9.710700035095215
1682999492065058000,5.53405810546875,1.3566999435424805,-0.14669999480247498,9.711199760437012
1682999492085058000,5.55405810546875,1.347100019454956,-0.17569999396800995,9.711999893188477
1682999492105056500,5.574056396484375,1.3483999967575073,-0.1834999918937683,9.711699485778809
1682999492125058000,5.59405810546875,1.3657000064849854,-0.1573999971151352,9.709799766540527
1682999492145058000,5.61405810546875,1.3834999799728394,-0.12809999287128448,9.7076997756958
1682999492165058000,5.63405810546875,1.4199999570846558,-0.12280000001192093,9.702499389648438
1682999492185058000,5.65405810546875,1.4737999439239502,-0.12919999659061432,9.6943998336792
1682999492205058000,5.67405810546875,1.5296999216079712,-0.12299999594688416,9.685799598693848
1682999492225058000,5.69405810546875,1.5886999368667603,-0.09149999916553497,9.676599502563477
1682999492245056500,5.714056396484375,1.6266999244689941,-0.04779999703168869,9.670599937438965
1682999492265058000,5.73405810546875,1.6050999164581299,-0.0038999998942017555,9.674300193786621
1682999492285058000,5.75405810546875,1.536199927330017,0.008100000210106373,9.685500144958496
1682999492305058000,5.77405810546875,1.4804999828338623,0.012899999506771564,9.694199562072754
1682999492325058000,5.79405810546875,1.4884999990463257,0.06019999831914902,9.69279956817627
1682999492345058000,5.81405810546875,1.5274999141693115,0.14419999718666077,9.685799598693848
1682999492365058000,5.83405810546875,1.5575000047683716,0.20739999413490295,9.679900169372559
1682999492385058000,5.85405810546875,1.5628999471664429,0.23429998755455017,9.678400039672852
1682999492405058000,5.87405810546875,1.5532000064849854,0.24709999561309814,9.679699897766113
1682999492425056500,5.894056396484375,1.5443999767303467,0.26420000195503235,9.6806001663208
1682999492445058000,5.91405810546875,1.5332999229431152,0.2708999812602997,9.682199478149414
1682999492465058000,5.93405810546875,1.5073000192642212,0.2531999945640564,9.686800003051758
1682999492485058000,5.95405810546875,1.4704999923706055,0.21279999613761902,9.693399429321289
1682999492505058000,5.97405810546875,1.4192999601364136,0.1621999889612198,9.70199966430664
1682999492525056500,5.994056396484375,1.3553999662399292,0.11449999362230301,9.711799621582031
1682999492545058000,6.01405810546875,1.2990999221801758,0.07569999992847443,9.719900131225586
1682999492565058000,6.03405810546875,1.2785999774932861,0.04580000042915344,9.722799301147461
1682999492585058000,6.05405810546875,1.294600009918213,0.016499999910593033,9.720699310302734
1682999492605058000,6.07405810546875,1.322700023651123,-0.031300000846385956,9.716899871826172
1682999492625058000,6.09405810546875,1.3310999870300293,-0.09769999980926514,9.715299606323242
1682999492645058000,6.11405810546875,1.3143999576568604,-0.1671999990940094,9.716699600219727
1682999492665056500,6.134056396484375,1.2720999717712402,-0.2321999967098236,9.720999717712402
1682999492685058000,6.15405810546875,1.222999930381775,-0.2979999780654907,9.725500106811523
1682999492705058000,6.17405810546875,1.1836999654769897,-0.36640000343322754,9.727999687194824
1682999492725056500,6.194056396484375,1.173799991607666,-0.42819997668266296,9.726699829101562
1682999492745056500,6.214056396484375,1.1787999868392944,-0.47119998931884766,9.724100112915039
1682999492765058000,6.23405810546875,1.1653000116348267,-0.5011999607086182,9.724199295043945
1682999492785058000,6.25405810546875,1.1496999263763428,-0.519599974155426,9.725099563598633
1682999492805058000,6.27405810546875,1.1460999250411987,-0.5220999717712402,9.7253999710083
1682999492825058000,6.29405810546875,1.141700029373169,-0.5241999626159668,9.725799560546875
1682999492845058000,6.31405810546875,1.1416000127792358,-0.5372999906539917,9.725099563598633
1682999492865056500,6.334056396484375,1.1592999696731567,-0.5435000061988831,9.722700119018555
1682999492885058000,6.35405810546875,1.1761999130249023,-0.530299961566925,9.72130012512207
1682999492905058000,6.37405810546875,1.1490999460220337,-0.5139999985694885,9.725500106811523
1682999492925058000,6.39405810546875,1.1050999164581299,-0.512499988079071,9.730599403381348
1682999492945058000,6.41405810546875,1.0658999681472778,-0.5041999816894531,9.735400199890137
1682999492965058000,6.43405810546875,1.0503000020980835,-0.4757999777793884,9.73859977722168
1682999492985058000,6.45405810546875,1.0611000061035156,-0.4398999810218811,9.739099502563477
1682999493005058000,6.47405810546875,1.0896999835968018,-0.4145999848842621,9.73699951171875
1682999493025056500,6.494056396484375,1.1168999671936035,-0.39249998331069946,9.734899520874023
1682999493045058000,6.51405810546875,1.132599949836731,-0.3621000051498413,9.734199523925781
1682999493065058000,6.53405810546875,1.1398999691009521,-0.3247999846935272,9.734700202941895
1682999493085058000,6.55405810546875,1.136199951171875,-0.2863999903202057,9.736299514770508
1682999493105058000,6.57405810546875,1.1274999380111694,-0.258899986743927,9.738100051879883
1682999493125058000,6.59405810546875,1.1181999444961548,-0.25220000743865967,9.739399909973145
1682999493145058000,6.61405810546875,1.1095999479293823,-0.25769999623298645,9.74020004272461
1682999493165058000,6.63405810546875,1.1101999282836914,-0.26510000228881836,9.739899635314941
1682999493185058000,6.65405810546875,1.1171000003814697,-0.274399995803833,9.738900184631348
1682999493205058000,6.67405810546875,1.1247999668121338,-0.2856000065803528,9.737699508666992
1682999493225058000,6.69405810546875,1.1373000144958496,-0.2955999970436096,9.735899925231934
1682999493245059600,6.7140595703125,1.1491999626159668,-0.30379998683929443,9.734299659729004
1682999493265059600,6.7340595703125,1.1550999879837036,-0.31529998779296875,9.733200073242188
1682999493285058000,6.75405810546875,1.1543999910354614,-0.3344999849796295,9.732699394226074
1682999493305056500,6.774056396484375,1.1492999792099,-0.3579999804496765,9.732399940490723
1682999493325058000,6.79405810546875,1.1454999446868896,-0.382999986410141,9.731900215148926
1682999493345058000,6.81405810546875,1.1438000202178955,-0.4041999876499176,9.73129940032959
1682999493365056500,6.834056396484375,1.149999976158142,-0.4139999747276306,9.73009967803955
1682999493385058000,6.85405810546875,1.1872999668121338,-0.3978999853134155,9.726299285888672
1682999493405058000,6.87405810546875,1.2437999248504639,-0.3522000014781952,9.720999717712402
1682999493425056500,6.894056396484375,1.2896000146865845,-0.31939998269081116,9.71619987487793
1682999493445058000,6.91405810546875,1.3427000045776367,-0.3140999972820282,9.709199905395508
1682999493465058000,6.93405810546875,1.3887999057769775,-0.31679999828338623,9.70259952545166
1682999493485058000,6.95405810546875,1.4298999309539795,-0.3166999816894531,9.696599960327148
1682999493505058000,6.97405810546875,1.4824999570846558,-0.2937999963760376,9.689399719238281
1682999493525056500,6.994056396484375,1.5221999883651733,-0.2525999844074249,9.684399604797363
1682999493545058000,7.01405810546875,1.5073000192642212,-0.23229999840259552,9.687299728393555
1682999493565058000,7.03405810546875,1.4455000162124634,-0.24889999628067017,9.69629955291748
1682999493585058000,7.05405810546875,1.3918999433517456,-0.25999999046325684,9.703800201416016
1682999493605056500,7.074056396484375,1.3810999393463135,-0.22019998729228973,9.706299781799316
1682999493625058000,7.09405810546875,1.3849999904632568,-0.14069999754428864,9.707300186157227
1682999493645058000,7.11405810546875,1.4007999897003174,-0.0810999944806099,9.705699920654297
1682999493665058000,7.13405810546875,1.413100004196167,-0.06229999661445618,9.703999519348145
1682999493685058000,7.15405810546875,1.4076999425888062,-0.06030000001192093,9.70479965209961
1682999493705058000,7.17405810546875,1.3902000188827515,-0.04910000041127205,9.707399368286133
1682999493725058000,7.19405810546875,1.3664000034332275,-0.02579999901354313,9.710899353027344
1682999493745056500,7.214056396484375,1.340399980545044,-0.00419999985024333,9.714599609375
1682999493765058000,7.23405810546875,1.3122999668121338,0.0030999998562037945,9.718400001525879
1682999493785058000,7.25405810546875,1.2803999185562134,-0.009200000204145908,9.722599983215332
1682999493805058000,7.27405810546875,1.2410999536514282,-0.03889999911189079,9.727699279785156
1682999493825058000,7.29405810546875,1.1906999349594116,-0.07559999823570251,9.733699798583984
1682999493845058000,7.31405810546875,1.1563999652862549,-0.10130000114440918,9.73759937286377
1682999493865058000,7.33405810546875,1.138800024986267,-0.1111999973654747,9.73960018157959
1682999493885058000,7.35405810546875,1.1434999704360962,-0.11549999564886093,9.738999366760254
1682999493905058000,7.37405810546875,1.1409999132156372,-0.12929999828338623,9.739099502563477
1682999493925058000,7.39405810546875,1.1342999935150146,-0.16529999673366547,9.739399909973145
1682999493945058000,7.41405810546875,1.1055999994277954,-0.20979999005794525,9.741799354553223
1682999493965058000,7.43405810546875,1.0656999349594116,-0.25679999589920044,9.745100021362305
1682999493985058000,7.45405810546875,1.0181999206542969,-0.29339998960494995,9.749199867248535
1682999494005058000,7.47405810546875,0.9853000044822693,-0.31529998779296875,9.751899719238281
1682999494025056500,7.494056396484375,0.9922999739646912,-0.3131999969482422,9.751199722290039
1682999494045058000,7.51405810546875,1.0002000331878662,-0.30320000648498535,9.750699996948242
1682999494065056500,7.534056396484375,0.9835000038146973,-0.3211999833583832,9.751899719238281
1682999494085058000,7.55405810546875,0.9678999781608582,-0.35589998960494995,9.75220012664795
1682999494105058000,7.57405810546875,0.9490000009536743,-0.37299999594688416,9.753399848937988
1682999494125058000,7.59405810546875,0.9512999653816223,-0.35749998688697815,9.753799438476562
1682999494145058000,7.61405810546875,0.9959999918937683,-0.3037000000476837,9.751199722290039
1682999494165058000,7.63405810546875,1.044600009918213,-0.23099999129772186,9.748099327087402
1682999494185058000,7.65405810546875,1.0548999309539795,-0.18129999935626984,9.748000144958496
1682999494205058000,7.67405810546875,1.0282000303268433,-0.17170000076293945,9.750999450683594
1682999494225058000,7.69405810546875,0.9835000038146973,-0.17249999940395355,9.755599975585938
1682999494245056500,7.714056396484375,0.983199954032898,-0.15160000324249268,9.755999565124512
1682999494265058000,7.73405810546875,1.0226999521255493,-0.09860000014305115,9.752599716186523
1682999494285058000,7.75405810546875,1.069700002670288,-0.03920000046491623,9.748000144958496
1682999494305058000,7.77405810546875,1.1069999933242798,-0.003000000026077032,9.74389934539795
1682999494325058000,7.79405810546875,1.1297999620437622,0.011099999770522118,9.741299629211426
1682999494345058000,7.81405810546875,1.1394000053405762,0.024299999698996544,9.740099906921387
1682999494365058000,7.83405810546875,1.1354999542236328,0.04829999804496765,9.740499496459961
1682999494385058000,7.85405810546875,1.126099944114685,0.07649999856948853,9.741399765014648
1682999494405058000,7.87405810546875,1.1130999326705933,0.09059999883174896,9.742799758911133
1682999494425056500,7.894056396484375,1.094599962234497,0.0778999999165535,9.744999885559082
1682999494445058000,7.91405810546875,1.0713000297546387,0.044199999421834946,9.74779987335205
1682999494465058000,7.93405810546875,1.051800012588501,0.0038999998942017555,9.75
1682999494485058000,7.95405810546875,1.0536999702453613,-0.03059999831020832,9.749799728393555
1682999494505058000,7.97405810546875,1.0799000263214111,-0.05119999870657921,9.74679946899414
1682999494525056500,7.994056396484375,1.1115000247955322,-0.06159999966621399,9.743199348449707
1682999494545058000,8.01405810546875,1.1390999555587769,-0.0737999975681305,9.739899635314941
1682999494565058000,8.03405810546875,1.1619999408721924,-0.08969999849796295,9.737099647521973
1682999494585058000,8.05405810546875,1.1801999807357788,-0.10489999502897263,9.7347993850708
1682999494605058000,8.07405810546875,1.206399917602539,-0.12370000034570694,9.73129940032959
1682999494625058000,8.09405810546875,1.2381999492645264,-0.14919999241828918,9.726999282836914
1682999494645056500,8.114056396484376,1.2654999494552612,-0.17549999058246613,9.722999572753906
1682999494665056500,8.134056396484375,1.2831000089645386,-0.19429999589920044,9.720399856567383
1682999494685058000,8.15405810546875,1.2869999408721924,-0.20509999990463257,9.719599723815918
1682999494705058000,8.17405810546875,1.2840999364852905,-0.2256999909877777,9.719499588012695
1682999494725058000,8.19405810546875,1.2954999208450317,-0.2687000036239624,9.716899871826172
1682999494745056500,8.214056396484375,1.3194999694824219,-0.320499986410141,9.7121000289917
1682999494765058000,8.23405810546875,1.3788999319076538,-0.35099998116493225,9.702799797058105
1682999494785058000,8.25405810546875,1.4563000202178955,-0.34860000014305115,9.69159984588623
1682999494805058000,8.27405810546875,1.463499903678894,-0.32819998264312744,9.69119930267334
1682999494825058000,8.29405810546875,1.38319993019104,-0.31610000133514404,9.703399658203125
1682999494845058000,8.31405810546875,1.2882000207901,-0.30949997901916504,9.716699600219727
1682999494865058000,8.33405810546875,1.257099986076355,-0.2733999788761139,9.721799850463867
1682999494885058000,8.35405810546875,1.2996000051498413,-0.19219999015331268,9.718199729919434
1682999494905058000,8.37405810546875,1.3589999675750732,-0.10799999535083771,9.711400032043457
1682999494925056500,8.394056396484375,1.3905999660491943,-0.07559999823570251,9.707200050354004
1682999494945058000,8.41405810546875,1.3726999759674072,-0.10809999704360962,9.709400177001953
1682999494965058000,8.43405810546875,1.3325999975204468,-0.15919999778270721,9.714300155639648
1682999494985058000,8.45405810546875,1.3109999895095825,-0.17719998955726624,9.717000007629395
1682999495005058000,8.47405810546875,1.3162000179290771,-0.15439999103546143,9.716599464416504
1682999495025058000,8.49405810546875,1.3282999992370605,-0.11819999665021896,9.715499877929688
1682999495045058000,8.51405810546875,1.322700023651123,-0.0949999988079071,9.716499328613281
1682999495065058000,8.53405810546875,1.2958999872207642,-0.08969999849796295,9.720199584960938
1682999495085058000,8.55405810546875,1.267300009727478,-0.09290000051259995,9.723899841308594
1682999495105056500,8.574056396484375,1.247499942779541,-0.09279999881982803,9.726499557495117
1682999495125058000,8.59405810546875,1.2444000244140625,-0.08969999849796295,9.726900100708008
1682999495145058000,8.61405810546875,1.2423999309539795,-0.08590000122785568,9.72719955444336
1682999495165058000,8.63405810546875,1.2294999361038208,-0.08569999784231186,9.728799819946289
1682999495185058000,8.65405810546875,1.2020000219345093,-0.09030000120401382,9.732199668884277
1682999495205069000,8.674069091796875,1.1572999954223633,-0.1014999970793724,9.737500190734863
1682999495225058000,8.69405810546875,1.1028000116348267,-0.11469999700784683,9.74370002746582
1682999495245056500,8.714056396484375,1.070099949836731,-0.11889999359846115,9.747300148010254
1682999495265058000,8.73405810546875,1.079699993133545,-0.09690000116825104,9.746500015258789
1682999495285059600,8.7540595703125,1.1032999753952026,-0.058799996972084045,9.744199752807617
1682999495305059600,8.7740595703125,1.0885000228881836,-0.03869999945163727,9.74590015411377
1682999495325058000,8.79405810546875,1.0490999221801758,-0.042799998074769974,9.750199317932129
1682999495345059600,8.8140595703125,1.0297999382019043,-0.048499997705221176,9.75220012664795
1682999495365059600,8.8340595703125,1.0547000169754028,-0.03449999913573265,9.749699592590332
1682999495385058000,8.85405810546875,1.142199993133545,0.011099999770522118,9.739799499511719
1682999495405058000,8.87405810546875,1.2279000282287598,0.07849999517202377,9.729100227355957
1682999495425056500,8.894056396484375,1.2466999292373657,0.13490000367164612,9.726099967956543
1682999495445058000,8.91405810546875,1.2276999950408936,0.15719999372959137,9.72819995880127
1682999495465058000,8.93405810546875,1.204800009727478,0.16259999573230743,9.730899810791016
1682999495485058000,8.95405810546875,1.2027000188827515,0.17409999668598175,9.730999946594238
1682999495505058000,8.97405810546875,1.212899923324585,0.19900000095367432,9.729299545288086
1682999495525056500,8.994056396484375,1.2300000190734863,0.22049999237060547,9.726699829101562
1682999495545058000,9.01405810546875,1.2566999197006226,0.22909998893737793,9.722999572753906
1682999495565056500,9.034056396484376,1.2817000150680542,0.23089998960494995,9.71969985961914
1682999495585059600,9.0540595703125,1.2968999147415161,0.23229999840259552,9.717700004577637
1682999495605059600,9.0740595703125,1.2972999811172485,0.23169998824596405,9.717599868774414
1682999495625058000,9.09405810546875,1.2803999185562134,0.22829999029636383,9.719999313354492
1682999495645059600,9.1140595703125,1.26010000705719,0.22049999237060547,9.722799301147461
1682999495665059600,9.1340595703125,1.2526999711990356,0.20419999957084656,9.724100112915039
1682999495685058000,9.15405810546875,1.25819993019104,0.1776999980211258,9.723899841308594
1682999495705058000,9.17405810546875,1.2562999725341797,0.14549998939037323,9.724699974060059
1682999495725058000,9.19405810546875,1.2416999340057373,0.1152999997138977,9.726999282836914
1682999495745056500,9.214056396484375,1.2257999181747437,0.09690000116825104,9.729199409484863
1682999495765059600,9.2340595703125,1.2188999652862549,0.0867999941110611,9.730199813842773
1682999495785058000,9.25405810546875,1.2343000173568726,0.07209999859333038,9.728300094604492
1682999495805058000,9.27405810546875,1.2594000101089478,0.04690000042319298,9.725299835205078
1682999495825058000,9.29405810546875,1.270900011062622,0.012799999676644802,9.723899841308594
1682999495845058000,9.31405810546875,1.273800015449524,-0.02589999884366989,9.723499298095703
1682999495865058000,9.33405810546875,1.2690999507904053,-0.06239999830722809,9.723899841308594
1682999495885059600,9.3540595703125,1.2661999464035034,-0.09149999916553497,9.724100112915039
1682999495905059600,9.3740595703125,1.2826999425888062,-0.11059999465942383,9.721699714660645
1682999495925056500,9.394056396484375,1.3040999174118042,-0.1160999983549118,9.718799591064453
1682999495945059600,9.4140595703125,1.3366999626159668,-0.11919999867677689,9.714300155639648
1682999495965059600,9.4340595703125,1.3953999280929565,-0.1184999942779541,9.706099510192871
1682999495985059600,9.4540595703125,1.4537999629974365,-0.11099999397993088,9.697599411010742
1682999496005059600,9.4740595703125,1.5121999979019165,-0.10619999468326569,9.688699722290039
1682999496025056500,9.494056396484375,1.5693999528884888,-0.10659999400377274,9.67959976196289
1682999496045058000,9.51405810546875,1.588499903678894,-0.10989999771118164,9.676499366760254
1682999496065058000,9.53405810546875,1.5511999130249023,-0.11639999598264694,9.68239974975586
1682999496085058000,9.55405810546875,1.4945999383926392,-0.12139999866485596,9.691299438476562
1682999496105058000,9.57405810546875,1.4699000120162964,-0.11050000041723251,9.695199966430664
1682999496125058000,9.59405810546875,1.4959999322891235,-0.0771000012755394,9.691499710083008
1682999496145058000,9.61405810546875,1.5338000059127808,-0.03949999809265137,9.685799598693848
1682999496165056500,9.634056396484375,1.567199945449829,-0.020399998873472214,9.680500030517578
1682999496185058000,9.65405810546875,1.5794999599456787,-0.01719999872148037,9.678500175476074
1682999496205058000,9.67405810546875,1.5733999013900757,-0.012199999764561653,9.679499626159668
1682999496225056500,9.694056396484376,1.563099980354309,-0.0023999998811632395,9.68120002746582
1682999496245056500,9.714056396484375,1.549299955368042,-0.00419999985024333,9.68340015411377
1682999496265059600,9.7340595703125,1.523800015449524,-0.030799999833106995,9.687399864196777
1682999496285058000,9.75405810546875,1.4803999662399292,-0.07669999450445175,9.693900108337402
1682999496305058000,9.77405810546875,1.4283000230789185,-0.12359999865293503,9.701199531555176
1682999496325058000,9.79405810546875,1.3722000122070312,-0.15779998898506165,9.708799362182617
1682999496345058000,9.81405810546875,1.3234000205993652,-0.17469999194145203,9.715299606323242
1682999496365056500,9.834056396484375,1.288100004196167,-0.17909999191761017,9.719999313354492
1682999496385056500,9.854056396484374,1.263800024986267,-0.18129999935626984,9.723099708557129
1682999496405058000,9.87405810546875,1.2458000183105469,-0.19200000166893005,9.725199699401855
1682999496425056500,9.894056396484375,1.2214999198913574,-0.21939998865127563,9.727799415588379
1682999496445056500,9.914056396484375,1.181999921798706,-0.26100000739097595,9.731599807739258
1682999496465056500,9.934056396484374,1.1167999505996704,-0.3018999993801117,9.738100051879883
1682999496485058000,9.95405810546875,1.02839994430542,-0.3294000029563904,9.746999740600586
1682999496505058000,9.97405810546875,0.9521999955177307,-0.3416000008583069,9.754300117492676
1682999496525056500,9.994056396484375,0.9304999709129333,-0.33559998869895935,9.756599426269531
1682999496545058000,10.01405810546875,0.9529999494552612,-0.31290000677108765,9.755199432373047
1682999496565058000,10.03405810546875,0.9506999850273132,-0.310699999332428,9.755499839782715
1682999496585058000,10.05405810546875,0.9247999787330627,-0.34129998087882996,9.7568998336792
1682999496605059600,10.0740595703125,0.9090999960899353,-0.3780999779701233,9.756999969482422
1682999496625058000,10.09405810546875,0.9280999898910522,-0.37860000133514404,9.755199432373047
1682999496645058000,10.11405810546875,0.9828999638557434,-0.34199997782707214,9.751199722290039
1682999496665058000,10.13405810546875,1.020300030708313,-0.30379998683929443,9.748600006103516
1682999496685058000,10.15405810546875,1.014799952507019,-0.29899999499320984,9.74940013885498
1682999496705058000,10.17405810546875,0.9950999617576599,-0.3105999827384949,9.750999450683594
1682999496725056500,10.194056396484376,0.9854999780654907,-0.29339998960494995,9.7524995803833
1682999496745056500,10.214056396484375,0.9988999962806702,-0.23249998688697815,9.752799987792969
1682999496765058000,10.23405810546875,1.0407999753952026,-0.14880000054836273,9.750100135803223
1682999496785059600,10.2540595703125,1.090399980545044,-0.08289999514818192,9.745399475097656
1682999496805058000,10.27405810546875,1.135200023651123,-0.05269999802112579,9.740499496459961
1682999496825058000,10.29405810546875,1.1678999662399292,-0.04089999943971634,9.736700057983398
1682999496845058000,10.31405810546875,1.187999963760376,-0.024299999698996544,9.734299659729004
1682999496865056500,10.334056396484375,1.201300024986267,0.006300000008195639,9.732699394226074
1682999496885058000,10.35405810546875,1.2131999731063843,0.04209999740123749,9.731200218200684
1682999496905059600,10.3740595703125,1.2268999814987183,0.06700000166893005,9.729299545288086
1682999496925059600,10.3940595703125,1.2329000234603882,0.07029999792575836,9.728499412536621
1682999496945058000,10.41405810546875,1.2285000085830688,0.05609999969601631,9.729199409484863
1682999496965056500,10.434056396484374,1.2207999229431152,0.037699997425079346,9.730199813842773
1682999496985058000,10.45405810546875,1.212399959564209,0.02459999918937683,9.73129940032959
1682999497005058000,10.47405810546875,1.2014999389648438,0.01549999974668026,9.732699394226074
1682999497025056500,10.494056396484375,1.2003999948501587,0.004799999762326479,9.732799530029297
1682999497045058000,10.51405810546875,1.2257000207901,-0.00930000003427267,9.729700088500977
1682999497065059600,10.5340595703125,1.2635999917984009,-0.027300000190734863,9.724800109863281
1682999497085059600,10.5540595703125,1.2888000011444092,-0.05849999934434891,9.721399307250977
1682999497105056500,10.574056396484375,1.292199969291687,-0.09999999403953552,9.720600128173828
1682999497125058000,10.59405810546875,1.2717000246047974,-0.13429999351501465,9.722899436950684
1682999497145059600,10.6140595703125,1.258099913597107,-0.14569999277591705,9.724499702453613
1682999497165058000,10.63405810546875,1.2702999114990234,-0.13120000064373016,9.723099708557129
1682999497185058000,10.65405810546875,1.2834999561309814,-0.11569999903440475,9.7214994430542
1682999497205058000,10.67405810546875,1.311900019645691,-0.12539999186992645,9.717599868774414
1682999497225058000,10.69405810546875,1.3887999057769775,-0.13570000231266022,9.706799507141113
1682999497245056500,10.714056396484375,1.4872000217437744,-0.11899999529123306,9.692399978637695
1682999497265058000,10.73405810546875,1.5900999307632446,-0.0778999999165535,9.676499366760254
1682999497285058000,10.75405810546875,1.680799961090088,-0.017099998891353607,9.661499977111816
1682999497305058000,10.77405810546875,1.7031999826431274,0.03480000048875809,9.657499313354492
1682999497325058000,10.79405810546875,1.6538000106811523,0.044999998062849045,9.665999412536621
1682999497345058000,10.81405810546875,1.6066999435424805,0.041999999433755875,9.673999786376953
1682999497365058000,10.83405810546875,1.6026999950408936,0.07959999889135361,9.674399375915527
1682999497385058000,10.85405810546875,1.611199975013733,0.15330000221729279,9.672100067138672
1682999497405058000,10.87405810546875,1.6155999898910522,0.2101999968290329,9.670299530029297
1682999497425056500,10.894056396484375,1.611199975013733,0.21879999339580536,9.67080020904541
1682999497445058000,10.91405810546875,1.601099967956543,0.19439999759197235,9.673099517822266
1682999497465059600,10.9340595703125,1.5844999551773071,0.1720999926328659,9.676199913024902
1682999497485058000,10.95405810546875,1.559499979019165,0.16830000281333923,9.680299758911133
1682999497505059600,10.9740595703125,1.517300009727478,0.16679999232292175,9.68709945678711
1682999497525056500,10.994056396484375,1.4632999897003174,0.15209999680519104,9.695599555969238
1682999497545058000,11.01405810546875,1.413599967956543,0.12639999389648438,9.703299522399902
1682999497565056500,11.034056396484376,1.3700000047683716,0.09789999574422836,9.70989990234375
1682999497585059600,11.0540595703125,1.334399938583374,0.07360000163316727,9.715099334716797
1682999497605056500,11.074056396484375,1.3116999864578247,0.05979999899864197,9.718299865722656
1682999497625058000,11.09405810546875,1.299399971961975,0.054499998688697815,9.719999313354492
1682999497645058000,11.11405810546875,1.285499930381775,0.043699998408555984,9.72189998626709
1682999497665058000,11.13405810546875,1.2615000009536743,0.019899999722838402,9.725099563598633
1682999497685058000,11.15405810546875,1.2268999814987183,-0.008599999360740185,9.729499816894531
1682999497705058000,11.17405810546875,1.1819000244140625,-0.03500000014901161,9.734999656677246
1682999497725058000,11.19405810546875,1.132699966430664,-0.052799999713897705,9.740799903869629
1682999497745056500,11.214056396484375,1.112299919128418,-0.055299997329711914,9.743199348449707
1682999497765058000,11.23405810546875,1.1338999271392822,-0.0340999998152256,9.740799903869629
1682999497785059600,11.2540595703125,1.1454999446868896,-0.008999999612569809,9.739500045776367
1682999497805056500,11.274056396484376,1.1223000288009644,-0.009499999694526196,9.742199897766113
1682999497825058000,11.29405810546875,1.1161999702453613,-0.01640000008046627,9.742899894714355
1682999497845058000,11.31405810546875,1.1211999654769897,-0.00559999980032444,9.742300033569336
1682999497865058000,11.33405810546875,1.153499960899353,0.015099999494850636,9.738499641418457
1682999497885056500,11.354056396484374,1.2275999784469604,0.041099999099969864,9.729399681091309
1682999497905058000,11.37405810546875,1.2817999124526978,0.05889999866485596,9.722299575805664
1682999497925059600,11.3940595703125,1.277899980545044,0.04019999876618385,9.722899436950684
1682999497945059600,11.4140595703125,1.247399926185608,0.004699999932199717,9.726900100708008
1682999497965056500,11.434056396484374,1.2242000102996826,-0.0008999999845400453,9.729899406433105
1682999497985058000,11.45405810546875,1.2271000146865845,0.04169999808073044,9.729399681091309
1682999498005058000,11.47405810546875,1.2467999458312988,0.11099999397993088,9.726399421691895
1682999498025056500,11.494056396484375,1.2725999355316162,0.15889999270439148,9.722399711608887
1682999498045058000,11.51405810546875,1.3048999309539795,0.16779999434947968,9.717899322509766
1682999498065058000,11.53405810546875,1.324199914932251,0.1599999964237213,9.715499877929688
1682999498085058000,11.55405810546875,1.3240000009536743,0.15969999134540558,9.715499877929688
1682999498105058000,11.57405810546875,1.314099907875061,0.17569999396800995,9.716599464416504
1682999498125058000,11.59405810546875,1.2979999780654907,0.2012999951839447,9.718199729919434
1682999498145058000,11.61405810546875,1.2871999740600586,0.21959999203681946,9.71929931640625
1682999498165059600,11.6340595703125,1.2840999364852905,0.2142999917268753,9.719799995422363
1682999498185059600,11.6540595703125,1.289199948310852,0.18629999458789825,9.71969985961914
1682999498205058000,11.67405810546875,1.2901999950408936,0.15320000052452087,9.720099449157715
1682999498225056500,11.694056396484376,1.2853999137878418,0.1298999935388565,9.721099853515625
1682999498245056500,11.714056396484375,1.281599998474121,0.11989999562501907,9.721799850463867
1682999498265058000,11.73405810546875,1.288100004196167,0.11509999632835388,9.72089958190918
1682999498285059600,11.7540595703125,1.3000999689102173,0.10249999910593033,9.719499588012695
1682999498305058000,11.77405810546875,1.3114999532699585,0.07189999520778656,9.718199729919434
1682999498325058000,11.79405810546875,1.3026000261306763,0.023799998685717583,9.71969985961914
1682999498345058000,11.81405810546875,1.2752000093460083,-0.035099998116493225,9.723299980163574
1682999498365058000,11.83405810546875,1.2520999908447266,-0.09679999947547913,9.725899696350098
1682999498385058000,11.85405810546875,1.2466999292373657,-0.14399999380111694,9.72599983215332
1682999498405058000,11.87405810546875,1.260599970817566,-0.16200000047683716,9.723899841308594
1682999498425056500,11.894056396484375,1.2728999853134155,-0.15779998898506165,9.722399711608887
1682999498445058000,11.91405810546875,1.286099910736084,-0.16899999976158142,9.720399856567383
1682999498465058000,11.93405810546875,1.3122999668121338,-0.2094999998807907,9.716099739074707
1682999498485058000,11.95405810546875,1.3274999856948853,-0.2531000077724457,9.71299934387207
1682999498505058000,11.97405810546875,1.3579999208450317,-0.26569998264312744,9.708499908447266
1682999498525059600,11.9940595703125,1.4129999876022339,-0.24149999022483826,9.701299667358398
1682999498545059600,12.0140595703125,1.461899995803833,-0.20739999413490295,9.694799423217773
1682999498565058000,12.03405810546875,1.4462000131607056,-0.2011999934911728,9.69729995727539
1682999498585058000,12.05405810546875,1.3845999240875244,-0.23819999396800995,9.705399513244629
1682999498605059600,12.0740595703125,1.3367999792099,-0.2742999792098999,9.711199760437012
1682999498625058000,12.09405810546875,1.3300999402999878,-0.2531000077724457,9.712699890136719
1682999498645058000,12.11405810546875,1.347100019454956,-0.1875,9.711799621582031
1682999498665058000,12.13405810546875,1.361299991607666,-0.1459999978542328,9.710599899291992
1682999498685058000,12.15405810546875,1.371500015258789,-0.15219999849796295,9.708999633789062
1682999498705058000,12.17405810546875,1.3804999589920044,-0.1736999899148941,9.707399368286133
1682999498725056500,12.194056396484376,1.3895999193191528,-0.17499999701976776,9.706099510192871
1682999498745056500,12.214056396484375,1.3906999826431274,-0.15850000083446503,9.706199645996094
1682999498765058000,12.23405810546875,1.3725999593734741,-0.15109999477863312,9.70889949798584
1682999498785058000,12.25405810546875,1.339900016784668,-0.1590999960899353,9.713299751281738
1682999498805058000,12.27405810546875,1.3085999488830566,-0.16689999401569366,9.717499732971191
1682999498825058000,12.29405810546875,1.2803999185562134,-0.1639000028371811,9.72130012512207
1682999498845058000,12.31405810546875,1.254699945449829,-0.15689998865127563,9.724699974060059
1682999498865058000,12.33405810546875,1.2401000261306763,-0.15709999203681946,9.72659969329834
1682999498885058000,12.35405810546875,1.2309999465942383,-0.1606999933719635,9.727699279785156
1682999498905058000,12.37405810546875,1.2171000242233276,-0.16329999268054962,9.729399681091309
1682999498925059600,12.3940595703125,1.1970000267028809,-0.1622999906539917,9.731900215148926
1682999498945058000,12.41405810546875,1.1619999408721924,-0.1605999916791916,9.736199378967285
1682999498965056500,12.434056396484374,1.114400029182434,-0.16449999809265137,9.741700172424316
1682999498985058000,12.45405810546875,1.041100025177002,-0.17579999566078186,9.74959945678711
1682999499005058000,12.47405810546875,0.9779999852180481,-0.1824999898672104,9.755999565124512
1682999499025059600,12.4940595703125,0.9709999561309814,-0.1678999960422516,9.756999969482422
1682999499045058000,12.51405810546875,0.990399956703186,-0.13419999182224274,9.755499839782715
1682999499065059600,12.5340595703125,0.9759999513626099,-0.11710000038146973,9.75719928741455
1682999499085058000,12.55405810546875,0.9645999670028687,-0.12139999866485596,9.758299827575684
1682999499105059600,12.5740595703125,0.9709999561309814,-0.11840000003576279,9.757699966430664
1682999499125059600,12.5940595703125,0.9953999519348145,-0.08370000123977661,9.755599975585938
1682999499145056500,12.614056396484376,1.032099962234497,-0.01899999938905239,9.752099990844727
1682999499165059600,12.6340595703125,1.0490999221801758,0.044499997049570084,9.750199317932129
1682999499185059600,12.6540595703125,1.0500999689102173,0.07970000058412552,9.749899864196777
1682999499205092400,12.67409228515625,1.0478999614715576,0.09860000014305115,9.75
1682999499225059600,12.6940595703125,1.0612000226974487,0.13490000367164612,9.748099327087402
1682999499245056500,12.714056396484375,1.0902999639511108,0.19949999451637268,9.743800163269043
1682999499265058000,12.73405810546875,1.1308000087738037,0.2696000039577484,9.73740005493164
1682999499285058000,12.75405810546875,1.1643999814987183,0.314300000667572,9.732099533081055
1682999499305059600,12.7740595703125,1.1892999410629272,0.3238999843597412,9.728799819946289
1682999499325058000,12.79405810546875,1.2001999616622925,0.31859999895095825,9.727699279785156
1682999499345058000,12.81405810546875,1.201799988746643,0.3255999982357025,9.72719955444336
1682999499365058000,12.83405810546875,1.2026000022888184,0.35040000081062317,9.726299285888672
1682999499385058000,12.85405810546875,1.2062000036239624,0.37779998779296875,9.724800109863281
1682999499405058000,12.87405810546875,1.2056999206542969,0.39319998025894165,9.724199295043945
1682999499425056500,12.894056396484375,1.2038999795913696,0.3894999921321869,9.724599838256836
1682999499445058000,12.91405810546875,1.2099000215530396,0.3684999942779541,9.724699974060059
1682999499465059600,12.9340595703125,1.2246999740600586,0.3344999849796295,9.724100112915039
1682999499485059600,12.9540595703125,1.2315999269485474,0.29589998722076416,9.72439956665039
1682999499505058000,12.97405810546875,1.230199933052063,0.26170000433921814,9.72559928894043
1682999499525056500,12.994056396484375,1.2350000143051147,0.23709999024868011,9.72559928894043
1682999499545058000,13.01405810546875,1.2513999938964844,0.21930000185966492,9.723899841308594
1682999499565058000,13.03405810546875,1.274999976158142,0.19939999282360077,9.72130012512207
1682999499585058000,13.05405810546875,1.2833999395370483,0.16869999468326569,9.720799446105957
1682999499605056500,13.074056396484375,1.2759000062942505,0.12269999831914902,9.72249984741211
1682999499625058000,13.09405810546875,1.2638999223709106,0.07009999454021454,9.724599838256836
1682999499645058000,13.11405810546875,1.2560999393463135,0.02579999901354313,9.725799560546875
1682999499665056500,13.134056396484375,1.26419997215271,0.0007999999797903001,9.724800109863281
1682999499685058000,13.15405810546875,1.2719999551773071,-0.0005999999702908099,9.723699569702148
1682999499705058000,13.17405810546875,1.279099941253662,0.013799999840557575,9.722799301147461
1682999499725056500,13.194056396484376,1.3144999742507935,0.02879999950528145,9.718099594116211
1682999499745056500,13.214056396484375,1.3643999099731445,0.03779999911785126,9.711099624633789
1682999499765058000,13.23405810546875,1.4235999584197998,0.04039999842643738,9.70259952545166
1682999499785058000,13.25405810546875,1.4979000091552734,0.03830000013113022,9.691399574279785
1682999499805058000,13.27405810546875,1.5408999919891357,0.0405999980866909,9.684700012207031
1682999499825058000,13.29405810546875,1.500100016593933,0.030799999833106995,9.691100120544434
1682999499845059600,13.3140595703125,1.4147999286651611,0.00039999998989515007,9.703999519348145
1682999499865061000,13.33406103515625,1.3609999418258667,-0.012799999676644802,9.711699485778809
1682999499885058000,13.35405810546875,1.3531999588012695,0.024299999698996544,9.712800025939941
1682999499905058000,13.37405810546875,1.355199933052063,0.08869999647140503,9.7121000289917
1682999499925056500,13.394056396484375,1.3497999906539917,0.1264999955892563,9.71239948272705
1682999499945058000,13.41405810546875,1.3351999521255493,0.11339999735355377,9.714599609375
1682999499965056500,13.434056396484374,1.3154000043869019,0.07719999551773071,9.717700004577637
1682999499985058000,13.45405810546875,1.299899935722351,0.053999997675418854,9.719900131225586
1682999500005058000,13.47405810546875,1.2865999937057495,0.05509999766945839,9.721699714660645
1682999500025056500,13.494056396484375,1.2630999088287354,0.06359999626874924,9.724699974060059
1682999500045058000,13.51405810546875,1.2288999557495117,0.061400000005960464,9.729100227355957
1682999500065058000,13.53405810546875,1.1878999471664429,0.04429999738931656,9.734299659729004
1682999500085058000,13.55405810546875,1.1510999202728271,0.021399999037384987,9.738800048828125
1682999500105058000,13.57405810546875,1.1230000257492065,0.0032999999821186066,9.74209976196289
1682999500125058000,13.59405810546875,1.1039999723434448,-0.004100000020116568,9.74429988861084
1682999500145058000,13.61405810546875,1.0993999242782593,-0.003599999938160181,9.744799613952637
1682999500165058000,13.63405810546875,1.0956000089645386,-0.003700000001117587,9.745200157165527
1682999500185058000,13.65405810546875,1.0787999629974365,-0.013299999758601189,9.747099876403809
1682999500205058000,13.67405810546875,1.0467000007629395,-0.034199997782707214,9.750499725341797
1682999500225056500,13.694056396484376,0.9955999851226807,-0.05570000037550926,9.755799293518066
1682999500245056500,13.714056396484375,0.9346999526023865,-0.06790000200271606,9.761699676513672
1682999500265058000,13.73405810546875,0.8991000056266785,-0.06379999965429306,9.76509952545166
1682999500285058000,13.75405810546875,0.9162999987602234,-0.03669999912381172,9.763599395751953
1682999500305058000,13.77405810546875,0.9544999599456787,-0.0004999999655410647,9.760000228881836
1682999500325058000,13.79405810546875,0.9478999972343445,0.005399999674409628,9.760700225830078
1682999500345058000,13.81405810546875,0.9143999814987183,-0.033399999141693115,9.763799667358398
1682999500365056500,13.834056396484375,0.9018999934196472,-0.0648999959230423,9.764800071716309
1682999500385058000,13.85405810546875,0.9042999744415283,-0.05829999968409538,9.764599800109863
1682999500405058000,13.87405810546875,0.9247999787330627,-0.04149999842047691,9.762800216674805
1682999500425058000,13.89405810546875,0.9273999929428101,-0.03879999741911888,9.76259994506836
1682999500445058000,13.91405810546875,0.9017999768257141,-0.05009999871253967,9.764900207519531
1682999500465056500,13.934056396484374,0.904699981212616,-0.060099996626377106,9.764599800109863
1682999500485058000,13.95405810546875,0.9371999502182007,-0.06059999763965607,9.761499404907227
1682999500505056500,13.974056396484375,0.979699969291687,-0.05419999733567238,9.757399559020996
1682999500525056500,13.994056396484375,1.0121999979019165,-0.04729999974370003,9.75409984588623
1682999500545058000,14.01405810546875,1.041100025177002,-0.041200000792741776,9.751099586486816
1682999500565058000,14.03405810546875,1.0687999725341797,-0.03849999979138374,9.748099327087402
1682999500585058000,14.05405810546875,1.097499966621399,-0.04519999772310257,9.74489974975586
1682999500605058000,14.07405810546875,1.1175999641418457,-0.06189999729394913,9.742499351501465
1682999500625059600,14.0940595703125,1.1243000030517578,-0.07719999551773071,9.741600036621094
1682999500645058000,14.11405810546875,1.125999927520752,-0.08639999479055405,9.741399765014648
1682999500665058000,14.13405810546875,1.1273999214172363,-0.09889999777078629,9.74109935760498
1682999500685058000,14.15405810546875,1.125599980354309,-0.12349999696016312,9.741000175476074
1682999500705058000,14.17405810546875,1.1327999830245972,-0.1565999984741211,9.739699363708496
1682999500725056500,14.194056396484376,1.1456999778747559,-0.18940000236034393,9.73759937286377
1682999500745056500,14.214056396484375,1.1577999591827393,-0.21739999949932098,9.735599517822266
1682999500765058000,14.23405810546875,1.1687999963760376,-0.23999999463558197,9.733699798583984
1682999500785058000,14.25405810546875,1.1793999671936035,-0.25859999656677246,9.731999397277832
1682999500805058000,14.27405810546875,1.1927999258041382,-0.27959999442100525,9.7298002243042
1682999500825058000,14.29405810546875,1.2042999267578125,-0.3131999969482422,9.727299690246582
1682999500845058000,14.31405810546875,1.1998000144958496,-0.3649999797344208,9.726099967956543
1682999500865058000,14.33405810546875,1.190999984741211,-0.4292999804019928,9.724499702453613
1682999500885058000,14.35405810546875,1.1823999881744385,-0.4921000003814697,9.722599983215332
1682999500905058000,14.37405810546875,1.1796000003814697,-0.5374000072479248,9.720499992370605
1682999500925058000,14.39405810546875,1.2014999389648438,-0.5564999580383301,9.71679973602295
1682999500945058000,14.41405810546875,1.2496999502182007,-0.5512999892234802,9.710999488830566
1682999500965056500,14.434056396484374,1.3004000186920166,-0.5383999943733215,9.705100059509277
1682999500985058000,14.45405810546875,1.3384000062942505,-0.5483999848365784,9.699299812316895
1682999501005058000,14.47405810546875,1.3810999393463135,-0.5852000117301941,9.69119930267334
1682999501025056500,14.494056396484375,1.416599988937378,-0.6298999786376953,9.683300018310547
1682999501045058000,14.51405810546875,1.4636999368667603,-0.6559000015258789,9.67449951171875
1682999501065058000,14.53405810546875,1.517899990081787,-0.6452999711036682,9.666899681091309
1682999501085058000,14.55405810546875,1.5277999639511108,-0.6035999655723572,9.668000221252441
1682999501105058000,14.57405810546875,1.4840999841690063,-0.555899977684021,9.67770004272461
1682999501125058000,14.59405810546875,1.4397999048233032,-0.5036999583244324,9.687199592590332
1682999501145058000,14.61405810546875,1.438599944114685,-0.4253999888896942,9.69119930267334
1682999501165058000,14.63405810546875,1.5041999816894531,-0.3238999843597412,9.685099601745605
1682999501185058000,14.65405810546875,1.6200999021530151,-0.2305999994277954,9.669099807739258
1682999501205058000,14.67405810546875,1.7223999500274658,-0.17839999496936798,9.65250015258789
1682999501225056500,14.694056396484376,1.7548999786376953,-0.18709999322891235,9.646499633789062
1682999501245056500,14.714056396484375,1.7138999700546265,-0.22759999334812164,9.652999877929688
1682999501265058000,14.73405810546875,1.6445999145507812,-0.24889999628067017,9.664499282836914
1682999501285058000,14.75405810546875,1.5982999801635742,-0.23099999129772186,9.672699928283691
1682999501305058000,14.77405810546875,1.5645999908447266,-0.19499999284744263,9.678999900817871
1682999501325058000,14.79405810546875,1.5126999616622925,-0.17399999499320984,9.687699317932129
1682999501345058000,14.81405810546875,1.4465999603271484,-0.17749999463558197,9.697699546813965
1682999501365058000,14.83405810546875,1.367900013923645,-0.18940000236034393,9.70889949798584
1682999501385058000,14.85405810546875,1.2911999225616455,-0.19139999151229858,9.71929931640625
1682999501405058000,14.87405810546875,1.2333999872207642,-0.17569999396800995,9.727099418640137
1682999501425056500,14.894056396484375,1.1862999200820923,-0.14249999821186066,9.733499526977539
1682999501445058000,14.91405810546875,1.1345999240875244,-0.10659999400377274,9.740099906921387
1682999501465056500,14.934056396484374,1.0872999429702759,-0.08760000020265579,9.745699882507324
1682999501485058000,14.95405810546875,1.0548999309539795,-0.08889999985694885,9.749300003051758
1682999501505058000,14.97405810546875,1.0342999696731567,-0.10480000078678131,9.751299858093262
1682999501525056500,14.994056396484375,1.0084999799728394,-0.12849999964237213,9.75369930267334
1682999501545058000,15.01405810546875,0.9965999722480774,-0.14509999752044678,9.75469970703125
1682999501565058000,15.03405810546875,1.0184999704360962,-0.14469999074935913,9.7524995803833
1682999501585058000,15.05405810546875,1.0468999147415161,-0.14000000059604645,9.749499320983887
1682999501605058000,15.07405810546875,1.038699984550476,-0.15449999272823334,9.750199317932129
1682999501625058000,15.09405810546875,1.0108000040054321,-0.19209998846054077,9.7524995803833
1682999501645059600,15.1140595703125,0.9866999983787537,-0.2231999933719635,9.754300117492676
1682999501665059600,15.1340595703125,0.9638999700546265,-0.22689999639987946,9.756499290466309
1682999501685058000,15.15405810546875,0.9819999933242798,-0.20469999313354492,9.755199432373047
1682999501705058000,15.17405810546875,1.0351999998092651,-0.15959998965263367,9.750499725341797
1682999501725056500,15.194056396484376,1.04830002784729,-0.12389999628067017,9.74959945678711
1682999501745056500,15.214056396484375,1.0059000253677368,-0.13079999387264252,9.753999710083008
1682999501765058000,15.23405810546875,0.9452999830245972,-0.15160000324249268,9.75979995727539
1682999501785058000,15.25405810546875,0.9538999795913696,-0.13130000233650208,9.759200096130371
1682999501805058000,15.27405810546875,1.0310999155044556,-0.04989999905228615,9.752099990844727
1682999501825058000,15.29405810546875,1.1085000038146973,0.04619999974966049,9.743599891662598
1682999501845058000,15.31405810546875,1.1548999547958374,0.10419999808073044,9.737799644470215
1682999501865058000,15.33405810546875,1.1740000247955322,0.12680000066757202,9.735199928283691
1682999501885058000,15.35405810546875,1.1941999197006226,0.1525000035762787,9.732399940490723
1682999501905058000,15.37405810546875,1.2257000207901,0.2003999948501587,9.72760009765625
1682999501925058000,15.39405810546875,1.2560999393463135,0.24969999492168427,9.722599983215332
1682999501945058000,15.41405810546875,1.2727999687194824,0.2759999930858612,9.71969985961914
1682999501965056500,15.434056396484374,1.2668999433517456,0.2786000072956085,9.720399856567383
1682999501985058000,15.45405810546875,1.253499984741211,0.26649999618530273,9.72249984741211
1682999502005058000,15.47405810546875,1.242799997329712,0.24569998681545258,9.72439956665039
1682999502025056500,15.494056396484375,1.2352999448776245,0.21949999034404755,9.72599983215332
1682999502045058000,15.51405810546875,1.2293000221252441,0.19609999656677246,9.727299690246582
1682999502065058000,15.53405810546875,1.2307000160217285,0.1784999966621399,9.727399826049805
1682999502085058000,15.55405810546875,1.2358999252319336,0.16279999911785126,9.726999282836914
1682999502105056500,15.574056396484375,1.2414000034332275,0.14720000326633453,9.72659969329834
1682999502125058000,15.59405810546875,1.2527999877929688,0.13079999387264252,9.7253999710083
1682999502145058000,15.61405810546875,1.261199951171875,0.1070999950170517,9.724599838256836
1682999502165058000,15.63405810546875,1.2597999572753906,0.07039999961853027,9.725099563598633
1682999502185058000,15.65405810546875,1.244499921798706,0.02539999969303608,9.727299690246582
1682999502205058000,15.67405810546875,1.212499976158142,-0.020899999886751175,9.73129940032959
1682999502225056500,15.694056396484376,1.188599944114685,-0.05609999969601631,9.734099388122559
1682999502245056500,15.714056396484375,1.1979999542236328,-0.06839999556541443,9.73289966583252
1682999502265058000,15.73405810546875,1.2101999521255493,-0.06509999930858612,9.731399536132812
1682999502285056500,15.754056396484375,1.2214999198913574,-0.07809999585151672,9.729899406433105
1682999502305056500,15.774056396484376,1.24809992313385,-0.11840000003576279,9.726099967956543
1682999502325056500,15.794056396484375,1.3040000200271606,-0.15289999544620514,9.718299865722656
1682999502345058000,15.81405810546875,1.3873000144958496,-0.14639998972415924,9.706899642944336
1682999502365058000,15.83405810546875,1.426800012588501,-0.11299999803304672,9.701600074768066
1682999502385058000,15.85405810546875,1.3924999237060547,-0.0949999988079071,9.706799507141113
1682999502405058000,15.87405810546875,1.3466999530792236,-0.10159999877214432,9.713199615478516
1682999502425056500,15.894056396484375,1.333400011062622,-0.09059999883174896,9.715099334716797
1682999502445058000,15.91405810546875,1.3489999771118164,-0.034199997782707214,9.713299751281738
1682999502465056500,15.934056396484374,1.381600022315979,0.042899999767541885,9.708700180053711
1682999502485058000,15.95405810546875,1.4280999898910522,0.10809999704360962,9.701399803161621
1682999502505058000,15.97405810546875,1.4667999744415283,0.15459999442100525,9.694999694824219
1682999502525056500,15.994056396484375,1.4781999588012695,0.1785999983549118,9.692899703979492
1682999502545058000,16.01405810546875,1.4555999040603638,0.17159999907016754,9.696399688720703
1682999502565058000,16.03405810546875,1.417099952697754,0.14729999005794525,9.70259952545166
1682999502585058000,16.05405810546875,1.3736000061035156,0.12449999898672104,9.709099769592285
1682999502605056500,16.074056396484377,1.3273999691009521,0.10649999976158142,9.715799331665039
1682999502625058000,16.09405810546875,1.2789000272750854,0.08549999445676804,9.72249984741211
1682999502645058000,16.11405810546875,1.232699990272522,0.060999996960163116,9.728599548339844
1682999502665058000,16.13405810546875,1.1996999979019165,0.03869999945163727,9.73289966583252
1682999502685059600,16.1540595703125,1.1799999475479126,0.029399998486042023,9.735300064086914
1682999502705059600,16.1740595703125,1.166599988937378,0.032999999821186066,9.736899375915527
1682999502725056500,16.194056396484374,1.1418999433517456,0.04189999774098396,9.739799499511719
1682999502745056500,16.214056396484374,1.1035000085830688,0.04999999701976776,9.744199752807617
1682999502765058000,16.23405810546875,1.0543999671936035,0.05609999969601631,9.74959945678711
1682999502785058000,16.25405810546875,1.0067999362945557,0.05480000004172325,9.754599571228027
1682999502805058000,16.27405810546875,0.9617999792098999,0.03909999877214432,9.759200096130371
1682999502825056500,16.294056396484375,0.9261999726295471,0.018199998885393143,9.762700080871582
1682999502845058000,16.31405810546875,0.916700005531311,0.004900000058114529,9.763699531555176
1682999502865058000,16.33405810546875,0.906499981880188,-0.009099999442696571,9.764599800109863
1682999502885058000,16.35405810546875,0.880899965763092,-0.044499997049570084,9.766799926757812
1682999502905058000,16.37405810546875,0.8777999877929688,-0.08899999409914017,9.766799926757812
1682999502925056500,16.394056396484373,0.8658999800682068,-0.11889999359846115,9.767600059509277
1682999502945059600,16.4140595703125,0.8533999919891357,-0.1386999934911728,9.768400192260742
1682999502965058000,16.43405810546875,0.8791999816894531,-0.1501999944448471,9.765999794006348
1682999502985058000,16.45405810546875,0.930899977684021,-0.1508999913930893,9.761099815368652
1682999503005058000,16.47405810546875,0.9598999619483948,-0.16380000114440918,9.758099555969238
1682999503025056500,16.494056396484375,0.9459999799728394,-0.20709998905658722,9.758699417114258
1682999503045058000,16.51405810546875,0.9111999869346619,-0.25619998574256897,9.760799407958984
1682999503065058000,16.53405810546875,0.8746999502182007,-0.2613999843597412,9.763999938964844
1682999503085058000,16.55405810546875,0.848800003528595,-0.2069999873638153,9.767600059509277
1682999503105056500,16.574056396484377,0.8539999723434448,-0.12960000336170197,9.768499374389648
1682999503125058000,16.59405810546875,0.8886999487876892,-0.07779999822378159,9.765899658203125
1682999503145058000,16.61405810546875,0.9373999834060669,-0.06289999932050705,9.761499404907227
1682999503165056500,16.634056396484375,0.972000002861023,-0.06650000065565109,9.758099555969238
1682999503185058000,16.65405810546875,0.9921000003814697,-0.07159999758005142,9.755999565124512
1682999503205058000,16.67405810546875,0.9917999505996704,-0.07279999554157257,9.755999565124512
1682999503225056500,16.694056396484374,0.9718999862670898,-0.07029999792575836,9.758099555969238
1682999503245056500,16.714056396484374,0.9475999474525452,-0.06949999928474426,9.760499954223633
1682999503265058000,16.73405810546875,0.9376999735832214,-0.07559999823570251,9.76140022277832
1682999503285059600,16.7540595703125,0.9473999738693237,-0.09730000048875809,9.760199546813965
1682999503305056500,16.774056396484376,0.9703999757766724,-0.1340000033378601,9.757499694824219
1682999503325056500,16.794056396484375,0.9957000017166138,-0.17880000174045563,9.754300117492676
1682999503345058000,16.81405810546875,1.017699956893921,-0.22209998965263367,9.751099586486816
1682999503365058000,16.83405810546875,1.0362999439239502,-0.2556000053882599,9.748299598693848
1682999503385058000,16.85405810546875,1.0525000095367432,-0.2786000072956085,9.745999336242676
1682999503405058000,16.87405810546875,1.059899926185608,-0.30480000376701355,9.744400024414062
1682999503425056500,16.894056396484373,1.0611000061035156,-0.3440999984741211,9.742899894714355
1682999503445058000,16.91405810546875,1.0514999628067017,-0.38929998874664307,9.742300033569336
1682999503465056500,16.934056396484376,1.044600009918213,-0.4226999878883362,9.741600036621094
1682999503485056500,16.954056396484376,1.052799940109253,-0.4277999997138977,9.740499496459961
1682999503505056500,16.974056396484375,1.0829999446868896,-0.3937999904155731,9.738699913024902
1682999503525056500,16.994056396484375,1.1190999746322632,-0.3455999791622162,9.73639965057373
1682999503545056500,17.014056396484374,1.1309999227523804,-0.3312999904155731,9.735499382019043
1682999503565056500,17.034056396484374,1.1273000240325928,-0.36389997601509094,9.7347993850708
1682999503585056500,17.054056396484373,1.12909996509552,-0.4122999906539917,9.732600212097168
1682999503605056500,17.074056396484377,1.1620999574661255,-0.4267999827861786,9.728099822998047
1682999503625056500,17.094056396484376,1.198099970817566,-0.39249998331069946,9.725199699401855
1682999503645056500,17.114056396484376,1.1804999113082886,-0.3515999913215637,9.728899955749512
1682999503665056500,17.134056396484375,1.1129999160766602,-0.3472999930381775,9.73699951171875
1682999503685056500,17.154056396484375,1.0383999347686768,-0.3545999825000763,9.744999885559082
1682999503705056500,17.174056396484374,1.0134999752044678,-0.322299987077713,9.748799324035645
1682999503725056500,17.194056396484374,1.0592999458312988,-0.22749999165534973,9.746600151062012
1682999503745056500,17.214056396484374,1.1301000118255615,-0.11349999904632568,9.740599632263184
1682999503765056500,17.234056396484377,1.1922999620437622,-0.04079999774694443,9.733799934387207
1682999503785058000,17.25405810546875,1.2192999124526978,-0.032600000500679016,9.730400085449219
1682999503805058000,17.27405810546875,1.209399938583374,-0.056699998676776886,9.731599807739258
1682999503825056500,17.294056396484375,1.1891999244689941,-0.06589999794960022,9.734000205993652
1682999503845058000,17.31405810546875,1.1704999208450317,-0.05179999768733978,9.736299514770508
1682999503865056500,17.334056396484375,1.150499939918518,-0.033799998462200165,9.738800048828125
1682999503885058000,17.35405810546875,1.1227999925613403,-0.03009999915957451,9.74209976196289
1682999503905058000,17.37405810546875,1.089900016784668,-0.03999999910593033,9.745800018310547
1682999503925058000,17.39405810546875,1.0544999837875366,-0.054499998688697815,9.74959945678711
1682999503945058000,17.41405810546875,1.0240999460220337,-0.06340000033378601,9.752799987792969
1682999503965058000,17.43405810546875,1.00409996509552,-0.060499999672174454,9.754899978637695
1682999503985058000,17.45405810546875,0.9927999973297119,-0.0551999993622303,9.756099700927734
1682999504005059600,17.4740595703125,0.9747999906539917,-0.06399999558925629,9.757800102233887
1682999504025056500,17.494056396484375,0.9422999620437622,-0.09449999779462814,9.760799407958984
1682999504045058000,17.51405810546875,0.8917999863624573,-0.13769999146461487,9.764999389648438
1682999504065058000,17.53405810546875,0.8151999711990356,-0.18129999935626984,9.770999908447266
1682999504085056500,17.554056396484373,0.7245000004768372,-0.2214999943971634,9.777299880981445
1682999504105056500,17.574056396484377,0.6614999771118164,-0.25200000405311584,9.781000137329102
1682999504125058000,17.59405810546875,0.6750999689102173,-0.2515999972820282,9.780099868774414
1682999504145058000,17.61405810546875,0.6901999711990356,-0.2386999875307083,9.779399871826172
1682999504165058000,17.63405810546875,0.6518999934196472,-0.2597000002861023,9.781499862670898
1682999504185058000,17.65405810546875,0.6237999796867371,-0.3044999837875366,9.781999588012695
1682999504205058000,17.67405810546875,0.621999979019165,-0.32999998331069946,9.781299591064453
1682999504225056500,17.694056396484374,0.6190999746322632,-0.3276999890804291,9.781499862670898
1682999504245056500,17.714056396484374,0.6347000002861023,-0.31219998002052307,9.781099319458008
1682999504265058000,17.73405810546875,0.6789000034332275,-0.28439998626708984,9.778900146484375
1682999504285058000,17.75405810546875,0.7005000114440918,-0.24939998984336853,9.778399467468262
1682999504305058000,17.77405810546875,0.6829000115394592,-0.22659999132156372,9.780200004577637
1682999504325056500,17.794056396484375,0.6578999757766724,-0.21629999577999115,9.782099723815918
1682999504345058000,17.81405810546875,0.6543999910354614,-0.18479999899864197,9.782999992370605
1682999504365058000,17.83405810546875,0.6854999661445618,-0.11710000038146973,9.781899452209473
1682999504385058000,17.85405810546875,0.7350999712944031,-0.02759999968111515,9.778999328613281
1682999504405058000,17.87405810546875,0.7791000008583069,0.05009999871253967,9.77549934387207
1682999504425056500,17.894056396484373,0.7979999780654907,0.093299999833107,9.773599624633789
1682999504445058000,17.91405810546875,0.7895999550819397,0.11270000040531158,9.774099349975586
1682999504465058000,17.93405810546875,0.7676999568939209,0.1322999894618988,9.775599479675293
1682999504485058000,17.95405810546875,0.7488999962806702,0.1621999889612198,9.776599884033203
1682999504505058000,17.97405810546875,0.7387999892234802,0.19339999556541443,9.776800155639648
1682999504525056500,17.994056396484375,0.7394999861717224,0.21220000088214874,9.776399612426758
1682999504545058000,18.01405810546875,0.7429999709129333,0.20839999616146088,9.776199340820312
1682999504565056500,18.034056396484374,0.7475000023841858,0.1832999885082245,9.776299476623535
1682999504585058000,18.05405810546875,0.7555999755859375,0.14720000326633453,9.776299476623535
1682999504605058000,18.07405810546875,0.765500009059906,0.1127999946475029,9.776000022888184
1682999504625058000,18.09405810546875,0.7667999863624573,0.0843999981880188,9.776199340820312
1682999504645058000,18.11405810546875,0.7701999545097351,0.06289999932050705,9.776100158691406
1682999504665058000,18.13405810546875,0.7730000019073486,0.048499997705221176,9.776000022888184
1682999504685058000,18.15405810546875,0.7712000012397766,0.03449999913573265,9.776199340820312
1682999504705058000,18.17405810546875,0.7773000001907349,0.015199999324977398,9.775699615478516
1682999504725056500,18.194056396484374,0.8000999689102173,-0.003399999812245369,9.773900032043457
1682999504745056500,18.214056396484374,0.8312999606132507,-0.01529999915510416,9.771299362182617
1682999504765058000,18.23405810546875,0.8639999628067017,-0.01599999889731407,9.768400192260742
1682999504785058000,18.25405810546875,0.8956999778747559,-0.00419999985024333,9.765600204467773
1682999504805058000,18.27405810546875,0.9361000061035156,0.006899999920278788,9.761799812316895
1682999504825056500,18.294056396484375,1.004599928855896,0.007699999958276749,9.755000114440918
1682999504845058000,18.31405810546875,1.0799000263214111,0.0007999999797903001,9.746999740600586
1682999504865058000,18.33405810546875,1.1424000263214111,-0.012199999764561653,9.739799499511719
1682999504885058000,18.35405810546875,1.201300024986267,-0.023599999025464058,9.732699394226074
1682999504905061000,18.37406103515625,1.2274999618530273,-0.026499999687075615,9.729399681091309
1682999504925059600,18.3940595703125,1.1901999711990356,-0.025299999862909317,9.734099388122559
1682999504945058000,18.41405810546875,1.1269999742507935,-0.030899999663233757,9.741600036621094
1682999504965058000,18.43405810546875,1.0806000232696533,-0.03189999982714653,9.74679946899414
1682999504985058000,18.45405810546875,1.0728999376296997,-0.010699999518692493,9.747699737548828
1682999505005056500,18.474056396484375,1.0856000185012817,0.029999999329447746,9.746299743652344
1682999505025056500,18.494056396484375,1.0976999998092651,0.06359999626874924,9.744799613952637
1682999505045058000,18.51405810546875,1.1022999286651611,0.07289999723434448,9.744199752807617
1682999505065058000,18.53405810546875,1.0922999382019043,0.07009999454021454,9.745299339294434
1682999505085058000,18.55405810546875,1.0749999284744263,0.0738999992609024,9.747200012207031
1682999505105058000,18.57405810546875,1.0515999794006348,0.08720000088214874,9.749699592590332
1682999505125058000,18.59405810546875,1.0192999839782715,0.09829999506473541,9.752999305725098
1682999505145058000,18.61405810546875,0.9759999513626099,0.09649999439716339,9.757399559020996
1682999505165058000,18.63405810546875,0.9247999787330627,0.08139999955892563,9.76259994506836
1682999505185058000,18.65405810546875,0.8727999925613403,0.06159999966621399,9.767499923706055
1682999505205058000,18.67405810546875,0.8300999999046326,0.04479999840259552,9.771299362182617
1682999505225056500,18.694056396484374,0.7942000031471252,0.028099998831748962,9.774299621582031
1682999505245056500,18.714056396484374,0.761199951171875,0.005499999970197678,9.776999473571777
1682999505265058000,18.73405810546875,0.7297999858856201,-0.02369999885559082,9.779399871826172
1682999505285058000,18.75405810546875,0.6915000081062317,-0.06019999831914902,9.781999588012695
1682999505305058000,18.77405810546875,0.6362000107765198,-0.10589999705553055,9.785399436950684
1682999505325056500,18.794056396484375,0.568399965763092,-0.15569999814033508,9.788899421691895
1682999505345058000,18.81405810546875,0.508899986743927,-0.19409999251365662,9.791500091552734
1682999505365058000,18.83405810546875,0.49139997363090515,-0.21239998936653137,9.791999816894531
1682999505385058000,18.85405810546875,0.5020999908447266,-0.21939998865127563,9.791299819946289
1682999505405058000,18.87405810546875,0.4812999963760376,-0.24479998648166656,9.791699409484863
1682999505425056500,18.894056396484373,0.4607999920845032,-0.28619998693466187,9.791600227355957
1682999505445058000,18.91405810546875,0.46449998021125793,-0.3084999918937683,9.79069995880127
1682999505465058000,18.93405810546875,0.4763999879360199,-0.3028999865055084,9.790299415588379
1682999505485058000,18.95405810546875,0.529699981212616,-0.284199982881546,9.788199424743652
1682999505505058000,18.97405810546875,0.6148999929428101,-0.26420000195503235,9.783699989318848
1682999505525056500,18.994056396484375,0.6661999821662903,-0.2532999813556671,9.780699729919434
1682999505545058000,19.01405810546875,0.6663999557495117,-0.2644999921321869,9.780399322509766
1682999505565058000,19.03405810546875,0.6567999720573425,-0.2870999872684479,9.780399322509766
1682999505585058000,19.05405810546875,0.6530999541282654,-0.2863999903202057,9.780599594116211
1682999505605058000,19.07405810546875,0.6446999907493591,-0.25029999017715454,9.78219985961914
1682999505625058000,19.09405810546875,0.6473000049591064,-0.20019999146461487,9.783199310302734
1682999505645058000,19.11405810546875,0.6732000112533569,-0.15860000252723694,9.78219985961914
1682999505665058000,19.13405810546875,0.7128999829292297,-0.13589999079704285,9.779699325561523
1682999505685058000,19.15405810546875,0.7507999539375305,-0.12919999659061432,9.776999473571777
1682999505705058000,19.17405810546875,0.7754999995231628,-0.13040000200271606,9.774999618530273
1682999505725056500,19.194056396484374,0.7793999910354614,-0.12919999659061432,9.774700164794922
1682999505745056500,19.214056396484374,0.7737999558448792,-0.11989999562501907,9.775300025939941
1682999505765058000,19.23405810546875,0.7694000005722046,-0.10689999908208847,9.775799751281738
1682999505785058000,19.25405810546875,0.7671999931335449,-0.10260000079870224,9.776000022888184
1682999505805058000,19.27405810546875,0.7658999562263489,-0.11459999531507492,9.776000022888184
1682999505825056500,19.294056396484375,0.764799952507019,-0.1388999968767166,9.775699615478516
1682999505845058000,19.31405810546875,0.7710999846458435,-0.16669999063014984,9.774799346923828
1682999505865058000,19.33405810546875,0.7824999690055847,-0.1889999955892563,9.773499488830566
1682999505885056500,19.354056396484374,0.7857999801635742,-0.20739999413490295,9.772899627685547
1682999505905058000,19.37405810546875,0.788599967956543,-0.2264999896287918,9.772199630737305
1682999505925058000,19.39405810546875,0.7943999767303467,-0.2441999912261963,9.771299362182617
1682999505945058000,19.41405810546875,0.7954999804496765,-0.26159998774528503,9.77079963684082
1682999505965056500,19.434056396484376,0.7854999899864197,-0.2879999876022339,9.77079963684082
1682999505985058000,19.45405810546875,0.7717999815940857,-0.32189998030662537,9.770899772644043
1682999506005058000,19.47405810546875,0.776699960231781,-0.34759998321533203,9.769599914550781
1682999506025056500,19.494056396484375,0.814300000667572,-0.3455999791622162,9.766599655151367
1682999506045058000,19.51405810546875,0.8580999970436096,-0.3335999846458435,9.763299942016602
1682999506065058000,19.53405810546875,0.9218999743461609,-0.34439998865127563,9.757100105285645
1682999506085058000,19.55405810546875,1.013800024986267,-0.36800000071525574,9.747099876403809
1682999506105058000,19.57405810546875,1.1191999912261963,-0.37070000171661377,9.735499382019043
1682999506125058000,19.59405810546875,1.2339999675750732,-0.33469998836517334,9.722899436950684
1682999506145058000,19.61405810546875,1.2853000164031982,-0.27789998054504395,9.717999458312988
1682999506165058000,19.63405810546875,1.2387999296188354,-0.25220000743865967,9.724800109863281
1682999506185058000,19.65405810546875,1.159500002861023,-0.27239999175071716,9.734000205993652
1682999506205058000,19.67405810546875,1.1395000219345093,-0.28689998388290405,9.735899925231934
1682999506225056500,19.694056396484374,1.1792999505996704,-0.2554999887943268,9.732099533081055
1682999506245056500,19.714056396484374,1.2132999897003174,-0.20319999754428864,9.729100227355957
1682999506265058000,19.73405810546875,1.2132999897003174,-0.18299999833106995,9.729499816894531
1682999506285058000,19.75405810546875,1.1845999956130981,-0.21239998936653137,9.732500076293945
1682999506305058000,19.77405810546875,1.1524999141693115,-0.2547000050544739,9.735300064086914
1682999506325056500,19.794056396484375,1.1383999586105347,-0.2708999812602997,9.736499786376953
1682999506345058000,19.81405810546875,1.136299967765808,-0.2578999996185303,9.737099647521973
1682999506365059600,19.8340595703125,1.1274999380111694,-0.23489999771118164,9.738699913024902
1682999506385058000,19.85405810546875,1.101699948310852,-0.22419999539852142,9.741899490356445
1682999506405058000,19.87405810546875,1.0648999214172363,-0.2320999950170517,9.745800018310547
1682999506425058000,19.89405810546875,1.0259000062942505,-0.24729999899864197,9.749699592590332
1682999506445058000,19.91405810546875,0.9948999881744385,-0.2491999864578247,9.752799987792969
1682999506465058000,19.93405810546875,0.9761999845504761,-0.22689999639987946,9.755199432373047
1682999506485058000,19.95405810546875,0.9632999897003174,-0.1898999959230423,9.757299423217773
1682999506505058000,19.97405810546875,0.9529999494552612,-0.15799999237060547,9.758899688720703
1682999506525056500,19.994056396484375,0.9389999508857727,-0.13989999890327454,9.760499954223633
1682999506545058000,20.01405810546875,0.9143999814987183,-0.12839999794960022,9.762999534606934
1682999506565058000,20.03405810546875,0.8726999759674072,-0.11649999767541885,9.767000198364258
1682999506585058000,20.05405810546875,0.8222999572753906,-0.10089999437332153,9.771499633789062
1682999506605058000,20.07405810546875,0.7871999740600586,-0.0835999995470047,9.7746000289917
1682999506625058000,20.09405810546875,0.7836999893188477,-0.0640999972820282,9.774999618530273
1682999506645058000,20.11405810546875,0.7705999612808228,-0.052400000393390656,9.776100158691406
1682999506665056500,20.134056396484375,0.7285000085830688,-0.0616999976336956,9.77929973602295
1682999506685058000,20.15405810546875,0.7157999873161316,-0.07229999452829361,9.780200004577637
1682999506705058000,20.17405810546875,0.7383999824523926,-0.06079999729990959,9.778599739074707
1682999506725056500,20.194056396484374,0.7911999821662903,-0.03009999915957451,9.7746000289917
1682999506745056500,20.214056396484374,0.8597999811172485,0.0007999999797903001,9.768799781799316
1682999506765058000,20.23405810546875,0.8910999894142151,0.01269999984651804,9.765999794006348
1682999506785058000,20.25405810546875,0.8705999851226807,-0.0030999998562037945,9.767899513244629
1682999506805058000,20.27405810546875,0.8324999809265137,-0.029600000008940697,9.771200180053711
1682999506825056500,20.294056396484375,0.817799985408783,-0.03759999945759773,9.77239990234375
1682999506845058000,20.31405810546875,0.8506999611854553,-0.007599999662488699,9.769599914550781
1682999506865058000,20.33405810546875,0.8969999551773071,0.04749999940395355,9.765399932861328
1682999506885058000,20.35405810546875,0.9396999478340149,0.09489999711513519,9.76099967956543
1682999506905058000,20.37405810546875,0.981499969959259,0.11969999969005585,9.756599426269531
1682999506925058000,20.39405810546875,1.0170999765396118,0.13120000064373016,9.752799987792969
1682999506945058000,20.41405810546875,1.041700005531311,0.14339999854564667,9.750100135803223
1682999506965058000,20.43405810546875,1.052799940109253,0.15639999508857727,9.748700141906738
1682999506985058000,20.45405810546875,1.0534999370574951,0.15889999270439148,9.748499870300293
1682999507005058000,20.47405810546875,1.048699975013733,0.13939999043941498,9.74940013885498
1682999507025056500,20.494056396484375,1.0358999967575073,0.0957999974489212,9.751299858093262
1682999507045058000,20.51405810546875,1.0055999755859375,0.03189999982714653,9.754799842834473
1682999507065058000,20.53405810546875,0.9585999846458435,-0.0348999984562397,9.759599685668945
1682999507085058000,20.55405810546875,0.904699981212616,-0.09649999439716339,9.764299392700195
1682999507105058000,20.57405810546875,0.8648999929428101,-0.1500999927520752,9.767199516296387
1682999507125058000,20.59405810546875,0.8482999801635742,-0.19550000131130219,9.767899513244629
1682999507145058000,20.61405810546875,0.8263999819755554,-0.2368999868631363,9.768799781799316
1682999507165058000,20.63405810546875,0.7842999696731567,-0.2750000059604645,9.771299362182617
1682999507185061000,20.65406103515625,0.7443000078201294,-0.3052999973297119,9.773499488830566
1682999507205059600,20.6740595703125,0.7299999594688416,-0.3199000060558319,9.774199485778809
1682999507225056500,20.694056396484374,0.7440999746322632,-0.3208000063896179,9.773099899291992
1682999507245056500,20.714056396484374,0.7764999866485596,-0.3149999976158142,9.770699501037598
1682999507265058000,20.73405810546875,0.8133999705314636,-0.3046000003814697,9.768099784851074
1682999507285058000,20.75405810546875,0.8442999720573425,-0.2944999933242798,9.76569938659668
1682999507305058000,20.77405810546875,0.8579999804496765,-0.2924000024795532,9.764599800109863
1682999507325056500,20.794056396484375,0.8932999968528748,-0.28949999809265137,9.761499404907227
1682999507345059600,20.8140595703125,0.9598000049591064,-0.2689000070095062,9.755799293518066
1682999507365056500,20.834056396484375,1.022499918937683,-0.23959998786449432,9.750199317932129
1682999507385058000,20.85405810546875,1.0861999988555908,-0.21819999814033508,9.743800163269043
1682999507405058000,20.87405810546875,1.138700008392334,-0.2094999998807907,9.73799991607666
1682999507425056500,20.894056396484373,1.1430000066757202,-0.2190999984741211,9.737299919128418
1682999507445058000,20.91405810546875,1.0855000019073486,-0.2433999925851822,9.74329948425293
1682999507465058000,20.93405810546875,1.0145999193191528,-0.25540000200271606,9.75059986114502
1682999507485058000,20.95405810546875,1.017300009727478,-0.22269999980926514,9.751099586486816
1682999507505058000,20.97405810546875,1.077199935913086,-0.148499995470047,9.746099472045898
1682999507525056500,20.994056396484375,1.1435999870300293,-0.07699999958276749,9.739399909973145
1682999507545058000,21.01405810546875,1.1999999284744263,-0.044199999421834946,9.732799530029297
1682999507565058000,21.03405810546875,1.2303999662399292,-0.058799996972084045,9.728899955749512
1682999507585059600,21.0540595703125,1.2378000020980835,-0.09969999641180038,9.727699279785156
1682999507605059600,21.0740595703125,1.226099967956543,-0.13580000400543213,9.728699684143066
1682999507625058000,21.09405810546875,1.2034999132156372,-0.14790000021457672,9.73129940032959
1682999507645058000,21.11405810546875,1.1697999238967896,-0.14659999310970306,9.735499382019043
1682999507665058000,21.13405810546875,1.1236000061035156,-0.149399995803833,9.740900039672852
1682999507685058000,21.15405810546875,1.0782999992370605,-0.1639999896287918,9.745699882507324
1682999507705058000,21.17405810546875,1.0432000160217285,-0.1859000027179718,9.749199867248535
1682999507725056500,21.194056396484374,1.0159000158309937,-0.2061000019311905,9.751699447631836
1682999507745056500,21.214056396484374,0.9980999827384949,-0.21769998967647552,9.753199577331543
1682999507765058000,21.23405810546875,0.9916999936103821,-0.21789999306201935,9.753899574279785
1682999507785058000,21.25405810546875,0.9892999529838562,-0.20960000157356262,9.754300117492676
1682999507805058000,21.27405810546875,0.9787999987602234,-0.20080000162124634,9.755599975585938
1682999507825056500,21.294056396484375,0.9611999988555908,-0.19299998879432678,9.757499694824219
1682999507845058000,21.31405810546875,0.9393999576568604,-0.18389999866485596,9.75979995727539
1682999507865058000,21.33405810546875,0.920799970626831,-0.1753000020980835,9.761699676513672
1682999507885058000,21.35405810546875,0.9156999588012695,-0.1631999909877777,9.762399673461914
1682999507905058000,21.37405810546875,0.916700005531311,-0.14909999072551727,9.762499809265137
1682999507925058000,21.39405810546875,0.8907999992370605,-0.15109999477863312,9.764900207519531
1682999507945058000,21.41405810546875,0.8580999970436096,-0.1679999977350235,9.767499923706055
1682999507965058000,21.43405810546875,0.8477999567985535,-0.16689999401569366,9.768499374389648
1682999507985058000,21.45405810546875,0.8348999619483948,-0.13359999656677246,9.770099639892578
1682999508005058000,21.47405810546875,0.8143999576568604,-0.0925000011920929,9.772299766540527
1682999508025056500,21.494056396484375,0.811199963092804,-0.0689999982714653,9.772699356079102
1682999508045058000,21.51405810546875,0.8269999623298645,-0.06019999831914902,9.771499633789062
1682999508065058000,21.53405810546875,0.8488999605178833,-0.07149999588727951,9.769499778747559
1682999508085059600,21.5540595703125,0.8740999698638916,-0.10099999606609344,9.767000198364258
1682999508105059600,21.5740595703125,0.9053999781608582,-0.11449999362230301,9.763999938964844
1682999508125058000,21.59405810546875,0.9185999631881714,-0.0892999991774559,9.763099670410156
1682999508145056500,21.614056396484376,0.9404000043869019,-0.051500000059604645,9.761300086975098
1682999508165056500,21.634056396484375,0.9611999988555908,-0.01809999905526638,9.7593994140625
1682999508185056500,21.654056396484375,0.9799000024795532,0.013700000010430813,9.757499694824219
1682999508205058000,21.67405810546875,0.9970999956130981,0.045099999755620956,9.75570011138916
1682999508225056500,21.694056396484374,1.0013999938964844,0.0689999982714653,9.755099296569824
1682999508245056500,21.714056396484374,0.9972999691963196,0.07599999755620956,9.755499839782715
1682999508265058000,21.73405810546875,0.9926999807357788,0.06619999557733536,9.755999565124512
1682999508285059600,21.7540595703125,0.9917999505996704,0.046799998730421066,9.756199836730957
1682999508305059600,21.7740595703125,0.9937999844551086,0.02239999920129776,9.756099700927734
1682999508325059600,21.7940595703125,1.000999927520752,-0.006000000052154064,9.755399703979492
1682999508345058000,21.81405810546875,1.0097999572753906,-0.03449999913573265,9.754399299621582
1682999508365058000,21.83405810546875,1.0181999206542969,-0.054999999701976776,9.753399848937988
1682999508385058000,21.85405810546875,1.0253000259399414,-0.062199998646974564,9.752699851989746
1682999508405059600,21.8740595703125,1.0282999277114868,-0.05979999899864197,9.752399444580078
1682999508425058000,21.89405810546875,1.0267999172210693,-0.05639999732375145,9.7524995803833
1682999508445058000,21.91405810546875,1.021299958229065,-0.06019999831914902,9.75309944152832
1682999508465058000,21.93405810546875,1.010200023651123,-0.0697999969124794,9.754199981689453
1682999508485058000,21.95405810546875,0.9994999766349792,-0.08089999854564667,9.755199432373047
1682999508505058000,21.97405810546875,0.9947999715805054,-0.09160000085830688,9.755599975585938
1682999508525056500,21.994056396484375,0.9871999621391296,-0.1070999950170517,9.756199836730957
1682999508545058000,22.01405810546875,0.9842000007629395,-0.12719999253749847,9.75629997253418
1682999508565058000,22.03405810546875,0.9715999960899353,-0.1428999900817871,9.757299423217773
1682999508585058000,22.05405810546875,0.9361000061035156,-0.148499995470047,9.760700225830078
1682999508605058000,22.07405810546875,0.9138000011444092,-0.14949999749660492,9.762800216674805
1682999508625058000,22.09405810546875,0.9182999730110168,-0.14749999344348907,9.762399673461914
1682999508645058000,22.11405810546875,0.9405999779701233,-0.13349999487400055,9.760499954223633
1682999508665058000,22.13405810546875,0.9682999849319458,-0.10459999740123749,9.758099555969238
1682999508685056500,22.154056396484375,0.986799955368042,-0.06499999761581421,9.756599426269531
1682999508705058000,22.17405810546875,0.9715999960899353,-0.0340999998152256,9.758299827575684
1682999508725056500,22.194056396484374,0.9355999827384949,-0.032899998128414154,9.761799812316895
1682999508745056500,22.214056396484374,0.9246999621391296,-0.043699998408555984,9.762800216674805
1682999508765058000,22.23405810546875,0.9501000046730042,-0.03959999978542328,9.76039981842041
1682999508785058000,22.25405810546875,0.9666000008583069,-0.02290000021457672,9.75879955291748
1682999508805058000,22.27405810546875,0.9607999920845032,-0.023899998515844345,9.7593994140625
1682999508825059600,22.2940595703125,0.9513999819755554,-0.04809999838471413,9.760199546813965
1682999508845061000,22.31406103515625,0.9512999653816223,-0.06870000064373016,9.760099411010742
1682999508865058000,22.33405810546875,0.9587000012397766,-0.065700002014637,9.7593994140625
1682999508885058000,22.35405810546875,0.9731999635696411,-0.047599997371435165,9.758099555969238
1682999508905059600,22.3740595703125,0.9898999929428101,-0.031700000166893005,9.756499290466309
1682999508925058000,22.39405810546875,0.9935999512672424,-0.030299998819828033,9.756099700927734
1682999508945058000,22.41405810546875,0.9765999913215637,-0.0471000000834465,9.757699966430664
1682999508965058000,22.43405810546875,0.9532999992370605,-0.06929999589920044,9.759900093078613
1682999508985058000,22.45405810546875,0.9383999705314636,-0.07919999957084656,9.761300086975098
1682999509005058000,22.47405810546875,0.9317999482154846,-0.07840000092983246,9.761899948120117
1682999509025056500,22.494056396484375,0.9231999516487122,-0.08669999986886978,9.762700080871582
1682999509045058000,22.51405810546875,0.9037999510765076,-0.11289999634027481,9.764200210571289
1682999509065058000,22.53405810546875,0.8763999938964844,-0.14329999685287476,9.766300201416016
1682999509085058000,22.55405810546875,0.8389999866485596,-0.16019999980926514,9.769299507141113
1682999509105058000,22.57405810546875,0.795199990272522,-0.16659998893737793,9.772899627685547
1682999509125058000,22.59405810546875,0.7592999935150146,-0.17029999196529388,9.775699615478516
1682999509145058000,22.61405810546875,0.7394999861717224,-0.1679999977350235,9.777199745178223
1682999509165059600,22.6340595703125,0.7294999957084656,-0.15199999511241913,9.778200149536133
1682999509185056500,22.654056396484375,0.7015999555587769,-0.13349999487400055,9.780599594116211
1682999509205058000,22.67405810546875,0.6541000008583069,-0.13619999587535858,9.78380012512207
1682999509225059600,22.6940595703125,0.6378999948501587,-0.14569999277591705,9.784699440002441
1682999509245056500,22.714056396484374,0.6369999647140503,-0.13750000298023224,9.784899711608887
1682999509265058000,22.73405810546875,0.6504999995231628,-0.11259999871253967,9.784299850463867
1682999509285058000,22.75405810546875,0.6969000101089478,-0.08129999786615372,9.781499862670898
1682999509305058000,22.77405810546875,0.7200999855995178,-0.053700000047683716,9.779999732971191
1682999509325056500,22.794056396484375,0.6891999840736389,-0.03309999778866768,9.782299995422363
1682999509345058000,22.81405810546875,0.6614999771118164,-0.01860000006854534,9.784199714660645
1682999509365058000,22.83405810546875,0.6717999577522278,0.0013000000035390258,9.783599853515625
1682999509385058000,22.85405810546875,0.710599958896637,0.028699999675154686,9.780799865722656
1682999509405058000,22.87405810546875,0.748199999332428,0.05309999734163284,9.777899742126465
1682999509425056500,22.894056396484373,0.7709999680519104,0.0640999972820282,9.776000022888184
1682999509445058000,22.91405810546875,0.7910000085830688,0.06870000064373016,9.774399757385254
1682999509465056500,22.934056396484376,0.8118999600410461,0.08150000125169754,9.772600173950195
1682999509485058000,22.95405810546875,0.8308999538421631,0.10659999400377274,9.77079963684082
1682999509505059600,22.9740595703125,0.851099967956543,0.1371999979019165,9.768599510192871
1682999509525056500,22.994056396484375,0.8589999675750732,0.16099999845027924,9.767600059509277
1682999509545058000,23.01405810546875,0.8556999564170837,0.16669999063014984,9.767799377441406
1682999509565058000,23.03405810546875,0.859499990940094,0.15359999239444733,9.767600059509277
1682999509585056500,23.054056396484373,0.8783999681472778,0.13269999623298645,9.766300201416016
1682999509605056500,23.074056396484377,0.9009000062942505,0.11209999769926071,9.76449966430664
1682999509625058000,23.09405810546875,0.920799970626831,0.09609999507665634,9.762800216674805
1682999509645058000,23.11405810546875,0.9408999681472778,0.08489999920129776,9.76099967956543
1682999509665058000,23.13405810546875,0.962399959564209,0.07660000026226044,9.758999824523926
1682999509685056500,23.154056396484375,0.9805999994277954,0.06700000166893005,9.75719928741455
1682999509705058000,23.17405810546875,0.995199978351593,0.05260000005364418,9.755799293518066
1682999509725056500,23.194056396484374,1.007099986076355,0.03610000014305115,9.75469970703125
1682999509745059600,23.2140595703125,1.0104999542236328,0.021299999207258224,9.754399299621582
1682999509765059600,23.2340595703125,1.0082999467849731,0.008799999952316284,9.754599571228027
1682999509785058000,23.25405810546875,1.0098999738693237,-0.0023999998811632395,9.754499435424805
1682999509805058000,23.27405810546875,1.0234999656677246,-0.010599999688565731,9.752999305725098
1682999509825056500,23.294056396484375,1.0473999977111816,-0.011799999512732029,9.750499725341797
1682999509845058000,23.31405810546875,1.0750999450683594,-0.009499999694526196,9.747499465942383
1682999509865058000,23.33405810546875,1.1258000135421753,-0.012600000016391277,9.741799354553223
1682999509885058000,23.35405810546875,1.188499927520752,-0.023099999874830246,9.734299659729004
1682999509905058000,23.37405810546875,1.2525999546051025,-0.03659999743103981,9.726200103759766
1682999509925056500,23.394056396484373,1.347499966621399,-0.03610000014305115,9.713500022888184
1682999509945056500,23.414056396484376,1.4711999893188477,-0.009200000204145908,9.695599555969238
1682999509965056500,23.434056396484376,1.5318999290466309,0.03629999980330467,9.686100006103516
1682999509985059600,23.4540595703125,1.4814000129699707,0.06799999624490738,9.69379997253418
1682999510005059600,23.4740595703125,1.395900011062622,0.07029999792575836,9.706500053405762
1682999510025059600,23.4940595703125,1.3517999649047852,0.07849999517202377,9.712699890136719
1682999510045058000,23.51405810546875,1.340399980545044,0.11949999630451202,9.713799476623535
1682999510065058000,23.53405810546875,1.3277000188827515,0.1696999967098236,9.714799880981445
1682999510085056500,23.554056396484373,1.3213999271392822,0.1825999915599823,9.715399742126465
1682999510105058000,23.57405810546875,1.3229999542236328,0.15689998865127563,9.715700149536133
1682999510125058000,23.59405810546875,1.326799988746643,0.12479999661445618,9.71560001373291
1682999510145058000,23.61405810546875,1.3325999975204468,0.11889999359846115,9.714900016784668
1682999510165059600,23.6340595703125,1.33079993724823,0.13989999890327454,9.714900016784668
1682999510185059600,23.6540595703125,1.3158999681472778,0.16429999470710754,9.716499328613281
1682999510205058000,23.67405810546875,1.2907999753952026,0.17170000076293945,9.719799995422363
1682999510225056500,23.694056396484374,1.2633999586105347,0.15709999203681946,9.723599433898926
1682999510245059600,23.7140595703125,1.2384999990463257,0.13040000200271606,9.72719955444336
1682999510265059600,23.7340595703125,1.218999981880188,0.10579999536275864,9.729999542236328
1682999510285058000,23.75405810546875,1.2062000036239624,0.08810000121593475,9.73169994354248
1682999510305058000,23.77405810546875,1.1864999532699585,0.0689999982714653,9.734299659729004
1682999510325056500,23.794056396484375,1.1531000137329102,0.0414000004529953,9.738499641418457
1682999510345058000,23.81405810546875,1.1103999614715576,0.012899999506771564,9.743499755859375
1682999510365058000,23.83405810546875,1.0565999746322632,-0.007199999876320362,9.749499320983887
1682999510385056500,23.854056396484374,1.0022000074386597,-0.01640000008046627,9.755199432373047
1682999510405058000,23.87405810546875,0.9576999545097351,-0.019299998879432678,9.759699821472168
1682999510425058000,23.89405810546875,0.939300000667572,-0.016099998727440834,9.761499404907227
1682999510445056500,23.914056396484376,0.9347999691963196,-0.006099999882280827,9.761899948120117
1682999510465056500,23.934056396484376,0.8953999876976013,0.00039999998989515007,9.765600204467773
1682999510485058000,23.95405810546875,0.842199981212616,-0.001999999862164259,9.770400047302246
1682999510505058000,23.97405810546875,0.8046000003814697,0.0008999999845400453,9.773499488830566
1682999510525056500,23.994056396484375,0.7828999757766724,0.020099999383091927,9.775300025939941
1682999510545058000,24.01405810546875,0.8125,0.05590000003576279,9.772699356079102
1682999510565058000,24.03405810546875,0.8827999830245972,0.0949999988079071,9.766300201416016
1682999510585058000,24.05405810546875,0.9334999918937683,0.11270000040531158,9.76140022277832
1682999510605058000,24.07405810546875,0.9302999973297119,0.09519999474287033,9.761899948120117
1682999510625058000,24.09405810546875,0.8959999680519104,0.05429999902844429,9.765399932861328
1682999510645058000,24.11405810546875,0.8733999729156494,0.03150000050663948,9.767600059509277
1682999510665058000,24.13405810546875,0.8725000023841858,0.05700000002980232,9.767499923706055
1682999510685056500,24.154056396484375,0.8833000063896179,0.11159999668598175,9.76609992980957
1682999510705058000,24.17405810546875,0.9018999934196472,0.1485999971628189,9.763899803161621
1682999510725056500,24.194056396484374,0.9250999689102173,0.1468999981880188,9.761799812316895
1682999510745056500,24.214056396484374,0.9418999552726746,0.12520000338554382,9.760499954223633
1682999510765058000,24.23405810546875,0.9503999948501587,0.1136000007390976,9.75979995727539
1682999510785058000,24.25405810546875,0.9514999985694885,0.12459999322891235,9.759499549865723
1682999510805058000,24.27405810546875,0.9554999470710754,0.14479999244213104,9.758899688720703
1682999510825056500,24.294056396484375,0.9660999774932861,0.14999999105930328,9.757699966430664
1682999510845058000,24.31405810546875,0.9817999601364136,0.13289999961853027,9.756400108337402
1682999510865056500,24.334056396484375,1.0025999546051025,0.10409999638795853,9.75469970703125
1682999510885058000,24.35405810546875,1.021899938583374,0.0786999985575676,9.752900123596191
1682999510905058000,24.37405810546875,1.0365999937057495,0.06350000202655792,9.751399993896484
1682999510925056500,24.394056396484373,1.0484999418258667,0.05779999867081642,9.750199317932129
1682999510945056500,24.414056396484376,1.0647000074386597,0.05509999766945839,9.748499870300293
1682999510965056500,24.434056396484376,1.087399959564209,0.04779999703168869,9.745999336242676
1682999510985058000,24.45405810546875,1.108699917793274,0.02630000002682209,9.74370002746582
1682999511005058000,24.47405810546875,1.118299961090088,-0.015699999406933784,9.742599487304688
1682999511025056500,24.494056396484375,1.1172999143600464,-0.06799999624490738,9.742499351501465
1682999511045058000,24.51405810546875,1.1125999689102173,-0.11229999363422394,9.742599487304688
1682999511065058000,24.53405810546875,1.1252999305725098,-0.12929999828338623,9.741000175476074
1682999511085056500,24.554056396484373,1.1639000177383423,-0.1096000000834465,9.736700057983398
1682999511105058000,24.57405810546875,1.2131999731063843,-0.07609999924898148,9.730999946594238
1682999511125058000,24.59405810546875,1.2777999639511108,-0.060999996960163116,9.722799301147461
1682999511145059600,24.6140595703125,1.3523999452590942,-0.07259999960660934,9.712599754333496
1682999511165059600,24.6340595703125,1.4162999391555786,-0.0925000011920929,9.703299522399902
1682999511185056500,24.654056396484375,1.4657999277114868,-0.10399999469518661,9.695899963378906
1682999511205058000,24.67405810546875,1.4838999509811401,-0.10449999570846558,9.693099975585938
1682999511225056500,24.694056396484374,1.458799958229065,-0.10249999910593033,9.6968994140625
1682999511245056500,24.714056396484374,1.4235999584197998,-0.09559999406337738,9.702199935913086
1682999511265058000,24.73405810546875,1.410499930381775,-0.07000000029802322,9.704400062561035
1682999511285056500,24.754056396484376,1.4351999759674072,-0.02329999953508377,9.701000213623047
1682999511305058000,24.77405810546875,1.4675999879837036,0.026499999687075615,9.696099281311035
1682999511325056500,24.794056396484375,1.4891999959945679,0.05389999970793724,9.692699432373047
1682999511345058000,24.81405810546875,1.497999906539917,0.052799999713897705,9.691399574279785
1682999511365058000,24.83405810546875,1.4987999200820923,0.041999999433755875,9.691299438476562
1682999511385058000,24.85405810546875,1.490299940109253,0.04079999774694443,9.692599296569824
1682999511405058000,24.87405810546875,1.468500018119812,0.049799997359514236,9.695899963378906
1682999511425056500,24.894056396484373,1.430400013923645,0.056299999356269836,9.701600074768066
1682999511445056500,24.914056396484376,1.3767999410629272,0.05139999836683273,9.70930004119873
1682999511465056500,24.934056396484376,1.317199945449829,0.0364999994635582,9.717700004577637
1682999511485058000,24.95405810546875,1.2692999839782715,0.013599999248981476,9.724100112915039
1682999511505058000,24.97405810546875,1.233799934387207,-0.014299999922513962,9.728699684143066
1682999511525056500,24.994056396484375,1.2049000263214111,-0.043299999088048935,9.732199668884277
1682999511545058000,25.01405810546875,1.1825000047683716,-0.07050000131130219,9.7347993850708
1682999511565058000,25.03405810546875,1.1597999334335327,-0.10099999606609344,9.737199783325195
1682999511585058000,25.05405810546875,1.128000020980835,-0.14079999923706055,9.740499496459961
1682999511605058000,25.07405810546875,1.0809999704360962,-0.18979999423027039,9.744999885559082
1682999511625058000,25.09405810546875,1.017300009727478,-0.23759999871253967,9.750800132751465
1682999511645058000,25.11405810546875,0.9414999485015869,-0.2719999849796295,9.757499694824219
1682999511665058000,25.13405810546875,0.8762999773025513,-0.2938999831676483,9.762899398803711
1682999511685056500,25.154056396484375,0.8465999960899353,-0.3118000030517578,9.764999389648438
1682999511705058000,25.17405810546875,0.851099967956543,-0.3243999779224396,9.764200210571289
1682999511725056500,25.194056396484374,0.828499972820282,-0.33889999985694885,9.76569938659668
1682999511745056500,25.214056396484374,0.7835999727249146,-0.3644999861717224,9.768400192260742
1682999511765058000,25.23405810546875,0.758899986743927,-0.38109999895095825,9.769800186157227
1682999511785058000,25.25405810546875,0.7644999623298645,-0.36069998145103455,9.770099639892578
1682999511805058000,25.27405810546875,0.8046999573707581,-0.30699998140335083,9.768699645996094
1682999511825056500,25.294056396484375,0.870199978351593,-0.2557999789714813,9.764599800109863
1682999511845058000,25.31405810546875,0.9013999700546265,-0.23989999294281006,9.762100219726562
1682999511865058000,25.33405810546875,0.8844999670982361,-0.2651999890804291,9.762999534606934
