time,seconds_elapsed,z,y,x,,,z,y,x,,,t,z,y,x
1.683E+18,0.034056396,-0.221599996,0.071199998,0.351399988,,,2.241799831,-0.257499993,9.543399811,,,1,2.020199835,-0.186299995,9.894799799
1.683E+18,0.054056396,-0.221599996,0.071199998,0.351399988,,,2.241799831,-0.257499993,9.543399811,,,2,2.020199835,-0.186299995,9.894799799
1.683E+18,0.074062744,-0.221599996,0.071199998,0.351399988,,,2.241799831,-0.257499993,9.543399811,,,3,2.020199835,-0.186299995,9.894799799
1.683E+18,0.094058105,0.0005,-0.0005,0.0035,,,1.372399926,-1.411599994,9.606900215,,,4,1.372899926,-1.412099994,9.610400215
1.683E+18,0.114058105,-0.027199998,-0.171899989,0.131499991,,,1.370700002,-1.416700006,9.606399536,,,5,1.343500003,-1.588599995,9.737899527
1.683E+18,0.134058105,-0.024799999,-0.129199997,0.25909999,,,1.368299961,-1.420099974,9.606200218,,,6,1.343499962,-1.54929997,9.865300208
1.683E+18,0.154058105,0.099100001,-0.133699998,0.240799993,,,1.371799946,-1.425499916,9.604999542,,,7,1.470899947,-1.559199914,9.845799536
1.683E+18,0.174058105,0.187999994,-0.109899998,0.272199988,,,1.380999923,-1.4296,9.602999687,,,8,1.568999916,-1.539499998,9.875199676
1.683E+18,0.194056396,0.399699986,-0.058899999,0.189099997,,,1.414399981,-1.431699991,9.597899437,,,9,1.814099967,-1.49059999,9.786999434
1.683E+18,0.214056396,0.324799985,0.061699998,0.078699999,,,1.479499936,-1.414999962,9.590499878,,,10,1.804299921,-1.353299964,9.669199876
1.683E+18,0.234058105,0.089999996,0.115199998,0.027099999,,,1.547599912,-1.321399927,9.593099594,,,11,1.637599908,-1.206199929,9.620199593
1.683E+18,0.254056396,0.0298,0.145799994,0.077500001,,,1.529399991,-1.351999998,9.591799736,,,12,1.559199991,-1.206200004,9.669299737
1.683E+18,0.27405957,-0.037599999,0.170699999,0.169499993,,,1.537999988,-1.298399925,9.597799301,,,13,1.500399988,-1.127699926,9.767299294
1.683E+18,0.294058105,-0.053399999,0.0898,0.173199996,,,1.53429997,-1.256799936,9.603899956,,,14,1.480899971,-1.166999936,9.777099952
1.683E+18,0.314058105,0.011,0.133399993,0.029199999,,,1.528499961,-1.21209991,9.610599518,,,15,1.539499961,-1.078699917,9.639799517
1.683E+18,0.334058105,0.093599997,0.146499991,-0.153099999,,,1.534199953,-1.156599998,9.616499901,,,16,1.627799951,-1.010100007,9.463399902
1.683E+18,0.354056396,0.151999995,0.066500001,-0.0277,,,1.544399977,-1.125699997,9.618599892,,,17,1.696399972,-1.059199996,9.590899892
1.683E+18,0.374058105,0.193999991,0.132100001,0.079700001,,,1.551499963,-1.112699986,9.618899345,,,18,1.745499954,-0.980599985,9.698599346
1.683E+18,0.394056396,0.32159999,0.345699996,0.215599999,,,1.55129993,-1.100799918,9.620299339,,,19,1.87289992,-0.755099922,9.835899338
1.683E+18,0.414058105,0.156000003,0.399299979,0.153799996,,,1.550199986,-1.075899959,9.623299599,,,20,1.706199989,-0.676599979,9.777099594
1.683E+18,0.434058105,0.285600007,0.111499995,0.243399993,,,1.567699909,-1.062799931,9.621899605,,,21,1.853299916,-0.951299936,9.865299597
1.683E+18,0.454058105,0.22829999,0.018299999,0.0394,,,1.595600009,-1.038200021,9.619999886,,,22,1.823899999,-1.019900022,9.659399886
1.683E+18,0.474056396,0.403799981,-0.027799999,-0.232199997,,,1.635899901,-1.001799941,9.617099762,,,23,2.039699882,-1.02959994,9.384899765
1.683E+18,0.494056396,0.534200013,0.0616,-0.39139998,,,1.701599956,-0.963799953,9.609600067,,,24,2.235799968,-0.902199954,9.218200088
1.683E+18,0.514058105,0.229699999,0.224199995,-0.422399998,,,1.770699978,-0.920399964,9.601399422,,,25,2.000399977,-0.696199968,9.178999424
1.683E+18,0.534056396,0.0537,0.372999996,-0.362599999,,,1.789899945,-0.892799973,9.600399971,,,26,1.843599945,-0.519799978,9.237799972
1.683E+18,0.554058105,-0.038699999,0.56159997,-0.569299996,,,1.794099927,-0.875400007,9.601299286,,,27,1.755399927,-0.313800037,9.03199929
1.683E+18,0.574058105,-0.1237,0.666999996,-0.57190001,,,1.790899992,-0.853299975,9.60379982,,,28,1.667199992,-0.18629998,9.03189981
1.683E+18,0.594058105,-0.103599995,0.540099978,-0.520200014,,,1.770699978,-0.814700007,9.610899925,,,29,1.667099983,-0.274600029,9.090699911
1.683E+18,0.614058105,-0.149199992,0.175799996,-0.491099983,,,1.737800002,-0.764199972,9.621099472,,,30,1.58860001,-0.588399976,9.129999489
1.683E+18,0.634058105,-0.075199999,-0.158999994,-0.206999987,,,1.703099966,-0.713699996,9.631199837,,,31,1.627899967,-0.872699991,9.424199849
1.683E+18,0.654058105,0.151600003,-0.371499985,0.363499999,,,1.672399998,-0.677699983,9.639100075,,,32,1.824000001,-1.049199969,10.00260007
1.683E+18,0.674058105,0.067599997,-0.334299982,0.561199963,,,1.628899932,-0.665899992,9.647399902,,,33,1.696499929,-1.000199974,10.20859987
1.683E+18,0.694058105,0.274899989,-0.310799986,1.016299963,,,1.588199973,-0.6796,9.65320015,,,34,1.863099962,-0.990399987,10.66950011
1.683E+18,0.714056396,0.386500001,-0.225799993,1.228500009,,,1.555099964,-0.70569998,9.656700134,,,35,1.941599965,-0.931499973,10.88520014
1.683E+18,0.734058105,0.213100001,-0.015799999,1.10439992,,,1.503000021,-0.729399979,9.663199425,,,36,1.716100022,-0.745199978,10.76759934
1.683E+18,0.754058105,0.403499991,0.308599979,1.066900015,,,1.440099955,-0.749899983,9.671199799,,,37,1.843599945,-0.441300005,10.73809981
1.683E+18,0.774058105,0.367300004,0.667299986,0.716499984,,,1.388000011,-0.755599976,9.67840004,,,38,1.755300015,-0.08829999,10.39490002
1.683E+18,0.794058105,0.212899998,0.898999989,-0.0083,,,1.336399913,-0.732299984,9.6875,,,39,1.549299911,0.166700006,9.6792
1.683E+18,0.814058105,0.135700002,1.07099998,-0.576699972,,,1.296000004,-0.67869997,9.696899414,,,40,1.431700006,0.39230001,9.120199442
1.683E+18,0.834058105,0.049899999,1.183399916,-0.859099984,,,1.273899913,-0.604799986,9.704699516,,,41,1.323799912,0.57859993,8.845599532
1.683E+18,0.854058105,-0.0274,1.174099922,-0.659099996,,,1.263000011,-0.526899993,9.710599899,,,42,1.235600011,0.647199929,9.051499903
1.683E+18,0.874058105,-0.068399996,1.09920001,-0.447699994,,,1.254999995,-0.461799979,9.715000153,,,43,1.1866,0.637400031,9.267300159
1.683E+18,0.894056396,0.053199999,1.083599925,-0.0955,,,1.260800004,-0.426599979,9.715799332,,,44,1.314000003,0.656999946,9.620299332
1.683E+18,0.914058105,0.225999996,0.994199991,0.495799989,,,1.284099936,-0.425399989,9.712800026,,,45,1.510099933,0.568800002,10.20860001
1.683E+18,0.934058105,0.118099995,1.011699915,0.637399971,,,1.313599944,-0.433099985,9.708600044,,,46,1.431699939,0.57859993,10.34600002
1.683E+18,0.954058105,0.300099999,0.994499981,0.575299978,,,1.357199907,-0.445299983,9.701999664,,,47,1.657299906,0.549199998,10.27729964
1.683E+18,0.974058105,0.379500002,0.889299989,0.787199974,,,1.395399928,-0.457800001,9.696000099,,,48,1.77489993,0.431499988,10.48320007
1.683E+18,0.994056396,0.465799987,0.881999969,0.9278,,,1.416999936,-0.460299999,9.692799568,,,49,1.882799923,0.421699971,10.62059957
1.683E+18,1.014058105,0.457699984,1.014599919,0.646299958,,,1.444700003,-0.43599999,9.689799309,,,50,1.902399987,0.57859993,10.33609927
1.683E+18,1.034058105,0.361499995,1.073099971,0.570299983,,,1.472299933,-0.396400005,9.687299728,,,51,1.833799928,0.676699966,10.25759971
1.683E+18,1.054058105,0.490499973,1.051399946,0.700500011,,,1.500100017,-0.355199993,9.684700012,,,52,1.99059999,0.696199954,10.38520002
1.683E+18,1.074058105,0.452600002,0.850199997,1.036800027,,,1.528199911,-0.310799986,9.681799889,,,53,1.980799913,0.539400011,10.71859992
1.683E+18,1.094058105,0.224599987,0.714699984,1.400399923,,,1.540499926,-0.273399979,9.680999756,,,54,1.765099913,0.441300005,11.08139968
1.683E+18,1.114058105,0.1391,0.669399977,1.763499975,,,1.547500014,-0.237999991,9.680799484,,,55,1.686600015,0.431399986,11.44429946
1.683E+18,1.134058105,0.337399989,0.399800003,2.422499895,,,1.564999938,-0.203699991,9.678799629,,,56,1.902399927,0.196100011,12.10129952
1.683E+18,1.154058105,0.196099997,-0.203999996,2.973099947,,,1.57889998,-0.158799991,9.677399635,,,57,1.774999976,-0.362799987,12.65049958
1.683E+18,1.174058105,0.047399998,-0.322400004,2.523099899,,,1.590199947,-0.099199995,9.676300049,,,58,1.637599945,-0.421599999,12.19939995
1.683E+18,1.194058105,-0.224399999,-0.358799994,1.083799958,,,1.60710001,-0.033399999,9.673899651,,,59,1.382700011,-0.392199993,10.75769961
1.683E+18,1.214056396,-0.34709999,-0.211099997,-0.149199992,,,1.621999979,0.024699999,9.671500206,,,60,1.274899989,-0.186399998,9.522300214
1.683E+18,1.234058105,-0.184399992,-0.159099996,-0.27759999,,,1.616099954,0.051199999,9.672399521,,,61,1.431699961,-0.107899997,9.394799531
1.683E+18,1.25405957,-0.242499992,0.068499997,-0.24499999,,,1.576200008,0.0491,9.678999901,,,62,1.333700016,0.117599998,9.433999911
1.683E+18,1.27405957,-0.301899999,-0.1417,-0.163000003,,,1.537499905,0.0436,9.685199738,,,63,1.235599905,-0.098099999,9.522199735
1.683E+18,1.29405957,-0.434899986,-0.471599996,-0.0995,,,1.503799915,0.069499999,9.690400124,,,64,1.06889993,-0.402099997,9.590900123
1.683E+18,1.31405957,-0.533500016,-0.788599968,0.0016,,,1.45539999,0.131599993,9.697099686,,,65,0.921899974,-0.656999975,9.698699686
1.683E+18,1.334058105,-0.269899994,-1.002699971,0.0069,,,1.417299986,0.198599994,9.701600075,,,66,1.147399992,-0.804099977,9.708500075
1.683E+18,1.354058105,-0.159999996,-1.122799993,-0.0048,,,1.395699978,0.25,9.703499794,,,67,1.235699981,-0.872799993,9.698699794
1.683E+18,1.374058105,-0.135199994,-1.13259995,-0.162699997,,,1.380599976,0.289199978,9.70459938,,,68,1.245399982,-0.843399972,9.541899383
1.683E+18,1.394056396,-0.234899998,-1.088699937,-0.564899981,,,1.372499943,0.323699981,9.704699516,,,69,1.137599945,-0.764999956,9.139799535
1.683E+18,1.414058105,-0.544499993,-0.998399973,-1.03489995,,,1.368299961,0.361000001,9.703999519,,,70,0.823799968,-0.637399971,8.669099569
1.683E+18,1.434058105,-0.803200006,-0.872399986,-1.455799937,,,1.362200022,0.40169999,9.703199387,,,71,0.559000015,-0.470699996,8.247399449
1.683E+18,1.454058105,-1.077700019,-0.960299969,-1.770699978,,,1.342499971,0.440499991,9.704299927,,,72,0.264799953,-0.519799978,7.933599949
1.683E+18,1.474058105,-1.09589994,-0.999300003,-1.616599917,,,1.31159997,0.469799995,9.707099915,,,73,0.21570003,-0.529500008,8.090499997
1.683E+18,1.49405957,-0.979900002,-0.890299976,-1.434399962,,,1.274099946,0.488199979,9.71119976,,,74,0.294199944,-0.402099997,8.276799798
1.683E+18,1.514058105,-0.70569998,-0.749799967,-1.271099925,,,1.245100021,0.494800001,9.714599609,,,75,0.539400041,-0.254999965,8.443499684
1.683E+18,1.534058105,-0.550300002,-0.627799988,-1.265100002,,,1.217100024,0.490499973,9.718400002,,,76,0.666800022,-0.137300014,8.453299999
1.683E+18,1.554058105,-0.395999998,-0.508300006,-1.327799916,,,1.190299988,0.478899986,9.722299576,,,77,0.79429999,-0.029400021,8.39449966
1.683E+18,1.574058105,-0.186499998,-0.394699991,-1.30189991,,,1.167199969,0.463399976,9.725899696,,,78,0.980699971,0.068699986,8.423999786
1.683E+18,1.594058105,0.0253,-0.111899994,-1.461599946,,,1.15139997,0.4454,9.728599548,,,79,1.17669997,0.333500005,8.266999602
1.683E+18,1.614058105,0.0019,0.151999995,-1.502399921,,,1.145399928,0.426499993,9.730099678,,,80,1.147299928,0.578499988,8.227699757
1.683E+18,1.634058105,-0.052099999,0.459199995,-1.35679996,,,1.140699983,0.403699994,9.731699944,,,81,1.088599984,0.862899989,8.374899983
1.683E+18,1.654058105,-0.081699997,0.787799954,-0.691999972,,,1.130999923,0.379099995,9.733799934,,,82,1.049299926,1.166899949,9.041799963
1.683E+18,1.674058105,-0.189300001,0.940499961,0.471599996,,,1.111099958,0.353899986,9.736999512,,,83,0.921799958,1.294399947,10.20859951
1.683E+18,1.694056396,-0.265899986,0.768999994,1.135499954,,,1.089599967,0.338999987,9.739999771,,,84,0.823699981,1.10799998,10.87549973
1.683E+18,1.714056396,-0.296999991,0.965699971,1.477800012,,,1.081599951,0.338499993,9.74090004,,,85,0.78459996,1.304199964,11.21870005
1.683E+18,1.734058105,-0.273799986,1.173900008,2.007999897,,,1.087700009,0.336199999,9.740300179,,,86,0.813900024,1.510100007,11.74830008
1.683E+18,1.754058105,-0.511699975,1.188199997,2.61500001,,,1.080500007,0.331799984,9.741199493,,,87,0.568800032,1.519999981,12.3561995
1.683E+18,1.774058105,-0.692699969,0.982799947,2.91629982,,,1.055500031,0.331200004,9.743999481,,,88,0.362800062,1.313999951,12.6602993
1.683E+18,1.794058105,-0.782700002,0.388099998,3.161199808,,,1.047500014,0.347299993,9.744299889,,,89,0.264800012,0.735399991,12.9054997
1.683E+18,1.814058105,-0.620199978,-0.178899989,2.850999832,,,1.07130003,0.375099987,9.740699768,,,90,0.451100051,0.196199998,12.5916996
1.683E+18,1.834058105,-0.078400001,-0.392800003,2.143300056,,,1.137499928,0.392800003,9.732500076,,,91,1.059099928,0,11.87580013
1.683E+18,1.854056396,0.481999993,-0.467699975,1.888499975,,,1.224300027,0.379399985,9.722499847,,,92,1.70630002,-0.08829999,11.61099982
1.683E+18,1.874058105,0.517799973,-0.470599979,1.659500003,,,1.286599994,0.333299994,9.716099739,,,93,1.804399967,-0.137299985,11.37559974
1.683E+18,1.894056396,0.432099998,-0.468899995,0.848899961,,,1.323199987,0.282599986,9.712800026,,,94,1.755299985,-0.186300009,10.56169999
1.683E+18,1.914058105,0.215399995,-0.628099978,-0.020099999,,,1.353500009,0.265300006,9.70909977,,,95,1.568900004,-0.362799972,9.68899977
1.683E+18,1.934058105,0.0757,-1.124199986,0.351799995,,,1.346099973,0.280799985,9.709699631,,,96,1.421799973,-0.843400002,10.06149963
1.683E+18,1.954058105,0.0149,-1.684599996,1.421899915,,,1.279500008,0.291999996,9.718400002,,,97,1.294400007,-1.3926,11.14029992
1.683E+18,1.974058105,-0.068899997,-1.912599921,1.792099953,,,1.18690002,0.274899989,9.730599403,,,98,1.118000023,-1.637699932,11.52269936
1.683E+18,1.994056396,-0.0308,-1.643199921,0.832199991,,,1.119300008,0.25059998,9.739299774,,,99,1.088500008,-1.39259994,10.57149976
1.683E+18,2.014058105,0.081500001,-1.39139998,-0.592599988,,,1.095199943,0.243999988,9.742199898,,,100,1.176699944,-1.147399992,9.14959991
1.683E+18,2.034058105,0.211999997,-1.219200015,-1.396999955,,,1.092199922,0.248300001,9.742400169,,,101,1.304199919,-0.970900014,8.345400214
1.683E+18,2.054058105,0.4023,-1.208899975,-1.476099968,,,1.088199973,0.238099992,9.743100166,,,102,1.490499973,-0.970799983,8.267000198
1.683E+18,2.074058105,0.393999994,-1.22299993,-1.518299937,,,1.067099929,0.212899998,9.745999336,,,103,1.461099923,-1.010099933,8.227699399
1.683E+18,2.094058105,0.194699988,-1.32919991,-1.728500009,,,1.031000018,0.191599995,9.75039959,,,104,1.225700006,-1.137599915,8.021899581
1.683E+18,2.114058105,0.035,-1.276199937,-2.105000019,,,0.994599998,0.187699988,9.754199982,,,105,1.029599998,-1.088499948,7.649199963
1.683E+18,2.134058105,0.0638,-1.059999943,-2.304100037,,,0.965799987,0.187199995,9.757100105,,,106,1.029599987,-0.872799948,7.453000069
1.683E+18,2.154058105,0.371099979,-0.713499963,-1.698699951,,,0.942900002,0.164299995,9.759799957,,,107,1.313999981,-0.549199969,8.061100006
1.683E+18,2.174058105,0.592999995,-0.590399981,-0.71239996,,,0.907299995,0.109899998,9.763899803,,,108,1.50029999,-0.480499983,9.051499844
1.683E+18,2.194058105,0.876399994,-0.468099982,0.037799999,,,0.859299958,0.046399999,9.768799782,,,109,1.735699952,-0.421699982,9.806599781
1.683E+18,2.214056396,1.078400016,-0.224199995,0.073899999,,,0.824000001,0.0084,9.771900177,,,110,1.902400017,-0.215799996,9.845800176
1.683E+18,2.234058105,1.16110003,0.0232,-0.289199978,,,0.81979996,-0.0035,9.772299767,,,111,1.98089999,0.0197,9.483099788
1.683E+18,2.254058105,1.127399921,0.065399997,-0.630400002,,,0.843699992,-0.0066,9.770199776,,,112,1.971099913,0.058799997,9.139799774
1.683E+18,2.274056396,1.153499961,0.14639999,-0.989499986,,,0.886199951,-0.009099999,9.766499519,,,113,2.039699912,0.13729999,8.776999533
1.683E+18,2.294058105,1.135800004,0.327099979,-1.180299997,,,0.943099976,-0.0133,9.761099815,,,114,2.07889998,0.313799979,8.580799818
1.683E+18,2.314058105,0.896299958,0.330899984,-0.880799949,,,0.996299982,-0.016999999,9.755799294,,,115,1.89259994,0.313899985,8.874999344
1.683E+18,2.334058105,0.693199992,0.353300005,-0.131699994,,,1.032699943,-0.0198,9.752099991,,,116,1.725899935,0.333500005,9.620399997
1.683E+18,2.354058105,0.468899995,0.162499994,0.967399955,,,1.041299939,-0.0252,9.751099586,,,117,1.510199934,0.137299994,10.71849954
1.683E+18,2.374058105,0.352099985,-0.187899992,2.465699911,,,1.020699978,-0.027799999,9.753299713,,,118,1.372799963,-0.215699991,12.21899962
1.683E+18,2.394056396,0.103299998,-0.568099976,1.873600006,,,0.985199988,-0.020199999,9.756999969,,,119,1.088499986,-0.588299975,11.63059998
1.683E+18,2.414058105,0.152500004,-0.230299994,1.206799984,,,0.984899998,0.0244,9.756999969,,,120,1.137400001,-0.205899995,10.96379995
1.683E+18,2.434058105,0.645599961,-0.534200013,1.818699956,,,1.021399975,0.063500002,9.752999306,,,121,1.666999936,-0.470700011,11.57169926
1.683E+18,2.454058105,0.501299977,-0.4912,2.995100021,,,1.018700004,0.049899999,9.753399849,,,122,1.519999981,-0.441300001,12.74849987
1.683E+18,2.474058105,0.350299984,-0.397199988,3.746500015,,,0.983399987,-0.0048,9.757199287,,,123,1.333699971,-0.401999988,13.5036993
1.683E+18,2.494056396,-0.222199991,-0.505100012,3.538100004,,,0.957699955,-0.034199998,9.759699821,,,124,0.735499963,-0.53930001,13.29779983
1.683E+18,2.514058105,-0.533199966,-0.488299996,1.684299946,,,0.954899967,-0.0118,9.760000229,,,125,0.421700001,-0.500099995,11.44430017
1.683E+18,2.534058105,-0.167499989,-0.449599981,-0.446699977,,,1.020699978,0.047499999,9.753199577,,,126,0.853199989,-0.402099982,9.3064996
1.683E+18,2.554058105,0.279899985,-0.639800012,-1.375199914,,,1.132099986,0.120099999,9.740300179,,,127,1.411999971,-0.519700013,8.365100265
1.683E+18,2.574058105,0.523000002,-1.107599974,-0.863299966,,,1.222499967,0.175899997,9.728499413,,,128,1.745499969,-0.931699976,8.865199447
1.683E+18,2.594058105,0.327699989,-1.605099916,0.337199986,,,1.251099944,0.202699989,9.724299431,,,129,1.578799933,-1.402399927,10.06149942
1.683E+18,2.614058105,-0.326299995,-1.942299962,0.687599957,,,1.228500009,0.216299996,9.726900101,,,130,0.902200013,-1.725999966,10.41450006
1.683E+18,2.634056396,-0.828999996,-1.86439991,0.477599978,,,1.191799998,0.236499995,9.730999947,,,131,0.362800002,-1.627899915,10.20859993
1.683E+18,2.654058105,-1.145099998,-1.424099922,-0.380299985,,,1.145099998,0.26699999,9.735799789,,,132,0,-1.157099932,9.355499804
1.683E+18,2.674058105,-1.054099917,-1.011299968,-1.266899943,,,1.103199959,0.295399994,9.739899635,,,133,0.049100041,-0.715899974,8.472999692
1.683E+18,2.694056396,-0.672699988,-0.779399991,-1.74909997,,,1.084599972,0.308699995,9.741499901,,,134,0.411899984,-0.470699996,7.992399931
1.683E+18,2.714056396,-0.312000006,-0.701299965,-1.867899895,,,1.077000022,0.299199998,9.742699623,,,135,0.765000015,-0.402099967,7.874799728
1.683E+18,2.734058105,-0.044499997,-0.729099989,-1.722899914,,,1.064399958,0.277999997,9.744699478,,,136,1.019899961,-0.451099992,8.021799564
1.683E+18,2.754058105,-0.007999999,-0.679199994,-1.598799944,,,1.037699938,0.257499993,9.748099327,,,137,1.029699938,-0.421700001,8.149299383
1.683E+18,2.774058105,0.073600002,-0.595299959,-1.426100016,,,1.005100012,0.242199987,9.751899719,,,138,1.078700013,-0.353099972,8.325799704
1.683E+18,2.794058105,0.230399996,-0.625899971,-1.106899977,,,0.965900004,0.22389999,9.756299973,,,139,1.1963,-0.40199998,8.649399996
1.683E+18,2.814058105,0.373400003,-0.502999961,-0.729299963,,,0.920899987,0.199000001,9.761199951,,,140,1.29429999,-0.30399996,9.031899989
1.683E+18,2.834058105,0.52669996,-0.486299992,-0.761799991,,,0.895099998,0.162699997,9.764299393,,,141,1.421799958,-0.323599994,9.002499402
1.683E+18,2.854058105,0.388899982,-0.214599997,-1.10650003,,,0.885899961,0.116599999,9.765799522,,,142,1.274799943,-0.097999997,8.659299493
1.683E+18,2.874058105,0.251899987,0.357199997,-1.185500026,,,0.885599971,0.064300001,9.766300201,,,143,1.137499958,0.421499997,8.580800176
1.683E+18,2.894056396,-0.020499999,0.804199994,-0.783800006,,,0.88349998,0,9.766699791,,,144,0.862999981,0.804199994,8.982899785
1.683E+18,2.914058105,-0.406399995,0.972799957,-0.283999979,,,0.877099991,-0.070599996,9.767000198,,,145,0.470699996,0.902199961,9.483000219
1.683E+18,2.934058105,-0.82009995,1.11469996,-0.175399989,,,0.878899992,-0.124299996,9.766300201,,,146,0.058800042,0.990399964,9.590900213
1.683E+18,2.954058105,-1.130200028,1.097599983,-0.232499987,,,0.894799948,-0.14639999,9.7645998,,,147,-0.235400081,0.951199993,9.532099813
1.683E+18,2.974058105,-1.166399956,0.930299997,-0.042799998,,,0.930999994,-0.145799994,9.761199951,,,148,-0.235399961,0.784500003,9.718399953
1.683E+18,2.994056396,-0.770699978,0.60679996,0.844099998,,,0.976599991,-0.145899996,9.756799698,,,149,0.205900013,0.460899964,10.6008997
1.683E+18,3.014058105,-0.120099999,0.588400006,1.771799922,,,1.032099962,-0.156899989,9.750899315,,,150,0.911999963,0.431500018,11.52269924
1.683E+18,3.034058105,0.072499998,0.543200016,2.787899971,,,1.084599972,-0.170499995,9.74489975,,,151,1.15709997,0.372700021,12.53279972
1.683E+18,3.054058105,-0.080299996,-0.054299999,3.244099855,,,1.129599929,-0.171199992,9.7397995,,,152,1.049299933,-0.225499991,12.98389935
1.683E+18,3.074058105,-0.197999999,-0.808600008,3.103399992,,,1.188499928,-0.132799998,9.733399391,,,153,0.990499929,-0.941400006,12.83679938
1.683E+18,3.094058105,0.183699995,-1.092999935,2.953299999,,,1.248000026,-0.073899999,9.726599693,,,154,1.431700021,-1.166899934,12.67989969
1.683E+18,3.114058105,0.866599977,-1.015200019,3.148999929,,,1.320199966,-0.053599998,9.717199326,,,155,2.186799943,-1.068800017,12.86619925
1.683E+18,3.134058105,1.168599963,-0.664399981,2.953199863,,,1.390799999,-0.090599999,9.706999779,,,156,2.559399962,-0.75499998,12.66019964
1.683E+18,3.154058105,0.781899989,-0.243399993,1.609699965,,,1.45389998,-0.138999999,9.697199821,,,157,2.235799968,-0.382399991,11.30689979
1.683E+18,3.174056396,0.384900004,-0.277999997,0.259200007,,,1.537099957,-0.123999998,9.684599876,,,158,1.921999961,-0.401999995,9.943799883
1.683E+18,3.194058105,-0.118099995,-0.956299961,0.248999998,,,1.598899961,-0.043899998,9.675299644,,,159,1.480799966,-1.000199959,9.924299642
1.683E+18,3.214056396,-0.353799999,-1.860899925,1.023699999,,,1.59920001,0.036899999,9.675199509,,,160,1.245400012,-1.823999926,10.69889951
1.683E+18,3.234058105,-0.515599966,-2.424999952,1.013399959,,,1.594399929,0.081199996,9.67579937,,,161,1.078799963,-2.343799956,10.68919933
1.683E+18,3.254058105,-0.401799977,-2.256799936,-0.196699992,,,1.627699971,0.109200001,9.670000076,,,162,1.225899994,-2.147599936,9.473300084
1.683E+18,3.274058105,-0.354599983,-1.856599927,-1.501699924,,,1.678499937,0.140499994,9.660900116,,,163,1.323899955,-1.716099933,8.159200191
1.683E+18,3.294058105,-0.166099995,-1.565499902,-1.898799896,,,1.705799937,0.153300002,9.655900002,,,164,1.539699942,-1.4121999,7.757100105
1.683E+18,3.314058105,-0.075199999,-1.368199944,-1.654399991,,,1.703099966,0.132599995,9.656700134,,,165,1.627899967,-1.23559995,8.002300143
1.683E+18,3.334058105,-0.231099993,-1.138700008,-1.513099909,,,1.672599912,0.099199995,9.662399292,,,166,1.441499919,-1.039500013,8.149299383
1.683E+18,3.354058105,-0.551199973,-0.906699955,-1.510800004,,,1.629899979,0.073100001,9.66989994,,,167,1.078700006,-0.833599955,8.159099936
1.683E+18,3.374058105,-0.872099996,-0.822799981,-1.547299981,,,1.58799994,0.057799999,9.677000046,,,168,0.715899944,-0.764999982,8.129700065
1.683E+18,3.394056396,-0.975299954,-0.62559998,-1.533299923,,,1.553900003,0.046999998,9.682600021,,,169,0.578600049,-0.578599982,8.149300098
1.683E+18,3.414058105,-0.915699959,-0.562999964,-1.185099959,,,1.523699999,0.033399999,9.687399864,,,170,0.60800004,-0.529599965,8.502299905
1.683E+18,3.434058105,-0.842399955,-0.692499995,-0.582399964,,,1.48969996,0.015899999,9.692799568,,,171,0.647300005,-0.676599996,9.110399604
1.683E+18,3.454058105,-0.646600008,-0.864899993,-0.225499988,,,1.450699925,0.0019,9.698699951,,,172,0.804099917,-0.862999993,9.473199964
1.683E+18,3.474058105,-0.324200004,-0.838400006,-0.190399989,,,1.422500014,-0.0049,9.702899933,,,173,1.09830001,-0.843300006,9.512499943
1.683E+18,3.494056396,-0.0073,-0.668299973,-0.280499995,,,1.409699917,-0.0083,9.704699516,,,174,1.402399917,-0.676599973,9.424199522
1.683E+18,3.514058105,0.178399995,-0.502699971,-0.505999982,,,1.4102,-0.016999999,9.704699516,,,175,1.588599995,-0.51969997,9.198699534
1.683E+18,3.534058105,0.134499997,-0.58889997,-0.848499954,,,1.414899945,-0.0288,9.703899384,,,176,1.549399942,-0.61769997,8.85539943
1.683E+18,3.554058105,0.2236,-0.361999989,-0.966299951,,,1.413999915,-0.039999999,9.703999519,,,177,1.637599915,-0.401999988,8.737699568
1.683E+18,3.574058105,0.418599993,-0.161699995,-0.615799963,,,1.395499945,-0.063699998,9.706600189,,,178,1.814099938,-0.225399993,9.090800226
1.683E+18,3.594058105,0.676199973,0.0116,0.115399994,,,1.363399982,-0.1096,9.710700035,,,179,2.039599955,-0.098,9.826100029
1.683E+18,3.614058105,0.823599994,0.166299999,0.836499989,,,1.324000001,-0.166299999,9.715399742,,,180,2.147599995,0,10.55189973
1.683E+18,3.634056396,0.946899951,0.273000002,1.400399923,,,1.279099941,-0.223999992,9.720199585,,,181,2.225999892,0.04900001,11.12059951
1.683E+18,3.654058105,1.022300005,0.464999974,1.64230001,,,1.242900014,-0.278699994,9.723499298,,,182,2.265200019,0.18629998,11.36579931
1.683E+18,3.674058105,1.030900002,0.583799958,1.857299924,,,1.224599957,-0.32889998,9.724299431,,,183,2.255499959,0.254899979,11.58159935
1.683E+18,3.694056396,0.965999961,0.540600002,2.777799845,,,1.201200008,-0.373899996,9.725599289,,,184,2.167199969,0.166700006,12.50339913
1.683E+18,3.714056396,1.007200003,0.542699993,3.615999937,,,1.140399933,-0.425099999,9.730799675,,,185,2.147599936,0.117599994,13.34679961
1.683E+18,3.734058105,1.0079,0.85799998,3.883899927,,,1.061200023,-0.475599974,9.737400055,,,186,2.069100022,0.382400006,13.62129998
1.683E+18,3.754058105,0.908299983,1.325899959,2.731299877,,,0.994099975,-0.511900008,9.742599487,,,187,1.902399957,0.813999951,12.47389936
1.683E+18,3.774058105,0.79369998,1.515599966,0.230499998,,,0.990999997,-0.515399992,9.742799759,,,188,1.784699976,1.000199974,9.973299757
1.683E+18,3.794058105,0.658800006,1.307399988,-1.922499895,,,1.057199955,-0.463999987,9.738399506,,,189,1.715999961,0.843400002,7.815899611
1.683E+18,3.814058105,0.829400003,0.526600003,-1.936199903,,,1.141700029,-0.379500002,9.732500076,,,190,1.971100032,0.147100002,7.796300173
1.683E+18,3.834058105,0.684399962,-0.657499969,-0.442000002,,,1.188599944,-0.323100001,9.728899956,,,191,1.872999907,-0.98059997,9.286899954
1.683E+18,3.854058105,0.306499988,-1.461599946,1.20449996,,,1.184000015,-0.313299984,9.729800224,,,192,1.490500003,-1.77489993,10.93430018
1.683E+18,3.874058105,-0.184499994,-1.718699932,1.907399893,,,1.155399919,-0.32099998,9.732999802,,,193,0.970899925,-2.039699912,11.64039969
1.683E+18,3.894056396,-0.388999999,-1.5,1.522199988,,,1.134299994,-0.314199984,9.735699654,,,194,0.745299995,-1.814199984,11.25789964
1.683E+18,3.914058105,-0.467699975,-1.144999981,0.296200007,,,1.144400001,-0.267100006,9.735899925,,,195,0.676700026,-1.412099987,10.03209993
1.683E+18,3.934058105,-0.601999998,-1.095600009,-0.886599958,,,1.190400004,-0.188999996,9.732199669,,,196,0.588400006,-1.284600005,8.845599711
1.683E+18,3.954058105,-0.852099955,-1.280599952,-1.61529994,,,1.254099965,-0.1118,9.725399971,,,197,0.40200001,-1.392399952,8.110100031
1.683E+18,3.974058105,-0.991799951,-1.253899932,-2.020900011,,,1.305599928,-0.050299998,9.719200134,,,198,0.313799977,-1.30419993,7.698300123
1.683E+18,3.994056396,-1.104799986,-1.17869997,-2.105999947,,,1.33039999,-0.0078,9.715899467,,,199,0.225600004,-1.18649997,7.609899521
1.683E+18,4.014058105,-1.259199977,-1.067899942,-1.919999957,,,1.327799916,0.0186,9.716300011,,,200,0.068599939,-1.049299942,7.796300054
1.683E+18,4.034056396,-1.189999938,-0.825599968,-1.853999972,,,1.307699919,0.031300001,9.718999863,,,201,0.117699981,-0.794299968,7.86499989
1.683E+18,4.054058105,-0.90929997,-0.648299992,-1.573099971,,,1.281999946,0.030399999,9.722399712,,,202,0.372699976,-0.617899993,8.149299741
1.683E+18,4.074056396,-0.584500015,-0.551599979,-1.077000022,,,1.251299977,0.0122,9.726399422,,,203,0.666799963,-0.53939998,8.6493994
1.683E+18,4.094058105,-0.283899993,-0.415600002,-0.902499974,,,1.235099912,-0.015799999,9.728499413,,,204,0.951199919,-0.431400001,8.825999439
1.683E+18,4.114058105,-0.175099999,-0.270999998,-1.010399938,,,1.234300017,-0.0427,9.728499413,,,205,1.059200019,-0.313699998,8.718099475
1.683E+18,4.134058105,-0.187899992,-0.033999998,-1.176599979,,,1.237200022,-0.063999996,9.727999687,,,206,1.04930003,-0.097999994,8.551399708
1.683E+18,4.154058105,-0.190599993,0.151500002,-1.254599929,,,1.239899993,-0.082800001,9.727499962,,,207,1.0493,0.068700001,8.472900033
1.683E+18,4.174058105,-0.0096,0.399699986,-1.09799993,,,1.235399961,-0.105499998,9.727899551,,,208,1.225799962,0.294199988,8.629899621
1.683E+18,4.194056396,0.2236,0.620400012,-0.697699964,,,1.217800021,-0.139899999,9.729700089,,,209,1.441400021,0.480500013,9.032000124
1.683E+18,4.214056396,0.4102,0.788199961,0.064199999,,,1.18809998,-0.189999998,9.732500076,,,210,1.59829998,0.598199964,9.796700075
1.683E+18,4.234058105,0.31309998,0.814999998,0.974099994,,,1.157799959,-0.255999982,9.734600067,,,211,1.47089994,0.559000015,10.70870006
1.683E+18,4.254058105,0.33039999,0.868299961,2.003999949,,,1.140499949,-0.32889998,9.734499931,,,212,1.47089994,0.539399981,11.73849988
1.683E+18,4.274058105,0.390199989,0.822099984,2.996599913,,,1.139500022,-0.390599996,9.732299805,,,213,1.529700011,0.431499988,12.72889972
1.683E+18,4.294058105,0.173099995,0.70480001,3.674700022,,,1.140900016,-0.420399994,9.730899811,,,214,1.31400001,0.284400016,13.40559983
1.683E+18,4.314058105,-0.032400001,0.354999989,3.840600014,,,1.140499949,-0.404100001,9.731699944,,,215,1.108099949,-0.049100012,13.57229996
1.683E+18,4.334058105,-0.311100006,-0.113299996,3.457599878,,,1.154500008,-0.347499996,9.732199669,,,216,0.843400002,-0.460799992,13.18979955
1.683E+18,4.354058105,-0.377299994,-0.184900001,2.498999834,,,1.191200018,-0.285699993,9.729800224,,,217,0.813900024,-0.470599994,12.22880006
1.683E+18,4.374058105,-0.124499999,-0.0222,1.713699937,,,1.271799922,-0.242499992,9.72069931,,,218,1.147299923,-0.264699992,11.43439925
1.683E+18,4.394058105,-0.129500002,0.064399995,1.057600021,,,1.355399966,-0.221299991,9.710000038,,,219,1.225899965,-0.156899996,10.76760006
1.683E+18,4.414058105,-0.162900001,0.0955,0.144400001,,,1.418099999,-0.203299999,9.701399803,,,220,1.255199999,-0.107799999,9.845799804
1.683E+18,4.434058105,0.038799997,-0.0036,-0.601999998,,,1.48119998,-0.163000003,9.692699432,,,221,1.519999977,-0.166600002,9.090699434
1.683E+18,4.454058105,0.113199994,-0.561399996,-0.025799999,,,1.534199953,-0.0955,9.685400009,,,222,1.647399947,-0.656899996,9.65960001
1.683E+18,4.474058105,-0.019399999,-1.32159996,1.366999984,,,1.539399981,-0.031599998,9.684999466,,,223,1.519999983,-1.353199959,11.05199945
1.683E+18,4.494056396,-0.114799999,-1.826900005,2.205299854,,,1.507300019,0.0126,9.690099716,,,224,1.392500021,-1.814300005,11.89539957
1.683E+18,4.514058105,-0.242799997,-1.923499942,1.740099907,,,1.478500009,0.060199998,9.694299698,,,225,1.235700011,-1.863299944,11.4343996
1.683E+18,4.534056396,-0.24849999,-1.875899911,0.301799983,,,1.493899941,0.140100002,9.691100121,,,226,1.245399952,-1.735799909,9.992900103
1.683E+18,4.554058105,-0.209600002,-1.869799972,-0.914199948,,,1.543299913,0.241899997,9.681399345,,,227,1.333699912,-1.627899975,8.767199397
1.683E+18,4.574056396,-0.107499994,-1.866599917,-1.550099969,,,1.598099947,0.326999992,9.670000076,,,228,1.490599953,-1.539599925,8.119900107
1.683E+18,4.594058105,-0.079499997,-1.879299998,-1.776699901,,,1.638700008,0.378899992,9.661299706,,,229,1.559200011,-1.500400007,7.884599805
1.683E+18,4.614058105,0.020499999,-1.539999962,-1.860999942,,,1.656399965,0.402399987,9.657299995,,,230,1.676899964,-1.137599975,7.796300054
1.683E+18,4.634058105,-0.020099999,-1.184199929,-1.871999979,,,1.648000002,0.409500003,9.658499718,,,231,1.627900003,-0.774699926,7.786499739
1.683E+18,4.654058105,-0.221399993,-1.018599987,-1.768099904,,,1.62379992,0.410599977,9.662499428,,,232,1.402399927,-0.60800001,7.894399524
1.683E+18,4.674058105,-0.397599995,-0.972799957,-1.781099916,,,1.603899956,0.413800001,9.665699959,,,233,1.206299961,-0.558999956,7.884600043
1.683E+18,4.694056396,-0.391599983,-0.925199986,-1.538499951,,,1.58799994,0.415299982,9.668199539,,,234,1.196399957,-0.509900004,8.129699588
1.683E+18,4.714056396,-0.110599995,-0.811699986,-1.023699999,,,1.561999917,0.399800003,9.673099518,,,235,1.451399922,-0.411899984,8.649399519
1.683E+18,4.734058105,0.138799995,-0.663699985,-0.433999985,,,1.51849997,0.359699994,9.681599617,,,236,1.657299966,-0.30399999,9.247599632
1.683E+18,4.754058105,0.303000003,-0.365399987,-0.140499994,,,1.46209991,0.306600004,9.692099571,,,237,1.765099913,-0.058799982,9.551599577
1.683E+18,4.774058105,0.409299999,-0.201799989,-0.3926,,,1.424499989,0.260699987,9.699099541,,,238,1.833799988,0.058899999,9.306499541
1.683E+18,4.794058105,0.430899978,-0.026799999,-0.942799985,,,1.422399998,0.23269999,9.700099945,,,239,1.853299975,0.205899991,8.75729996
1.683E+18,4.814058105,0.463699996,0.136399999,-1.225099921,,,1.438699961,0.216600001,9.69810009,,,240,1.902399957,0.353,8.473000169
1.683E+18,4.834058105,0.476300001,0.110099994,-0.783299983,,,1.44569993,0.193800002,9.697500229,,,241,1.921999931,0.303899996,8.914200246
1.683E+18,4.854058105,0.49879998,0.0085,0.281599998,,,1.423200011,0.158099994,9.701499939,,,242,1.921999991,0.166599994,9.983099937
1.683E+18,4.874058105,0.632799983,-0.065899998,1.449800014,,,1.367699981,0.114999995,9.710100174,,,243,2.000499964,0.049099997,11.15990019
1.683E+18,4.894056396,0.676599979,-0.078299999,2.380800009,,,1.294399977,0.068499997,9.720499992,,,244,1.970999956,-0.009800002,12.1013
1.683E+18,4.914058105,0.596199989,-0.140100002,2.68569994,,,1.227699995,0.022399999,9.729399681,,,245,1.823899984,-0.117700003,12.41509962
1.683E+18,4.934058105,0.752099991,-0.0188,2.329099894,,,1.199299932,-0.0105,9.732999802,,,246,1.951399922,-0.0293,12.0620997
1.683E+18,4.954058105,0.869199991,-0.160099998,2.525300026,,,1.199899912,-0.026099999,9.732899666,,,247,2.069099903,-0.186199997,12.25819969
1.683E+18,4.974056396,0.726300001,-0.276499987,2.855999947,,,1.175999999,-0.056899998,9.735699654,,,248,1.9023,-0.333399985,12.5916996
1.683E+18,4.994056396,0.659699976,-0.363099992,2.90170002,,,1.144599915,-0.107499994,9.738999367,,,249,1.804299891,-0.470599987,12.64069939
1.683E+18,5.014058105,0.379199982,-0.180600002,2.330600023,,,1.121099949,-0.142999992,9.741299629,,,250,1.500299931,-0.323599994,12.07189965
1.683E+18,5.034058105,0.1206,0.251199991,1.005200028,,,1.105099916,-0.162900001,9.742799759,,,251,1.225699916,0.08829999,10.74799979
1.683E+18,5.054058105,0.0068,0.754799962,-0.638999999,,,1.130699992,-0.176200002,9.739600182,,,252,1.137499992,0.57859996,9.100600183
1.683E+18,5.074056396,-0.105699994,0.755699992,-1.601199985,,,1.204100013,-0.167300001,9.730999947,,,253,1.098400019,0.588399991,8.129799962
1.683E+18,5.094058105,-0.147499993,0.280900002,-1.082700014,,,1.275300026,-0.1338,9.722399712,,,254,1.127800032,0.147100002,8.639699697
1.683E+18,5.114058105,-0.226099998,-0.324200004,0.300799996,,,1.2852,-0.097399995,9.721499443,,,255,1.059100002,-0.421599999,10.02229944
1.683E+18,5.134058105,-0.283800006,-0.85769999,1.267400026,,,1.254599929,-0.073899999,9.725699425,,,256,0.970799923,-0.93159999,10.99309945
1.683E+18,5.154058105,-0.380699992,-1.076799989,0.9005,,,1.223999977,-0.040999997,9.729800224,,,257,0.843299985,-1.117799986,10.63030022
1.683E+18,5.174058105,-0.271699995,-0.871399999,-0.39289999,,,1.232800007,0.018199999,9.72879982,,,258,0.961100012,-0.8532,9.33589983
1.683E+18,5.194058105,-0.074199997,-0.57129997,-1.329100013,,,1.270599961,0.081,9.723599434,,,259,1.196399964,-0.49029997,8.394499421
1.683E+18,5.214056396,0.154799998,-0.348399997,-1.548299909,,,1.316100001,0.112999998,9.717199326,,,260,1.470899999,-0.235399999,8.168899417
1.683E+18,5.234058105,0.048499998,-0.18599999,-1.377699971,,,1.343899965,0.117299996,9.713399887,,,261,1.392399963,-0.068699993,8.335699916
1.683E+18,5.254058105,-0.254199982,-0.171499997,-1.396099925,,,1.352499962,0.122399993,9.712100029,,,262,1.09829998,-0.049100004,8.316000104
1.683E+18,5.274058105,-0.635699987,-0.2271,-1.709599972,,,1.351599932,0.148699999,9.711899757,,,263,0.715899944,-0.078400001,8.002299786
1.683E+18,5.294058105,-0.752399981,-0.273000002,-1.954299927,,,1.350600004,0.184699997,9.711400032,,,264,0.598200023,-0.088300005,7.757100105
1.683E+18,5.314058105,-0.539200008,-0.431199998,-1.737800002,,,1.353199959,0.205699995,9.710599899,,,265,0.813999951,-0.225500003,7.972799897
1.683E+18,5.334058105,-0.214299992,-0.475699991,-1.326200008,,,1.351799965,0.201099992,9.710899353,,,266,1.137499973,-0.274599999,8.384699345
1.683E+18,5.354058105,0.135999992,-0.369699985,-0.798199952,,,1.344699979,0.173599988,9.712399483,,,267,1.480699971,-0.196099997,8.914199531
1.683E+18,5.374058105,0.296700001,-0.227699995,-0.378999978,,,1.331099987,0.12969999,9.715000153,,,268,1.627799988,-0.098000005,9.336000174
1.683E+18,5.394056396,0.339699984,0.14639999,-0.303000003,,,1.317499995,0.079099998,9.717399597,,,269,1.657199979,0.225499988,9.414399594
1.683E+18,5.414058105,0.184,0.550300002,-0.401499987,,,1.316299915,0.028199999,9.71780014,,,270,1.500299916,0.578500001,9.316300154
1.683E+18,5.434058105,-0.276299983,0.712199986,-0.586600006,,,1.325599909,-0.015899999,9.716599464,,,271,1.049299926,0.696299987,9.129999459
1.683E+18,5.454058105,-0.72299999,0.792099953,-0.760899961,,,1.340799928,-0.046799999,9.714399338,,,272,0.617799938,0.745299954,8.953499377
1.683E+18,5.474058105,-0.935499966,0.840799987,-0.66049999,,,1.357199907,-0.066100001,9.711999893,,,273,0.421699941,0.774699986,9.051499903
1.683E+18,5.494056396,-0.913999975,0.801299989,-0.119799994,,,1.365099907,-0.085499994,9.710700035,,,274,0.451099932,0.715799995,9.590900041
1.683E+18,5.514058105,-0.628099978,0.819099963,0.733299971,,,1.363600016,-0.112999998,9.710700035,,,275,0.735500038,0.706099965,10.44400001
1.683E+18,5.534058105,-0.444700003,0.960599959,1.664399981,,,1.356699944,-0.146699995,9.71119976,,,276,0.911999941,0.813899964,11.37559974
1.683E+18,5.554058105,-0.46449998,1.048499942,2.30099988,,,1.347100019,-0.175699994,9.711999893,,,277,0.882600039,0.872799948,12.01299977
1.683E+18,5.574056396,-0.534399986,0.860199988,2.526900053,,,1.348399997,-0.183499992,9.711699486,,,278,0.81400001,0.676699996,12.23859954
1.683E+18,5.594058105,-0.286899984,0.490799993,3.068199873,,,1.365700006,-0.157399997,9.709799767,,,279,1.078800023,0.333399996,12.77799964
1.683E+18,5.614058105,0.15609999,0.029999999,3.403699875,,,1.38349998,-0.128099993,9.707699776,,,280,1.53959997,-0.098099994,13.11139965
1.683E+18,5.634058105,0.737399995,-0.210500002,3.212800026,,,1.419999957,-0.1228,9.70249939,,,281,2.157399952,-0.333300002,12.91529942
1.683E+18,5.654058105,0.899299979,-0.0276,2.171599865,,,1.473799944,-0.129199997,9.694399834,,,282,2.373099923,-0.156799996,11.8659997
1.683E+18,5.674058105,0.59829998,0.132799998,0.591499984,,,1.529699922,-0.122999996,9.685799599,,,283,2.127999902,0.009800002,10.27729958
1.683E+18,5.694058105,0.196099997,0.062099997,-0.536799967,,,1.588699937,-0.091499999,9.676599503,,,284,1.784799933,-0.029400002,9.139799535
1.683E+18,5.714056396,0.344300002,-0.648400009,-0.0209,,,1.626699924,-0.047799997,9.670599937,,,285,1.970999926,-0.696200006,9.649699938
1.683E+18,5.734058105,0.169799998,-1.15320003,1.436499953,,,1.605099916,-0.0039,9.674300194,,,286,1.774899915,-1.15710003,11.11080015
1.683E+18,5.754058105,0.140599996,-1.685099959,2.680599928,,,1.536199927,0.0081,9.685500145,,,287,1.676799923,-1.676999959,12.36610007
1.683E+18,5.774058105,-0.244799986,-1.895699978,2.063899994,,,1.480499983,0.0129,9.694199562,,,288,1.235699996,-1.882799978,11.75809956
1.683E+18,5.794058105,-0.41959998,-1.609599948,0.162799999,,,1.488499999,0.060199998,9.692799568,,,289,1.068900019,-1.54939995,9.855599567
1.683E+18,5.814058105,-0.566500008,-1.53670001,-1.232499957,,,1.527499914,0.144199997,9.685799599,,,290,0.960999906,-1.392500013,8.453299642
1.683E+18,5.834058105,-0.370900005,-1.746999979,-1.59920001,,,1.557500005,0.207399994,9.679900169,,,291,1.1866,-1.539599985,8.080700159
1.683E+18,5.854058105,-0.346799999,-1.881799936,-1.470299959,,,1.562899947,0.234299988,9.67840004,,,292,1.216099948,-1.647499949,8.20810008
1.683E+18,5.874058105,-0.464699984,-1.855399966,-1.618600011,,,1.553200006,0.247099996,9.679699898,,,293,1.088500023,-1.608299971,8.061099887
1.683E+18,5.894056396,-0.44599998,-1.568499923,-2.178499937,,,1.544399977,0.264200002,9.680600166,,,294,1.098399997,-1.304299921,7.502100229
1.683E+18,5.914058105,-0.179999992,-1.251600027,-2.484099865,,,1.533299923,0.270899981,9.682199478,,,295,1.353299931,-0.980700046,7.198099613
1.683E+18,5.934058105,0.110699996,-1.077000022,-2.07679987,,,1.507300019,0.253199995,9.686800003,,,296,1.618000016,-0.823800027,7.610000134
1.683E+18,5.954058105,0.284799993,-0.958099961,-1.396999955,,,1.470499992,0.212799996,9.693399429,,,297,1.755299985,-0.745299965,8.296399474
1.683E+18,5.974058105,0.26729998,-0.848699987,-0.503300011,,,1.41929996,0.162199989,9.701999664,,,298,1.68659994,-0.686499998,9.198699653
1.683E+18,5.994056396,-0.021699999,-0.7421,0.094700001,,,1.355399966,0.114499994,9.711799622,,,299,1.333699968,-0.627600007,9.806499623
1.683E+18,6.014058105,-0.347900003,-0.644499958,0.0867,,,1.299099922,0.0757,9.719900131,,,300,0.951199919,-0.568799958,9.806600131
1.683E+18,6.034058105,-0.395999998,-0.349799991,-0.641799986,,,1.278599977,0.0458,9.722799301,,,301,0.88259998,-0.30399999,9.080999315
1.683E+18,6.054058105,-0.107999995,-0.0165,-1.25759995,,,1.29460001,0.0165,9.72069931,,,302,1.186600015,0,8.46309936
1.683E+18,6.074058105,0.246299997,0.031300001,-1.02820003,,,1.322700024,-0.031300001,9.716899872,,,303,1.569000021,0,8.688699841
1.683E+18,6.094058105,0.326199979,0.078099996,-0.251899987,,,1.331099987,-0.0977,9.715299606,,,304,1.657299966,-0.019600004,9.463399619
1.683E+18,6.114058105,0.362399995,0.167199999,0.589999974,,,1.314399958,-0.167199999,9.7166996,,,305,1.676799953,0,10.30669957
1.683E+18,6.134056396,0.336099982,0.300899982,1.360399961,,,1.272099972,-0.232199997,9.720999718,,,306,1.608199954,0.068699986,11.08139968
1.683E+18,6.154058105,0.316499978,0.474599987,2.042399883,,,1.22299993,-0.297999978,9.725500107,,,307,1.539499909,0.176600009,11.76789999
1.683E+18,6.174058105,0.326399982,0.709599972,2.334100008,,,1.183699965,-0.366400003,9.727999687,,,308,1.510099947,0.343199968,12.0620997
1.683E+18,6.194056396,0.2579,0.663599968,2.56099987,,,1.173799992,-0.428199977,9.726699829,,,309,1.431699991,0.235399991,12.2876997
1.683E+18,6.214056396,0.154799998,0.392699987,3.014699936,,,1.178799987,-0.471199989,9.724100113,,,310,1.333599985,-0.078500003,12.73880005
1.683E+18,6.234058105,-0.106199995,0.089299999,2.994899988,,,1.165300012,-0.501199961,9.724199295,,,311,1.059100017,-0.411899962,12.71909928
1.683E+18,6.254058105,-0.129799992,-0.078499995,2.248699903,,,1.149699926,-0.519599974,9.725099564,,,312,1.019899935,-0.598099969,11.97379947
1.683E+18,6.274058105,-0.037900001,-0.066199996,1.385399938,,,1.146099925,-0.522099972,9.725399971,,,313,1.108199924,-0.588299967,11.11079991
1.683E+18,6.294058105,0.103599995,-0.0053,0.384799987,,,1.141700029,-0.524199963,9.725799561,,,314,1.245300025,-0.529499962,10.11059955
1.683E+18,6.314058105,0.319499999,0.272499979,-0.859899998,,,1.141600013,-0.537299991,9.725099564,,,315,1.461100012,-0.264800012,8.865199566
1.683E+18,6.334056396,0.537199974,0.543500006,-1.965599895,,,1.15929997,-0.543500006,9.722700119,,,316,1.696499944,0,7.757100224
1.683E+18,6.354058105,0.657499969,0.294999987,-1.542599916,,,1.176199913,-0.530299962,9.721300125,,,317,1.833699882,-0.235299975,8.178700209
1.683E+18,6.374058105,0.341399997,-0.329299986,-0.0757,,,1.149099946,-0.513999999,9.725500107,,,318,1.490499943,-0.843299985,9.649800107
1.683E+18,6.394058105,0.091199994,-0.821099997,1.066399932,,,1.105099916,-0.512499988,9.730599403,,,319,1.196299911,-1.333599985,10.79699934
1.683E+18,6.414058105,-0.183299989,-0.829400003,1.110599995,,,1.065899968,-0.504199982,9.7354002,,,320,0.88259998,-1.333599985,10.84600019
1.683E+18,6.434058105,-0.187299997,-0.475400001,0.342599988,,,1.050300002,-0.475799978,9.738599777,,,321,0.863000005,-0.951199979,10.08119977
1.683E+18,6.454058105,-0.139300004,-0.285699993,-0.403200001,,,1.061100006,-0.439899981,9.739099503,,,322,0.921800002,-0.725599974,9.335899502
1.683E+18,6.474058105,-0.011,-0.222800002,-0.734499991,,,1.089699984,-0.414599985,9.736999512,,,323,1.078699984,-0.637399986,9.002499521
1.683E+18,6.494056396,-0.136199996,-0.215399995,-0.810799956,,,1.116899967,-0.392499983,9.734899521,,,324,0.980699971,-0.607899979,8.924099565
1.683E+18,6.514058105,-0.367699981,-0.226199999,-0.986699998,,,1.13259995,-0.362100005,9.734199524,,,325,0.764899969,-0.588300005,8.747499526
1.683E+18,6.534058105,-0.649500012,-0.381199986,-1.163699985,,,1.139899969,-0.324799985,9.734700203,,,326,0.490399957,-0.70599997,8.571000218
1.683E+18,6.554058105,-0.743999958,-0.341099977,-1.371299982,,,1.136199951,-0.28639999,9.736299515,,,327,0.392199993,-0.627499968,8.364999533
1.683E+18,6.574058105,-0.627299964,-0.143099993,-1.373099923,,,1.127499938,-0.258899987,9.738100052,,,328,0.500199974,-0.40199998,8.365000129
1.683E+18,6.594058105,-0.392499983,-0.090999998,-1.109499931,,,1.118199944,-0.252200007,9.73939991,,,329,0.725699961,-0.343200006,8.629899979
1.683E+18,6.614058105,-0.285899997,0.041899998,-0.894599974,,,1.109599948,-0.257699996,9.740200043,,,330,0.823699951,-0.215799998,8.845600069
1.683E+18,6.634058105,-0.168799996,0.166999996,-0.943399966,,,1.110199928,-0.265100002,9.739899635,,,331,0.941399932,-0.098100007,8.79649967
1.683E+18,6.654058105,-0.165899992,0.284199983,-0.922699988,,,1.1171,-0.274399996,9.738900185,,,332,0.951200008,0.009799987,8.816200197
1.683E+18,6.674058105,-0.330499977,0.452299982,-1.068599939,,,1.124799967,-0.285600007,9.737699509,,,333,0.79429999,0.166699976,8.669099569
1.683E+18,6.694058105,-0.548900008,0.579999983,-1.184499979,,,1.137300014,-0.295599997,9.735899925,,,334,0.588400006,0.284399986,8.551399946
1.683E+18,6.71405957,-0.796199977,0.676499963,-1.065199971,,,1.149199963,-0.303799987,9.73429966,,,335,0.352999985,0.372699976,8.669099689
1.683E+18,6.73405957,-0.802100003,0.815400004,-0.603199959,,,1.155099988,-0.315299988,9.733200073,,,336,0.352999985,0.500100017,9.130000114
1.683E+18,6.754058105,-0.654199958,0.756199956,0.103299998,,,1.154399991,-0.334499985,9.732699394,,,337,0.500200033,0.421699971,9.835999392
1.683E+18,6.774056396,-0.38439998,0.789499998,0.878299952,,,1.149299979,-0.35799998,9.73239994,,,338,0.764899999,0.431500018,10.61069989
1.683E+18,6.794058105,-0.047199998,0.824299991,1.7220999,,,1.145499945,-0.382999986,9.731900215,,,339,1.098299947,0.441300005,11.45400012
1.683E+18,6.814058105,0.121099994,0.767099977,2.585799932,,,1.14380002,-0.404199988,9.7312994,,,340,1.264900014,0.362899989,12.31709933
1.683E+18,6.834056396,0.134599999,0.649399996,2.881099939,,,1.149999976,-0.413999975,9.730099678,,,341,1.284599975,0.235400021,12.61119962
1.683E+18,6.854058105,0.224799991,0.348800004,2.629999876,,,1.187299967,-0.397899985,9.726299286,,,342,1.412099957,-0.049099982,12.35629916
1.683E+18,6.874058105,0.187899992,-0.020399999,2.70389986,,,1.243799925,-0.352200001,9.720999718,,,343,1.431699917,-0.3726,12.42489958
1.683E+18,6.894056396,0.21069999,-0.317999989,2.944099903,,,1.289600015,-0.319399983,9.716199875,,,344,1.500300005,-0.637399971,12.66029978
1.683E+18,6.914058105,0.363499999,-0.470299989,2.843299866,,,1.342700005,-0.314099997,9.709199905,,,345,1.706200004,-0.784399986,12.55249977
1.683E+18,6.934058105,0.346799999,-0.124399997,2.104500055,,,1.388799906,-0.316799998,9.702599525,,,346,1.735599905,-0.441199996,11.80709958
1.683E+18,6.954058105,0.2861,0.091199994,0.56099999,,,1.429899931,-0.316699982,9.69659996,,,347,1.715999931,-0.225499988,10.25759995
1.683E+18,6.974058105,0.194299996,-0.147399992,-0.618299961,,,1.482499957,-0.293799996,9.689399719,,,348,1.676799953,-0.441199988,9.071099758
1.683E+18,6.994056396,0.233099997,-0.561199963,-0.299499989,,,1.522199988,-0.252599984,9.684399605,,,349,1.755299985,-0.813799948,9.384899616
1.683E+18,7.014058105,0.306799978,-1.042500019,1.286299944,,,1.507300019,-0.232299998,9.687299728,,,350,1.814099997,-1.274800017,10.97359967
1.683E+18,7.034058105,0.084199995,-1.123899937,2.463899851,,,1.445500016,-0.248899996,9.696299553,,,351,1.529700011,-1.372799933,12.1601994
1.683E+18,7.054058105,-0.166099995,-1.093199968,1.946399927,,,1.391899943,-0.25999999,9.703800201,,,352,1.225799948,-1.353199959,11.65020013
1.683E+18,7.074056396,-0.508399963,-0.917199969,0.266900003,,,1.381099939,-0.220199987,9.706299782,,,353,0.872699976,-1.137399957,9.973199785
1.683E+18,7.094058105,-0.698499978,-0.977199972,-1.12650001,,,1.38499999,-0.140699998,9.707300186,,,354,0.686500013,-1.117899969,8.580800176
1.683E+18,7.114058105,-0.273000002,-1.115199924,-1.693699956,,,1.40079999,-0.081099994,9.705699921,,,355,1.127799988,-1.196299918,8.011999965
1.683E+18,7.134058105,0.048,-1.163399935,-1.643000007,,,1.413100004,-0.062299997,9.703999519,,,356,1.461100005,-1.225699931,8.060999513
1.683E+18,7.154058105,0.131799996,-1.106599927,-1.633999944,,,1.407699943,-0.0603,9.704799652,,,357,1.539499938,-1.166899927,8.070799708
1.683E+18,7.174058105,-0.036899999,-1.039299965,-1.832699895,,,1.390200019,-0.0491,9.707399368,,,358,1.35330002,-1.088399965,7.874699473
1.683E+18,7.194058105,-0.326900005,-0.964599967,-2.100899935,,,1.366400003,-0.025799999,9.710899353,,,359,1.039499998,-0.990399966,7.609999418
1.683E+18,7.214056396,-0.51669997,-1.015599966,-2.104599953,,,1.340399981,-0.0042,9.714599609,,,360,0.823700011,-1.019799966,7.609999657
1.683E+18,7.234058105,-0.449299991,-0.944499969,-1.804399967,,,1.312299967,0.0031,9.718400002,,,361,0.862999976,-0.94139997,7.914000034
1.683E+18,7.254058105,-0.103599995,-0.834100008,-1.279099941,,,1.280399919,-0.0092,9.722599983,,,362,1.176799923,-0.843300008,8.443500042
1.683E+18,7.274058105,0.200399995,-0.627900004,-0.676099956,,,1.241099954,-0.038899999,9.72769928,,,363,1.441499949,-0.666800003,9.051599324
1.683E+18,7.294058105,0.172299996,-0.571500003,-0.15259999,,,1.190699935,-0.075599998,9.733699799,,,364,1.362999931,-0.647100002,9.581099808
1.683E+18,7.314058105,0.186999992,-0.212399989,-0.166299999,,,1.156399965,-0.101300001,9.737599373,,,365,1.343399957,-0.313699991,9.571299374
1.683E+18,7.334058105,0.322299987,-0.222199991,-0.717499971,,,1.138800025,-0.111199997,9.739600182,,,366,1.461100012,-0.333399989,9.02210021
1.683E+18,7.354058105,0.464599997,0.105699994,-1.011099935,,,1.14349997,-0.115499996,9.738999367,,,367,1.608099967,-0.009800002,8.727899432
1.683E+18,7.374058105,0.702499986,0.286199987,-0.765999973,,,1.140999913,-0.129299998,9.739099503,,,368,1.843499899,0.156899989,8.97309953
1.683E+18,7.394058105,0.787699997,0.400700003,0.018099999,,,1.134299994,-0.165299997,9.73939991,,,369,1.921999991,0.235400006,9.757499909
1.683E+18,7.414058105,0.865399957,0.611899972,1.016000032,,,1.105599999,-0.20979999,9.741799355,,,370,1.970999956,0.402099982,10.75779939
1.683E+18,7.434058105,0.983699977,0.678499997,1.96389997,,,1.065699935,-0.256799996,9.745100021,,,371,2.049399912,0.421700001,11.70899999
1.683E+18,7.454058105,0.844899952,0.675899982,2.420799971,,,1.018199921,-0.29339999,9.749199867,,,372,1.863099873,0.382499993,12.16999984
1.683E+18,7.474058105,0.524800003,0.325100005,2.084699869,,,0.985300004,-0.315299988,9.751899719,,,373,1.510100007,0.009800017,11.83659959
1.683E+18,7.494056396,0.478599995,0.048499998,1.732299924,,,0.992299974,-0.313199997,9.751199722,,,374,1.470899969,-0.264699999,11.48349965
1.683E+18,7.514058105,0.313799977,0.009,2.046599865,,,1.000200033,-0.303200006,9.750699997,,,375,1.31400001,-0.294200007,11.79729986
1.683E+18,7.534056396,0.301099986,0.075999998,2.44749999,,,0.983500004,-0.321199983,9.751899719,,,376,1.28459999,-0.245199986,12.19939971
1.683E+18,7.554058105,0.199000001,0.149899989,2.643299818,,,0.967899978,-0.35589999,9.752200127,,,377,1.166899979,-0.206,12.39549994
1.683E+18,7.574058105,-0.135099992,0.461199999,1.867299914,,,0.949000001,-0.372999996,9.753399849,,,378,0.813900009,0.088200003,11.62069976
1.683E+18,7.594058105,-0.313899994,0.553600013,0.0528,,,0.951299965,-0.357499987,9.753799438,,,379,0.637399971,0.196100026,9.806599438
1.683E+18,7.614058105,-0.123199999,0.3037,-1.24879992,,,0.995999992,-0.3037,9.751199722,,,380,0.872799993,0,8.502399802
1.683E+18,7.634058105,0.289000005,0.0054,-1.039799929,,,1.04460001,-0.230999991,9.748099327,,,381,1.333600014,-0.225599992,8.708299398
1.683E+18,7.654058105,0.700399995,-0.446199983,0.215499997,,,1.054899931,-0.181299999,9.748000145,,,382,1.755299926,-0.627499983,9.963500142
1.683E+18,7.674058105,0.785899997,-0.83829999,1.54610002,,,1.02820003,-0.171700001,9.750999451,,,383,1.814100027,-1.00999999,11.29709947
1.683E+18,7.694058105,0.448199987,-1.210099936,1.884799957,,,0.983500004,-0.172499999,9.755599976,,,384,1.431699991,-1.382599935,11.64039993
1.683E+18,7.714056396,0.419099987,-1.211399913,0.825299978,,,0.983199954,-0.151600003,9.755999565,,,385,1.402299941,-1.362999916,10.58129954
1.683E+18,7.734058105,0.281499982,-0.597599983,-0.612800002,,,1.022699952,-0.0986,9.752599716,,,386,1.304199934,-0.696199983,9.139799714
1.683E+18,7.754058105,-0.0008,-0.245099992,-1.579100013,,,1.069700003,-0.0392,9.748000145,,,387,1.068900003,-0.284299992,8.168900132
1.683E+18,7.774058105,-0.361699998,-0.143999994,-1.927999973,,,1.106999993,-0.003,9.743899345,,,388,0.745299995,-0.146999994,7.815899372
1.683E+18,7.794058105,-0.629700005,-0.079799995,-1.944999933,,,1.129799962,0.0111,9.741299629,,,389,0.500099957,-0.068699995,7.796299696
1.683E+18,7.814058105,-0.727499962,-0.0243,-1.934099913,,,1.139400005,0.0243,9.740099907,,,390,0.411900043,0,7.805999994
1.683E+18,7.834058105,-0.821699977,-0.15609999,-1.983500004,,,1.135499954,0.048299998,9.740499496,,,391,0.313799977,-0.107799992,7.756999493
1.683E+18,7.854058105,-0.635800004,-0.194199994,-2.082399845,,,1.126099944,0.076499999,9.741399765,,,392,0.49029994,-0.117699996,7.65899992
1.683E+18,7.874058105,-0.269699991,-0.090599999,-1.848399997,,,1.113099933,0.090599999,9.742799759,,,393,0.843399942,0,7.894399762
1.683E+18,7.894056396,0.062399998,-0.0093,-1.232800007,,,1.094599962,0.0779,9.744999886,,,394,1.156999961,0.0686,8.512199879
1.683E+18,7.914058105,0.183899999,0.151799992,-0.706099987,,,1.07130003,0.044199999,9.747799873,,,395,1.255200028,0.195999991,9.041699886
1.683E+18,7.934058105,0.262099981,0.319700003,-0.345400006,,,1.051800013,0.0039,9.75,,,396,1.313899994,0.323600003,9.404599994
1.683E+18,7.954058105,0.181799993,0.363999993,-0.403999984,,,1.05369997,-0.030599998,9.749799728,,,397,1.235499963,0.333399994,9.345799744
1.683E+18,7.974058105,0.047799997,0.48269999,-0.577600002,,,1.079900026,-0.051199999,9.746799469,,,398,1.127700023,0.431499992,9.169199467
1.683E+18,7.994056396,-0.1602,0.659799993,-0.613200009,,,1.111500025,-0.0616,9.743199348,,,399,0.951300025,0.598199993,9.12999934
1.683E+18,8.014058105,-0.236899987,0.750499964,-0.256899983,,,1.139099956,-0.073799998,9.739899635,,,400,0.902199969,0.676699966,9.482999653
1.683E+18,8.034058105,-0.465799987,0.570199966,0.177299991,,,1.161999941,-0.089699998,9.737099648,,,401,0.696199954,0.480499968,9.914399639
1.683E+18,8.054058105,-0.680099964,0.506900012,0.601399958,,,1.180199981,-0.104899995,9.734799385,,,402,0.500100017,0.402000017,10.33619934
1.683E+18,8.074058105,-0.686699986,0.594399989,0.918599963,,,1.206399918,-0.1237,9.7312994,,,403,0.519699931,0.470699988,10.64989936
1.683E+18,8.094058105,-0.787099957,0.512099981,1.266199946,,,1.238199949,-0.149199992,9.726999283,,,404,0.451099992,0.362899989,10.99319923
1.683E+18,8.114056396,-0.755499959,0.381499976,1.789899945,,,1.265499949,-0.175499991,9.722999573,,,405,0.50999999,0.205999985,11.51289952
1.683E+18,8.134056396,-0.635800004,-0.119399995,2.537899971,,,1.283100009,-0.194299996,9.720399857,,,406,0.647300005,-0.313699991,12.25829983
1.683E+18,8.154058105,-0.414199978,-0.510699987,3.166199923,,,1.286999941,-0.2051,9.719599724,,,407,0.872799963,-0.715799987,12.88579965
1.683E+18,8.174058105,-0.0093,-0.578399956,3.450699806,,,1.284099936,-0.225699991,9.719499588,,,408,1.274799936,-0.804099947,13.17019939
1.683E+18,8.194058105,0.42049998,-0.348999977,3.119899988,,,1.295499921,-0.268700004,9.716899872,,,409,1.715999901,-0.617699981,12.83679986
1.683E+18,8.214056396,0.386700004,0.094999999,1.614499927,,,1.319499969,-0.320499986,9.712100029,,,410,1.706199974,-0.225499988,11.32659996
1.683E+18,8.234058105,0.45479998,0.370599985,-0.004,,,1.378899932,-0.350999981,9.702799797,,,411,1.833699912,0.019600004,9.698799797
1.683E+18,8.254058105,0.867799997,0.172099993,-0.287,,,1.45630002,-0.3486,9.691599846,,,412,2.324100018,-0.176500008,9.404599845
1.683E+18,8.274058105,0.909699976,-0.387499988,0.939099967,,,1.463499904,-0.328199983,9.691199303,,,413,2.37319988,-0.715699971,10.63029927
1.683E+18,8.294058105,0.69569999,-0.890100002,2.260599852,,,1.38319993,-0.316100001,9.703399658,,,414,2.07889992,-1.206200004,11.96399951
1.683E+18,8.314058105,0.270999998,-1.318300009,2.551300049,,,1.288200021,-0.309499979,9.7166996,,,415,1.559200019,-1.627799988,12.26799965
1.683E+18,8.334058105,0.0177,-1.521099925,0.92809999,,,1.257099986,-0.273399979,9.72179985,,,416,1.274799986,-1.794499904,10.64989984
1.683E+18,8.354058105,-0.142399997,-1.425799966,-1.107999921,,,1.299600005,-0.19219999,9.71819973,,,417,1.157200009,-1.617999956,8.610199809
1.683E+18,8.374058105,0.023699999,-1.058899999,-2.33679986,,,1.358999968,-0.107999995,9.711400032,,,418,1.382699966,-1.166899994,7.374600172
1.683E+18,8.394056396,0.374499977,-0.767699957,-2.175699949,,,1.390599966,-0.075599998,9.70720005,,,419,1.765099943,-0.843299955,7.531500101
1.683E+18,8.414058105,0.333599985,-0.852899969,-1.295300007,,,1.372699976,-0.108099997,9.709400177,,,420,1.706299961,-0.960999966,8.41410017
1.683E+18,8.434058105,0.148100004,-0.870399952,-0.878499985,,,1.332599998,-0.159199998,9.714300156,,,421,1.480700001,-1.02959995,8.835800171
1.683E+18,8.454058105,-0.0067,-0.4111,-1.087100029,,,1.31099999,-0.17719999,9.717000008,,,422,1.30429999,-0.58829999,8.629899979
1.683E+18,8.474058105,-0.188500002,-0.17899999,-1.616299987,,,1.316200018,-0.154399991,9.716599464,,,423,1.127700016,-0.333399981,8.100299478
1.683E+18,8.494058105,-0.327999979,-0.0288,-1.703499913,,,1.328299999,-0.118199997,9.715499878,,,424,1.00030002,-0.146999996,8.011999965
1.683E+18,8.514058105,-0.440099984,-0.20889999,-1.31219995,,,1.322700024,-0.094999999,9.716499329,,,425,0.882600039,-0.303899989,8.404299378
1.683E+18,8.534058105,-0.432999998,-0.263300002,-0.825499952,,,1.295899987,-0.089699998,9.720199585,,,426,0.862899989,-0.353,8.894699633
1.683E+18,8.554058105,-0.325899988,-0.171700001,-0.564499974,,,1.26730001,-0.092900001,9.723899841,,,427,0.941400021,-0.264600001,9.159399867
1.683E+18,8.574056396,-0.188299999,0.053599998,-0.557299972,,,1.247499943,-0.092799999,9.726499557,,,428,1.059199944,-0.0392,9.169199586
1.683E+18,8.594058105,0.069600001,0.18779999,-0.655799985,,,1.244400024,-0.089699998,9.726900101,,,429,1.314000025,0.098099992,9.071100116
1.683E+18,8.614058105,0.297099978,0.232999995,-0.538399994,,,1.242399931,-0.085900001,9.727199554,,,430,1.539499909,0.147099994,9.18879956
1.683E+18,8.634058105,0.535600007,0.183799997,0.0189,,,1.229499936,-0.085699998,9.72879982,,,431,1.765099943,0.098099999,9.74769982
1.683E+18,8.654058105,0.768999994,0.1197,0.966699958,,,1.202000022,-0.090300001,9.732199669,,,432,1.971000016,0.029399998,10.69889963
1.683E+18,8.674069092,0.921599984,0.101499997,2.108799934,,,1.157299995,-0.101499997,9.737500191,,,433,2.07889998,0,11.84630013
1.683E+18,8.694058105,0.84859997,-0.042099997,2.867499828,,,1.102800012,-0.114699997,9.743700027,,,434,1.951399982,-0.156799994,12.61119986
1.683E+18,8.714056396,0.743999958,-0.145699993,2.589400053,,,1.07009995,-0.118899994,9.747300148,,,435,1.814099908,-0.264599986,12.3367002
1.683E+18,8.734058105,0.61680001,-0.138400003,1.97239995,,,1.079699993,-0.096900001,9.746500015,,,436,1.696500003,-0.235300004,11.71889997
1.683E+18,8.75405957,0.642199993,-0.539299965,1.935499907,,,1.103299975,-0.058799997,9.744199753,,,437,1.745499969,-0.598099962,11.67969966
1.683E+18,8.77405957,0.745299995,-0.726099968,2.021999836,,,1.088500023,-0.038699999,9.745900154,,,438,1.833800018,-0.764799967,11.76789999
1.683E+18,8.794058105,0.980699956,-0.506299973,2.076499939,,,1.049099922,-0.042799998,9.750199318,,,439,2.029799879,-0.549099971,11.82669926
1.683E+18,8.81405957,0.676400006,-0.020099999,1.397799969,,,1.029799938,-0.048499998,9.752200127,,,440,1.706199944,-0.068599997,11.1500001
1.683E+18,8.83405957,0.269099981,0.210999995,-0.119499996,,,1.054700017,-0.034499999,9.749699593,,,441,1.323799998,0.176499996,9.630199596
1.683E+18,8.854058105,0.338499993,0.214299992,-1.355199933,,,1.142199993,0.0111,9.7397995,,,442,1.480699986,0.225399991,8.384599566
1.683E+18,8.874058105,0.360699981,-0.068700001,-1.354200006,,,1.227900028,0.078499995,9.729100227,,,443,1.58860001,0.009799995,8.374900222
1.683E+18,8.894056396,0.165299997,-0.644800007,-0.223399997,,,1.246699929,0.134900004,9.726099968,,,444,1.411999926,-0.509900004,9.502699971
1.683E+18,8.914058105,0.046999998,-1.147699952,0.754999995,,,1.227699995,0.157199994,9.728199959,,,445,1.274699993,-0.990499958,10.48319995
1.683E+18,8.934058105,-0.116299994,-1.241299987,1.026899934,,,1.20480001,0.162599996,9.730899811,,,446,1.088500015,-1.078699991,10.75779974
1.683E+18,8.954058105,0.0034,-0.860599995,0.487399995,,,1.202700019,0.174099997,9.730999947,,,447,1.206100019,-0.686499998,10.21839994
1.683E+18,8.974058105,-0.153799996,-0.414700001,-0.354099989,,,1.212899923,0.199000001,9.729299545,,,448,1.059099928,-0.215700001,9.375199556
1.683E+18,8.994056396,-0.317999989,-0.220499992,-0.881099999,,,1.230000019,0.220499992,9.726699829,,,449,0.91200003,0,8.84559983
1.683E+18,9.014058105,-0.462399989,-0.229099989,-1.230499983,,,1.25669992,0.229099989,9.722999573,,,450,0.79429993,0,8.49249959
1.683E+18,9.034056396,-0.614899993,-0.23089999,-1.511600018,,,1.281700015,0.23089999,9.71969986,,,451,0.666800022,0,8.208099842
1.683E+18,9.05405957,-0.698700011,-0.232299998,-1.774299979,,,1.296899915,0.232299998,9.717700005,,,452,0.598199904,0,7.943400025
1.683E+18,9.07405957,-0.699099958,-0.192399994,-1.793900013,,,1.297299981,0.231699988,9.717599869,,,453,0.598200023,0.039299995,7.923699856
1.683E+18,9.094058105,-0.701900005,-0.0616,-1.707899928,,,1.280399919,0.22829999,9.719999313,,,454,0.578499913,0.166699991,8.012099385
1.683E+18,9.11405957,-0.622599959,0.024599999,-1.66170001,,,1.260100007,0.220499992,9.722799301,,,455,0.637500048,0.245099992,8.061099291
1.683E+18,9.13405957,-0.468199998,0.187999994,-1.574800014,,,1.252699971,0.2042,9.724100113,,,456,0.784499973,0.392199993,8.149300098
1.683E+18,9.154058105,-0.365799993,0.283099979,-1.260800004,,,1.25819993,0.177699998,9.723899841,,,457,0.892399937,0.460799977,8.463099837
1.683E+18,9.174058105,-0.403099984,0.295699984,-0.800599992,,,1.256299973,0.145499989,9.724699974,,,458,0.853199989,0.441199973,8.924099982
1.683E+18,9.194058105,-0.4278,0.276899993,-0.440099984,,,1.241699934,0.1153,9.726999283,,,459,0.813899934,0.392199993,9.286899298
1.683E+18,9.214056396,-0.568799973,0.28549999,-0.285400003,,,1.225799918,0.096900001,9.729199409,,,460,0.656999946,0.382399991,9.443799406
1.683E+18,9.23405957,-0.591300011,0.413199991,-0.38439998,,,1.218899965,0.086799994,9.730199814,,,461,0.627599955,0.499999985,9.345799834
1.683E+18,9.254058105,-0.371299982,0.516200006,-0.412,,,1.234300017,0.072099999,9.728300095,,,462,0.863000035,0.588300005,9.316300094
1.683E+18,9.274058105,-0.151199996,0.570899963,-0.095100001,,,1.25940001,0.0469,9.725299835,,,463,1.108200014,0.617799964,9.630199835
1.683E+18,9.294058105,0.0137,0.497099996,0.533800006,,,1.270900011,0.0128,9.723899841,,,464,1.284600011,0.509899995,10.25769985
1.683E+18,9.314058105,0.22649999,0.516200006,1.24029994,,,1.273800015,-0.025899999,9.723499298,,,465,1.500300005,0.490300007,10.96379924
1.683E+18,9.334058105,0.240999997,0.582099974,1.916499972,,,1.269099951,-0.062399998,9.723899841,,,466,1.510099947,0.519699976,11.64039981
1.683E+18,9.35405957,0.234099999,0.630800009,2.465499878,,,1.266199946,-0.091499999,9.724100113,,,467,1.500299945,0.53930001,12.18959999
1.683E+18,9.37405957,0.21769999,0.355699986,2.89929986,,,1.282699943,-0.110599995,9.721699715,,,468,1.500399932,0.245099992,12.62099957
1.683E+18,9.394056396,0.068700001,0.263199985,3.166999817,,,1.304099917,-0.116099998,9.718799591,,,469,1.372799918,0.147099987,12.88579941
1.683E+18,9.41405957,0.085199997,0.128999993,2.798899889,,,1.336699963,-0.119199999,9.714300156,,,470,1.421899959,0.009799995,12.51320004
1.683E+18,9.43405957,0.163800001,-0.077500001,2.150099993,,,1.395399928,-0.118499994,9.70609951,,,471,1.559199929,-0.195999995,11.8561995
1.683E+18,9.45405957,0.154399991,-0.0163,1.187699914,,,1.453799963,-0.110999994,9.697599411,,,472,1.608199954,-0.127299994,10.88529932
1.683E+18,9.47405957,0.144999996,-0.0506,0.186499998,,,1.512199998,-0.106199995,9.688699722,,,473,1.657199994,-0.156799994,9.87519972
1.683E+18,9.494056396,0.3134,-0.285600007,-0.0103,,,1.569399953,-0.106599994,9.679599762,,,474,1.882799953,-0.392200001,9.669299762
1.683E+18,9.514058105,0.421700001,-0.615700006,0.963699996,,,1.588499904,-0.109899998,9.676499367,,,475,2.010199904,-0.725600004,10.64019936
1.683E+18,9.534058105,0.341399997,-0.922999978,2.065799952,,,1.551199913,-0.116399996,9.68239975,,,476,1.89259991,-1.039399974,11.7481997
1.683E+18,9.554058105,0.0744,-1.182699919,2.351199865,,,1.494599938,-0.121399999,9.691299438,,,477,1.568999939,-1.304099917,12.0424993
1.683E+18,9.574058105,-0.0381,-1.11529994,1.366599917,,,1.469900012,-0.1105,9.695199966,,,478,1.431800012,-1.225799941,11.06179988
1.683E+18,9.594058105,-0.181999996,-0.942699969,0.0072,,,1.495999932,-0.077100001,9.69149971,,,479,1.313999936,-1.01979997,9.69869971
1.683E+18,9.614058105,-0.415799975,-0.862599969,-0.997099996,,,1.533800006,-0.039499998,9.685799599,,,480,1.118000031,-0.902099967,8.688699603
1.683E+18,9.634056396,-0.458999991,-0.930700004,-1.374300003,,,1.567199945,-0.020399999,9.680500031,,,481,1.108199954,-0.951100003,8.306200027
1.683E+18,9.654058105,-0.687099993,-1.08099997,-1.49000001,,,1.57949996,-0.017199999,9.678500175,,,482,0.892399967,-1.098199969,8.188500166
1.683E+18,9.674058105,-0.779100001,-1.154699922,-1.775399923,,,1.573399901,-0.0122,9.679499626,,,483,0.794299901,-1.166899921,7.904099703
1.683E+18,9.694056396,-0.778599977,-0.958599985,-2.228199959,,,1.56309998,-0.0024,9.681200027,,,484,0.784500003,-0.960999985,7.453000069
1.683E+18,9.714056396,-0.539200008,-0.64289999,-2.33829999,,,1.549299955,-0.0042,9.683400154,,,485,1.010099947,-0.64709999,7.345100164
1.683E+18,9.73405957,-0.2588,-0.371199995,-1.832299948,,,1.523800015,-0.0308,9.687399864,,,486,1.265000015,-0.401999995,7.855099916
1.683E+18,9.754058105,-0.1074,-0.285999984,-1.201399922,,,1.480399966,-0.076699995,9.693900108,,,487,1.372999966,-0.362699978,8.492500186
1.683E+18,9.774058105,0.062199999,-0.170499995,-0.708499968,,,1.428300023,-0.123599999,9.701199532,,,488,1.490500022,-0.294099994,8.992699564
1.683E+18,9.794058105,0.118299998,-0.077500001,-0.314099997,,,1.372200012,-0.157799989,9.708799362,,,489,1.490500011,-0.23529999,9.394699365
1.683E+18,9.814058105,0.216099992,-0.0605,-0.222499996,,,1.323400021,-0.174699992,9.715299606,,,490,1.539500013,-0.235199992,9.49279961
1.683E+18,9.834056396,0.212200001,-0.056199998,-0.580199957,,,1.288100004,-0.179099992,9.719999313,,,491,1.500300005,-0.23529999,9.139799356
1.683E+18,9.854056396,0.344399989,-0.014699999,-0.916799963,,,1.263800025,-0.181299999,9.723099709,,,492,1.608200014,-0.195999999,8.806299746
1.683E+18,9.874058105,0.41139999,0.064499997,-0.801199973,,,1.245800018,-0.192000002,9.725199699,,,493,1.657200009,-0.127500005,8.923999727
1.683E+18,9.894056396,0.612299979,0.189999998,-0.097599998,,,1.22149992,-0.219399989,9.727799416,,,494,1.833799899,-0.029399991,9.630199417
1.683E+18,9.914056396,0.769499958,0.270799994,0.92809999,,,1.181999922,-0.261000007,9.731599808,,,495,1.951499879,0.009799987,10.6596998
1.683E+18,9.934056396,0.854200006,0.292099983,2.147399902,,,1.116799951,-0.301899999,9.738100052,,,496,1.970999956,-0.009800017,11.88549995
1.683E+18,9.954058105,0.844500005,0.358799994,2.903499842,,,1.028399944,-0.329400003,9.746999741,,,497,1.87289995,0.029399991,12.65049958
1.683E+18,9.974058105,0.773599982,0.380899996,3.043299913,,,0.952199996,-0.341600001,9.754300117,,,498,1.725799978,0.039299995,12.79760003
1.683E+18,9.994056396,0.648299992,0.158999994,2.197599888,,,0.930499971,-0.335599989,9.756599426,,,499,1.578799963,-0.176599994,11.95419931
1.683E+18,10.01405811,0.664999962,-0.177399993,1.95389998,,,0.952999949,-0.312900007,9.755199432,,,500,1.617999911,-0.4903,11.70909941
1.683E+18,10.03405811,0.569199979,-0.051999997,2.286999941,,,0.950699985,-0.310699999,9.75549984,,,501,1.519899964,-0.362699997,12.04249978
1.683E+18,10.05405811,0.565699995,0.0177,2.422799826,,,0.924799979,-0.341299981,9.756899834,,,502,1.490499973,-0.323599981,12.17969966
1.683E+18,10.07405957,0.424499989,0.25059998,1.373399973,,,0.909099996,-0.378099978,9.756999969,,,503,1.333599985,-0.127499998,11.13039994
1.683E+18,10.09405811,0.366299987,0.584500015,-0.331,,,0.92809999,-0.378600001,9.755199432,,,504,1.294399977,0.205900013,9.424199432
1.683E+18,10.11405811,0.615499973,0.842099965,-1.317499995,,,0.982899964,-0.341999978,9.751199722,,,505,1.598399937,0.500099987,8.433699727
1.683E+18,10.13405811,0.529100001,0.774499953,-0.834399998,,,1.020300031,-0.303799987,9.748600006,,,506,1.549400032,0.470699966,8.914200008
1.683E+18,10.15405811,0.201199993,0.318599999,0.547500014,,,1.014799953,-0.298999995,9.749400139,,,507,1.215999946,0.019600004,10.29690015
1.683E+18,10.17405811,-0.220399991,-0.375699997,1.457899928,,,0.995099962,-0.310599983,9.750999451,,,508,0.774699971,-0.68629998,11.20889938
1.683E+18,10.1940564,-0.622699976,-0.755800009,1.279799938,,,0.985499978,-0.29339999,9.75249958,,,509,0.362800002,-1.049199998,11.03229952
1.683E+18,10.2140564,-0.655699968,-0.620599985,0.161599994,,,0.998899996,-0.232499987,9.752799988,,,510,0.343200028,-0.853099972,9.914399981
1.683E+18,10.23405811,-0.560299993,-0.459099978,-0.884899974,,,1.040799975,-0.148800001,9.750100136,,,511,0.480499983,-0.607899979,8.865200162
1.683E+18,10.25405957,-0.708000004,-0.485799998,-1.517699957,,,1.090399981,-0.082899995,9.745399475,,,512,0.382399976,-0.568699993,8.227699518
1.683E+18,10.27405811,-0.742899954,-0.555199981,-1.649999976,,,1.135200024,-0.052699998,9.740499496,,,513,0.392300069,-0.607899979,8.09049952
1.683E+18,10.29405811,-0.756099999,-0.537599981,-1.636399984,,,1.167899966,-0.040899999,9.736700058,,,514,0.411799967,-0.57849998,8.100300074
1.683E+18,10.31405811,-0.726999998,-0.514999986,-1.741899967,,,1.187999964,-0.0243,9.73429966,,,515,0.460999966,-0.539299985,7.992399693
1.683E+18,10.3340564,-0.740399957,-0.545700014,-1.906999946,,,1.201300025,0.0063,9.732699394,,,516,0.460900068,-0.539400014,7.825699449
1.683E+18,10.35405811,-0.722899973,-0.473499984,-2.150599957,,,1.213199973,0.042099997,9.731200218,,,517,0.4903,-0.431399986,7.580600262
1.683E+18,10.37405957,-0.540499985,-0.341600001,-2.187999964,,,1.226899981,0.067000002,9.729299545,,,518,0.686399996,-0.274599999,7.541299582
1.683E+18,10.39405957,-0.467999995,-0.148699999,-1.834199905,,,1.232900023,0.070299998,9.728499413,,,519,0.764900029,-0.078400001,7.894299507
1.683E+18,10.41405811,-0.434100002,-0.0561,-1.285699964,,,1.228500009,0.0561,9.729199409,,,520,0.794400007,0,8.443499446
1.683E+18,10.4340564,-0.377399981,0.0112,-0.747299969,,,1.220799923,0.037699997,9.730199814,,,521,0.843399942,0.048899997,8.982899845
1.683E+18,10.45405811,-0.261199981,0.0145,-0.159999996,,,1.21239996,0.024599999,9.7312994,,,522,0.951199979,0.039099999,9.571299404
1.683E+18,10.47405811,-0.230599999,0.023599999,0.191499993,,,1.201499939,0.0155,9.732699394,,,523,0.97089994,0.039099999,9.924199387
1.683E+18,10.4940564,-0.239299998,0.161799997,0.054099999,,,1.200399995,0.0048,9.73279953,,,524,0.961099997,0.166599997,9.786899529
1.683E+18,10.51405811,-0.078299999,0.323100001,-0.18779999,,,1.225700021,-0.0093,9.729700089,,,525,1.147400022,0.313800001,9.541900098
1.683E+18,10.53405957,-0.106399998,0.507799983,0.0425,,,1.263599992,-0.0273,9.72480011,,,526,1.157199994,0.480499983,9.76730011
1.683E+18,10.55405957,-0.160999998,0.646899998,0.899100006,,,1.288800001,-0.058499999,9.721399307,,,527,1.127800003,0.588399999,10.62049931
1.683E+18,10.5740564,-0.164499998,0.668799996,1.880599976,,,1.292199969,-0.099999994,9.720600128,,,528,1.127699971,0.568800002,11.6012001
1.683E+18,10.59405811,-0.330300003,0.830599964,2.633399963,,,1.271700025,-0.134299994,9.722899437,,,529,0.941400021,0.69629997,12.3562994
1.683E+18,10.61405957,-0.542199969,0.528199971,3.249599934,,,1.258099914,-0.145699993,9.724499702,,,530,0.715899944,0.382499978,12.97409964
1.683E+18,10.63405811,-0.377900004,0.229299992,3.927699804,,,1.270299911,-0.131200001,9.723099709,,,531,0.892399907,0.098099992,13.65079951
1.683E+18,10.65405811,-0.42049998,0.262800008,4.370500088,,,1.283499956,-0.115699999,9.721499443,,,532,0.862999976,0.147100009,14.09199953
1.683E+18,10.67405811,-0.282199979,0.076399997,3.85469985,,,1.31190002,-0.125399992,9.717599869,,,533,1.029700041,-0.048999995,13.57229972
1.683E+18,10.69405811,-0.025699999,0.135700002,2.551399946,,,1.388799906,-0.135700002,9.706799507,,,534,1.363099907,0,12.25819945
1.683E+18,10.7140564,0.0132,0.118999995,0.771200001,,,1.487200022,-0.118999995,9.692399979,,,535,1.500400022,0,10.46359998
1.683E+18,10.73405811,0.106399998,-0.19659999,-0.605399966,,,1.590099931,-0.0779,9.676499367,,,536,1.696499929,-0.27449999,9.071099401
1.683E+18,10.75405811,0.368699998,-0.845799983,-0.658999979,,,1.680799961,-0.017099999,9.661499977,,,537,2.049499959,-0.862899981,9.002499998
1.683E+18,10.77405811,0.287400007,-1.211599946,0.354999989,,,1.703199983,0.0348,9.657499313,,,538,1.99059999,-1.176799946,10.0124993
1.683E+18,10.79405811,-0.045499999,-1.4375,1.121199965,,,1.653800011,0.044999998,9.665999413,,,539,1.608300012,-1.392500002,10.78719938
1.683E+18,10.81405811,-0.253399998,-1.591399908,0.858299971,,,1.606699944,0.041999999,9.673999786,,,540,1.353299946,-1.549399909,10.53229976
1.683E+18,10.83405811,-0.406199992,-1.344599962,-0.514999986,,,1.602699995,0.079599999,9.674399376,,,541,1.196500003,-1.264999963,9.15939939
1.683E+18,10.85405811,-0.630599976,-1.153599977,-1.718899965,,,1.611199975,0.153300002,9.672100067,,,542,0.980599999,-1.000299975,7.953200102
1.683E+18,10.87405811,-0.448599994,-1.014299989,-2.266299963,,,1.61559999,0.210199997,9.67029953,,,543,1.166999996,-0.804099992,7.403999567
1.683E+18,10.8940564,-0.238299996,-0.973899961,-2.07069993,,,1.611199975,0.218799993,9.670800209,,,544,1.372899979,-0.755099967,7.600100279
1.683E+18,10.91405811,-0.188899994,-0.969099998,-1.710099936,,,1.601099968,0.194399998,9.673099518,,,545,1.412199974,-0.774700001,7.962999582
1.683E+18,10.93405957,-0.260600001,-0.878199995,-1.771999955,,,1.584499955,0.172099993,9.676199913,,,546,1.323899955,-0.706100002,7.904199958
1.683E+18,10.95405811,-0.245399997,-0.678200006,-1.756599903,,,1.559499979,0.168300003,9.680299759,,,547,1.314099982,-0.509900004,7.923699856
1.683E+18,10.97405957,-0.213,-0.568799973,-1.478899956,,,1.51730001,0.166799992,9.687099457,,,548,1.30430001,-0.40199998,8.208199501
1.683E+18,10.9940564,-0.109999999,-0.554199994,-0.938299954,,,1.46329999,0.152099997,9.695599556,,,549,1.35329999,-0.402099997,8.757299602
1.683E+18,11.01405811,0.145499989,-0.371499985,-0.406599998,,,1.413599968,0.126399994,9.703299522,,,550,1.559099957,-0.245099992,9.296699524
1.683E+18,11.0340564,0.179399997,-0.205699995,-0.060199998,,,1.370000005,0.097899996,9.709899902,,,551,1.549400002,-0.107799999,9.649699904
1.683E+18,11.05405957,0.165899992,-0.073600002,-0.026099999,,,1.334399939,0.073600002,9.715099335,,,552,1.500299931,0,9.688999336
1.683E+18,11.0740564,0.178800002,0.0381,-0.40199998,,,1.311699986,0.059799999,9.718299866,,,553,1.490499988,0.097899999,9.316299886
1.683E+18,11.09405811,0.308799982,0.210199997,-0.697899997,,,1.299399972,0.054499999,9.719999313,,,554,1.608199954,0.264699996,9.022099316
1.683E+18,11.11405811,0.60710001,0.436699986,-0.464399993,,,1.28549993,0.043699998,9.721899986,,,555,1.89259994,0.480399985,9.257499993
1.683E+18,11.13405811,0.915399969,0.548799992,0.238399997,,,1.261500001,0.0199,9.725099564,,,556,2.17689997,0.568699991,9.963499561
1.683E+18,11.15405811,1.244199991,0.665699959,1.077299953,,,1.226899981,-0.008599999,9.729499817,,,557,2.471099973,0.657099959,10.80679977
1.683E+18,11.17405811,1.446099997,0.829400003,2.052399874,,,1.181900024,-0.035,9.734999657,,,558,2.628000021,0.794400003,11.78739953
1.683E+18,11.19405811,1.142400026,0.690199971,2.419299841,,,1.132699966,-0.0528,9.740799904,,,559,2.275099993,0.637399971,12.16009974
1.683E+18,11.2140564,0.839100003,0.624000013,1.926699996,,,1.112299919,-0.055299997,9.743199348,,,560,1.951399922,0.568700016,11.66989934
1.683E+18,11.23405811,0.709599972,0.524399996,1.781999946,,,1.133899927,-0.0341,9.740799904,,,561,1.843499899,0.490299996,11.52279985
1.683E+18,11.25405957,0.482299984,0.0188,2.479500055,,,1.145499945,-0.009,9.739500046,,,562,1.627799928,0.0098,12.2190001
1.683E+18,11.2740564,0.191699997,-0.304199994,2.712199926,,,1.122300029,-0.0095,9.742199898,,,563,1.314000025,-0.313699993,12.45439982
1.683E+18,11.29405811,0.197799996,-0.532700002,2.152499914,,,1.11619997,-0.0164,9.742899895,,,564,1.313999966,-0.549100002,11.89539981
1.683E+18,11.31405811,0.0359,-0.121799998,0.760499954,,,1.121199965,-0.0056,9.742300034,,,565,1.157099966,-0.127399998,10.50279999
1.683E+18,11.33405811,0.268399984,0.063299999,-0.98119998,,,1.153499961,0.015099999,9.738499641,,,566,1.421899945,0.078399998,8.757299662
1.683E+18,11.3540564,0.762999952,-0.021499999,-1.913499951,,,1.227599978,0.041099999,9.729399681,,,567,1.99059993,0.0196,7.81589973
1.683E+18,11.37405811,0.806899965,-0.068700001,-1.210099936,,,1.281799912,0.058899999,9.722299576,,,568,2.088699877,-0.009800002,8.51219964
1.683E+18,11.39405957,0.428299993,-0.452099979,0.45629999,,,1.277899981,0.040199999,9.722899437,,,569,1.706199974,-0.41189998,10.17919943
1.683E+18,11.41405957,-0.080399998,-1.063799977,1.531000018,,,1.247399926,0.0047,9.726900101,,,570,1.166999929,-1.059099977,11.25790012
1.683E+18,11.4340564,-0.645599961,-1.224900007,1.439799905,,,1.22420001,-0.0009,9.729899406,,,571,0.578600049,-1.225800007,11.16969931
1.683E+18,11.45405811,-0.677999973,-0.757600009,0.283099979,,,1.227100015,0.041699998,9.729399681,,,572,0.549100041,-0.715900011,10.01249966
1.683E+18,11.47405811,-0.756500006,-0.277700007,-0.870999992,,,1.246799946,0.110999994,9.726399422,,,573,0.49029994,-0.166700013,8.85539943
1.683E+18,11.4940564,-0.782199979,-0.149099991,-1.523999929,,,1.272599936,0.158899993,9.722399712,,,574,0.490399957,0.009800002,8.198399782
1.683E+18,11.51405811,-0.57919997,-0.216799989,-1.362699986,,,1.304899931,0.167799994,9.717899323,,,575,0.725699961,-0.048999995,8.355199337
1.683E+18,11.53405811,-0.647599995,-0.35619998,-1.164099932,,,1.324199915,0.159999996,9.715499878,,,576,0.67659992,-0.196199983,8.551399946
1.683E+18,11.55405811,-0.647300005,-0.375499994,-1.026799917,,,1.324000001,0.159699991,9.715499878,,,577,0.676699996,-0.215800002,8.688699961
1.683E+18,11.57405811,-0.725699961,-0.410999984,-1.135699987,,,1.314099908,0.175699994,9.716599464,,,578,0.588399947,-0.23529999,8.580899477
1.683E+18,11.59405811,-0.729299963,-0.397499979,-1.441399932,,,1.297999978,0.201299995,9.71819973,,,579,0.568700016,-0.196199983,8.276799798
1.683E+18,11.61405811,-0.718400002,-0.376499981,-1.511099935,,,1.287199974,0.219599992,9.719299316,,,580,0.568799973,-0.156899989,8.208199382
1.683E+18,11.63405957,-0.519199967,-0.20449999,-1.344900012,,,1.284099936,0.214299992,9.719799995,,,581,0.764899969,0.009800002,8.374899983
1.683E+18,11.65405957,-0.298799992,0.0195,-1.138899922,,,1.289199948,0.186299995,9.71969986,,,582,0.990399957,0.205799995,8.580799937
1.683E+18,11.67405811,-0.211499989,0.238999993,-0.952999949,,,1.290199995,0.153200001,9.720099449,,,583,1.078700006,0.392199993,8.7670995
1.683E+18,11.6940564,-0.24589999,0.350499988,-0.787299991,,,1.285399914,0.129899994,9.721099854,,,584,1.039499924,0.480399981,8.933799863
1.683E+18,11.7140564,-0.398999989,0.242899999,-0.738900006,,,1.281599998,0.119899996,9.72179985,,,585,0.882600009,0.362799995,8.982899845
1.683E+18,11.73405811,-0.503600001,0.296599984,-0.816500008,,,1.288100004,0.115099996,9.720899582,,,586,0.784500003,0.41169998,8.904399574
1.683E+18,11.75405957,-0.44689998,0.466199994,-0.844500005,,,1.300099969,0.102499999,9.719499588,,,587,0.853199989,0.568699993,8.874999583
1.683E+18,11.77405811,-0.124899998,0.594900012,-0.323499978,,,1.311499953,0.071899995,9.71819973,,,588,1.186599955,0.666800007,9.394699752
1.683E+18,11.79405811,0.0211,0.387999982,0.8028,,,1.302600026,0.023799999,9.71969986,,,589,1.323700026,0.41179998,10.52249986
1.683E+18,11.81405811,-0.088599995,0.378299981,1.966199994,,,1.275200009,-0.035099998,9.72329998,,,590,1.186600015,0.343199983,11.68949997
1.683E+18,11.83405811,-0.075300001,0.508700013,2.630399942,,,1.252099991,-0.096799999,9.725899696,,,591,1.17679999,0.411900014,12.35629964
1.683E+18,11.85405811,-0.13849999,0.683399975,2.64989996,,,1.246699929,-0.143999994,9.725999832,,,592,1.108199939,0.539399981,12.37589979
1.683E+18,11.87405811,0.023899999,0.112899996,2.691200018,,,1.260599971,-0.162,9.723899841,,,593,1.284499969,-0.049100004,12.41509986
1.683E+18,11.8940564,0.168599993,-0.155900002,2.898699999,,,1.272899985,-0.157799989,9.722399712,,,594,1.441499978,-0.313699991,12.62109971
1.683E+18,11.91405811,0.684899986,-0.183899999,3.184999943,,,1.286099911,-0.169,9.720399857,,,595,1.970999897,-0.352899998,12.9053998
1.683E+18,11.93405811,0.913800001,-0.192499995,3.355999947,,,1.312299967,-0.2095,9.716099739,,,596,2.226099968,-0.401999995,13.07209969
1.683E+18,11.95405811,0.741599977,-0.090099998,2.42750001,,,1.327499986,-0.253100008,9.712999344,,,597,2.069099963,-0.343200006,12.14049935
1.683E+18,11.97405811,0.485599995,0.098999999,0.264799982,,,1.357999921,-0.265699983,9.708499908,,,598,1.843599916,-0.166699983,9.973299891
1.683E+18,11.99405957,0.342299998,0.084600002,-1.100799918,,,1.412999988,-0.24149999,9.701299667,,,599,1.755299985,-0.156899989,8.600499749
1.683E+18,12.01405957,0.401199996,-0.469099998,-0.662899971,,,1.461899996,-0.207399994,9.694799423,,,600,1.863099992,-0.676499993,9.031899452
1.683E+18,12.03405811,0.1228,-0.691100001,0.893799961,,,1.446200013,-0.201199993,9.697299957,,,601,1.569000013,-0.892299995,10.59109992
1.683E+18,12.05405811,-0.1391,-0.820800006,2.032999992,,,1.384599924,-0.238199994,9.705399513,,,602,1.245499924,-1.059,11.73839951
1.683E+18,12.07405957,-0.277700007,-1.049499989,1.664399981,,,1.336799979,-0.274299979,9.71119976,,,603,1.059099972,-1.323799968,11.37559974
1.683E+18,12.09405811,-0.319999993,-0.913800001,0.064499997,,,1.33009994,-0.253100008,9.71269989,,,604,1.010099947,-1.166900009,9.777199887
1.683E+18,12.11405811,-0.317399979,-0.793099999,-1.062399983,,,1.347100019,-0.1875,9.711799622,,,605,1.029700041,-0.980599999,8.649399638
1.683E+18,12.13405811,0.021399999,-0.87379998,-1.306299925,,,1.361299992,-0.145999998,9.710599899,,,606,1.382699991,-1.019799978,8.404299974
1.683E+18,12.15405811,0.226899996,-0.798999965,-1.10860002,,,1.371500015,-0.152199998,9.708999634,,,607,1.598400012,-0.951199964,8.600399613
1.683E+18,12.17405811,0.1787,-0.748099983,-1.254099965,,,1.380499959,-0.17369999,9.707399368,,,608,1.559199959,-0.921799973,8.453299403
1.683E+18,12.1940564,-0.095100001,-0.658499956,-1.743099928,,,1.389599919,-0.174999997,9.70609951,,,609,1.294499919,-0.833499953,7.962999582
1.683E+18,12.2140564,-0.262899995,-0.557299972,-1.949099898,,,1.390699983,-0.158500001,9.706199646,,,610,1.127799988,-0.715799972,7.757099748
1.683E+18,12.23405811,-0.254700005,-0.407799989,-1.696799994,,,1.372599959,-0.151099995,9.708899498,,,611,1.117899954,-0.558899984,8.012099504
1.683E+18,12.25405811,-0.319999993,-0.429199994,-1.220799923,,,1.339900017,-0.159099996,9.713299751,,,612,1.019900024,-0.58829999,8.492499828
1.683E+18,12.27405811,-0.259299994,-0.421399981,-0.891499996,,,1.308599949,-0.166899994,9.717499733,,,613,1.049299955,-0.588299975,8.825999737
1.683E+18,12.29405811,-0.103599995,-0.159699991,-0.757999957,,,1.280399919,-0.163900003,9.721300125,,,614,1.176799923,-0.323599994,8.963300169
1.683E+18,12.31405811,0.157299995,0.078499995,-0.594699979,,,1.254699945,-0.156899989,9.724699974,,,615,1.411999941,-0.078399993,9.129999995
1.683E+18,12.33405811,0.446500003,0.225699991,-0.527999997,,,1.240100026,-0.157099992,9.726599693,,,616,1.686600029,0.068599999,9.198599696
1.683E+18,12.35405811,0.622399986,0.347000003,-0.489799976,,,1.230999947,-0.160699993,9.72769928,,,617,1.853399932,0.186300009,9.237899303
1.683E+18,12.37405811,0.773599982,0.320199996,-0.285600007,,,1.217100024,-0.163299993,9.729399681,,,618,1.990700006,0.156900004,9.443799675
1.683E+18,12.39405957,0.842700005,0.299600005,0.241399989,,,1.197000027,-0.162299991,9.731900215,,,619,2.039700031,0.137300014,9.973300204
1.683E+18,12.41405811,0.84829998,0.386099994,1.001999974,,,1.161999941,-0.160599992,9.736199379,,,620,2.010299921,0.225500003,10.73819935
1.683E+18,12.4340564,0.925300002,0.507799983,2.055599928,,,1.114400029,-0.164499998,9.741700172,,,621,2.039700031,0.343299985,11.7973001
1.683E+18,12.45405811,0.802399993,0.568099976,2.528199911,,,1.041100025,-0.175799996,9.749599457,,,622,1.843500018,0.39229998,12.27779937
1.683E+18,12.47405811,0.698799968,0.555199981,2.286499977,,,0.977999985,-0.18249999,9.755999565,,,623,1.676799953,0.372699991,12.04249954
1.683E+18,12.49405957,0.666599989,0.462099999,1.55979991,,,0.970999956,-0.167899996,9.756999969,,,624,1.637599945,0.294200003,11.31679988
1.683E+18,12.51405811,0.4903,0.19309999,1.727999926,,,0.990399957,-0.134199992,9.75549984,,,625,1.480699956,0.058899999,11.48349977
1.683E+18,12.53405957,0.357600003,0.372099996,2.098899841,,,0.975999951,-0.1171,9.757199287,,,626,1.333599955,0.254999995,11.85609913
1.683E+18,12.55405811,0.290499985,0.415600002,1.813499928,,,0.964599967,-0.121399999,9.758299828,,,627,1.255099952,0.294200003,11.57179976
1.683E+18,12.57405957,-0.049199998,0.422399998,0.931499958,,,0.970999956,-0.1184,9.757699966,,,628,0.921799958,0.303999998,10.68919992
1.683E+18,12.59405957,0.044,0.319000006,-0.252900004,,,0.995399952,-0.083700001,9.755599976,,,629,1.039399952,0.235300004,9.502699971
1.683E+18,12.6140564,0.262199998,-0.059299998,-0.896699965,,,1.032099962,-0.018999999,9.752099991,,,630,1.29429996,-0.078299997,8.855400026
1.683E+18,12.63405957,0.382499993,-0.397599995,-0.473099977,,,1.049099922,0.044499997,9.750199318,,,631,1.431599915,-0.353099998,9.277099341
1.683E+18,12.65405957,0.312900007,-0.736799955,0.399899989,,,1.050099969,0.079700001,9.749899864,,,632,1.362999976,-0.657099955,10.14979985
1.683E+18,12.67409229,0.0308,-1.138100028,0.870599985,,,1.047899961,0.0986,9.75,,,633,1.078699961,-1.039500028,10.62059999
1.683E+18,12.69405957,-0.198200002,-1.51759994,0.646899998,,,1.061200023,0.134900004,9.748099327,,,634,0.86300002,-1.382699937,10.39499933
1.683E+18,12.7140564,-0.344999999,-1.601799965,-0.33919999,,,1.090299964,0.199499995,9.743800163,,,635,0.745299965,-1.40229997,9.404600173
1.683E+18,12.73405811,-0.375699997,-1.416999936,-1.136999965,,,1.130800009,0.269600004,9.737400055,,,636,0.755100012,-1.147399932,8.60040009
1.683E+18,12.75405811,-0.419099987,-0.990999997,-1.484799981,,,1.164399981,0.314300001,9.732099533,,,637,0.745299995,-0.676699996,8.247299552
1.683E+18,12.77405957,-0.522399962,-0.706299961,-1.304899931,,,1.189299941,0.323899984,9.72879982,,,638,0.666899979,-0.382399976,8.423899889
1.683E+18,12.79405811,-0.74909997,-0.544099987,-1.136999965,,,1.200199962,0.318599999,9.72769928,,,639,0.451099992,-0.225499988,8.590699315
1.683E+18,12.81405811,-0.878199995,-0.335399985,-1.185599923,,,1.201799989,0.325599998,9.727199554,,,640,0.323599994,-0.009799987,8.541599631
1.683E+18,12.83405811,-0.878999949,-0.222899988,-1.321999907,,,1.202600002,0.350400001,9.726299286,,,641,0.323600054,0.127500013,8.404299378
1.683E+18,12.85405811,-0.725699961,-0.240499988,-1.457799911,,,1.206200004,0.377799988,9.72480011,,,642,0.480500042,0.1373,8.267000198
1.683E+18,12.87405811,-0.627099991,-0.354000002,-1.467000008,,,1.205699921,0.39319998,9.724199295,,,643,0.57859993,0.039199978,8.257199287
1.683E+18,12.8940564,-0.419399977,-0.389499992,-1.320299983,,,1.20389998,0.389499992,9.724599838,,,644,0.784500003,0,8.404299855
1.683E+18,12.91405811,-0.2685,-0.280299991,-1.330199957,,,1.209900022,0.368499994,9.724699974,,,645,0.941400021,0.088200003,8.394500017
1.683E+18,12.93405957,-0.077299997,-0.138400003,-1.103999972,,,1.224699974,0.334499985,9.724100113,,,646,1.147399977,0.196099982,8.620100141
1.683E+18,12.95405957,-0.172499999,-0.021299999,-0.761199951,,,1.231599927,0.295899987,9.724399567,,,647,1.059099928,0.274599988,8.963199615
1.683E+18,12.97405811,-0.259299994,0.1206,-0.615199983,,,1.230199933,0.261700004,9.725599289,,,648,0.97089994,0.382300004,9.110399306
1.683E+18,12.9940564,-0.342599988,0.30219999,-0.330899984,,,1.235000014,0.23709999,9.725599289,,,649,0.892400026,0.53929998,9.394699305
1.683E+18,13.01405811,-0.368799984,0.584699988,-0.1919,,,1.251399994,0.219300002,9.723899841,,,650,0.882600009,0.80399999,9.531999841
1.683E+18,13.03405811,-0.343400002,0.810499966,-0.0127,,,1.274999976,0.199399993,9.721300125,,,651,0.931599975,1.009899959,9.708600125
1.683E+18,13.05405811,-0.322400004,0.90989995,0.625099957,,,1.28339994,0.168699995,9.720799446,,,652,0.960999936,1.078599945,10.3458994
1.683E+18,13.0740564,-0.14819999,0.995099962,1.349099994,,,1.275900006,0.122699998,9.722499847,,,653,1.127700016,1.11779996,11.07159984
1.683E+18,13.09405811,-0.047899999,1.057600021,2.102200031,,,1.263899922,0.070099995,9.724599838,,,654,1.215999924,1.127700016,11.82679987
1.683E+18,13.11405811,-0.138099998,1.150900006,2.797199965,,,1.256099939,0.025799999,9.725799561,,,655,1.117999941,1.176700005,12.52299953
1.683E+18,13.1340564,-0.2148,0.891499996,3.504299879,,,1.264199972,0.0008,9.72480011,,,656,1.049399972,0.892299996,13.22909999
1.683E+18,13.15405811,-0.359999985,0.618399978,3.858399868,,,1.271999955,-0.0006,9.72369957,,,657,0.911999971,0.617799978,13.58209944
1.683E+18,13.17405811,-0.298500001,0.231299996,3.712199926,,,1.279099941,0.0138,9.722799301,,,658,0.98059994,0.245099996,13.43499923
1.683E+18,13.1940564,0.038699999,-0.166099995,2.942199945,,,1.314499974,0.0288,9.718099594,,,659,1.353199974,-0.137299996,12.66029954
1.683E+18,13.2140564,0.194699988,-0.243799999,1.625299931,,,1.36439991,0.037799999,9.711099625,,,660,1.559099898,-0.206,11.33639956
1.683E+18,13.23405811,0.2042,-0.236599997,0.015699999,,,1.423599958,0.040399998,9.702599525,,,661,1.627799958,-0.196199998,9.718299525
1.683E+18,13.25405811,0.541799963,-0.4208,-0.924299955,,,1.497900009,0.0383,9.691399574,,,662,2.039699972,-0.3825,8.767099619
1.683E+18,13.27405811,0.8028,-0.77609998,-0.319299996,,,1.540899992,0.040599998,9.684700012,,,663,2.343699992,-0.735499982,9.365400016
1.683E+18,13.29405811,0.539600015,-0.96239996,0.91959995,,,1.500100017,0.0308,9.691100121,,,664,2.039700031,-0.93159996,10.61070007
1.683E+18,13.31405957,0.154200003,-1.069299936,1.730399966,,,1.414799929,0.0004,9.703999519,,,665,1.568999931,-1.068899936,11.43439949
1.683E+18,13.33406104,-0.037099998,-1.193300009,0.987299979,,,1.360999942,-0.0128,9.711699486,,,666,1.323899943,-1.206100008,10.69899946
1.683E+18,13.35405811,-0.225400001,-1.14230001,-0.406199992,,,1.353199959,0.0243,9.712800026,,,667,1.127799958,-1.11800001,9.306600034
1.683E+18,13.37405811,-0.335299999,-0.981099963,-1.425499916,,,1.355199933,0.088699996,9.712100029,,,668,1.019899935,-0.892399967,8.286600113
1.683E+18,13.3940564,-0.212200001,-0.950299978,-1.719999909,,,1.349799991,0.126499996,9.712399483,,,669,1.13759999,-0.823799983,7.992399573
1.683E+18,13.41405811,-0.119199999,-1.045099974,-1.369099975,,,1.335199952,0.113399997,9.714599609,,,670,1.215999953,-0.931699976,8.345499635
1.683E+18,13.4340564,-0.226899996,-1.077499986,-1.264299989,,,1.315400004,0.077199996,9.717700005,,,671,1.088500008,-1.00029999,8.453400016
1.683E+18,13.45405811,-0.280000001,-0.897399962,-1.433300018,,,1.299899936,0.053999998,9.719900131,,,672,1.019899935,-0.843399964,8.286600113
1.683E+18,13.47405811,-0.315699995,-0.712199986,-1.5625,,,1.286599994,0.055099998,9.721699715,,,673,0.970899999,-0.657099988,8.159199715
1.683E+18,13.4940564,-0.184299991,-0.573599994,-1.43809998,,,1.263099909,0.063599996,9.724699974,,,674,1.078799918,-0.509999998,8.286599994
1.683E+18,13.51405811,-0.022699999,-0.434100002,-1.040400028,,,1.228899956,0.0614,9.729100227,,,675,1.206199957,-0.372700002,8.688700199
1.683E+18,13.53405811,0.204599991,-0.299299985,-0.574899971,,,1.187899947,0.044299997,9.73429966,,,676,1.392499939,-0.254999988,9.159399688
1.683E+18,13.55405811,0.476699978,-0.119499996,-0.422499985,,,1.15109992,0.021399999,9.738800049,,,677,1.627799898,-0.098099997,9.316300064
1.683E+18,13.57405811,0.534200013,0.025999999,-0.386500001,,,1.123000026,0.0033,9.742099762,,,678,1.657200038,0.029299999,9.355599761
1.683E+18,13.59405811,0.553200006,0.111899994,-0.516200006,,,1.103999972,-0.0041,9.744299889,,,679,1.657199979,0.107799994,9.228099883
1.683E+18,13.61405811,0.597000003,0.189899996,-0.889400005,,,1.099399924,-0.0036,9.744799614,,,680,1.696399927,0.186299996,8.855399609
1.683E+18,13.63405811,0.532199979,0.15079999,-0.879999995,,,1.095600009,-0.0037,9.745200157,,,681,1.627799988,0.14709999,8.865200162
1.683E+18,13.65405811,0.539200008,0.278099984,-0.205200002,,,1.078799963,-0.0133,9.747099876,,,682,1.617999971,0.264799984,9.541899875
1.683E+18,13.67405811,0.65959996,0.357899994,0.870000005,,,1.046700001,-0.034199998,9.750499725,,,683,1.706299961,0.323699996,10.62049973
1.683E+18,13.6940564,0.7597,0.438199997,1.943499923,,,0.995599985,-0.0557,9.755799294,,,684,1.755299985,0.382499997,11.69929922
1.683E+18,13.7140564,0.840200007,0.469999999,2.810299873,,,0.934699953,-0.067900002,9.761699677,,,685,1.77489996,0.402099997,12.57199955
1.683E+18,13.73405811,0.85619998,0.35799998,2.277400017,,,0.899100006,-0.0638,9.765099525,,,686,1.755299985,0.294199981,12.04249954
1.683E+18,13.75405811,0.936999977,0.036699999,1.26880002,,,0.916299999,-0.036699999,9.763599396,,,687,1.853299975,0,11.03239942
1.683E+18,13.77405811,1.036199927,-0.273999989,1.331200004,,,0.95449996,-0.0005,9.760000229,,,688,1.990699887,-0.274499989,11.09120023
1.683E+18,13.79405811,0.885899961,-0.221099988,1.791499972,,,0.947899997,0.0054,9.760700226,,,689,1.833799958,-0.215699988,11.5522002
1.683E+18,13.81405811,0.654599965,-0.584299982,1.690299988,,,0.914399981,-0.033399999,9.763799667,,,690,1.568999946,-0.617699981,11.45409966
1.683E+18,13.8340564,0.343499988,-0.75879997,0.787,,,0.901899993,-0.064899996,9.764800072,,,691,1.245399982,-0.823699966,10.55180007
1.683E+18,13.85405811,0.272399992,-0.2456,-0.448299974,,,0.904299974,-0.0583,9.7645998,,,692,1.176699966,-0.3039,9.316299826
1.683E+18,13.87405811,0.663800001,-0.095699996,-1.005499959,,,0.924799979,-0.041499998,9.762800217,,,693,1.58859998,-0.137199994,8.757300258
1.683E+18,13.89405811,0.896599948,-0.265100002,-0.171700001,,,0.927399993,-0.038799997,9.762599945,,,694,1.823999941,-0.3039,9.590899944
1.683E+18,13.91405811,0.931999981,-0.587199986,0.551599979,,,0.901799977,-0.050099999,9.764900208,,,695,1.833799958,-0.637299985,10.31650019
1.683E+18,13.9340564,0.693699956,-1.146000028,0.699000001,,,0.904699981,-0.060099997,9.7645998,,,696,1.598399937,-1.206100024,10.4635998
1.683E+18,13.95405811,0.34739998,-1.40049994,0.42749998,,,0.93719995,-0.060599998,9.761499405,,,697,1.28459993,-1.461099938,10.18899938
1.683E+18,13.9740564,0.128399998,-1.191100001,-0.068399996,,,0.979699969,-0.054199997,9.757399559,,,698,1.108099967,-1.245299999,9.688999563
1.683E+18,13.9940564,-0.1787,-0.87439996,-0.516200006,,,1.012199998,-0.0473,9.754099846,,,699,0.833499998,-0.92169996,9.23789984
1.683E+18,14.01405811,-0.452699989,-0.625499964,-0.836799979,,,1.041100025,-0.041200001,9.751099586,,,700,0.588400036,-0.666699965,8.914299607
1.683E+18,14.03405811,-0.823599994,-0.363499999,-1.177099943,,,1.068799973,-0.0385,9.748099327,,,701,0.245199978,-0.401999999,8.570999384
1.683E+18,14.05405811,-0.930799961,-0.141000003,-1.301399946,,,1.097499967,-0.045199998,9.74489975,,,702,0.166700006,-0.1862,8.443499804
1.683E+18,14.07405811,-0.960699975,-0.124299996,-1.191100001,,,1.117599964,-0.061899997,9.742499352,,,703,0.156899989,-0.186199993,8.55139935
1.683E+18,14.09405957,-1.036000013,-0.275700003,-1.092199922,,,1.124300003,-0.077199996,9.741600037,,,704,0.08829999,-0.352899998,8.649400115
1.683E+18,14.11405811,-0.743499994,-0.197899997,-1.16049993,,,1.125999928,-0.086399995,9.741399765,,,705,0.382499933,-0.284299992,8.580899835
1.683E+18,14.13405811,-0.391900003,-0.136299998,-1.023000002,,,1.127399921,-0.098899998,9.741099358,,,706,0.735499918,-0.235199995,8.718099356
1.683E+18,14.15405811,-0.184199989,-0.062699996,-0.836600006,,,1.12559998,-0.123499997,9.741000175,,,707,0.941399992,-0.186199993,8.90440017
1.683E+18,14.17405811,-0.034499999,0.058599997,-0.786199987,,,1.132799983,-0.156599998,9.739699364,,,708,1.098299984,-0.098000001,8.953499377
1.683E+18,14.1940564,-0.135600001,0.169799998,-0.754700005,,,1.145699978,-0.189400002,9.737599373,,,709,1.010099977,-0.019600004,8.982899368
1.683E+18,14.2140564,-0.294799984,0.217399999,-0.664399981,,,1.157799959,-0.217399999,9.735599518,,,710,0.862999976,0,9.071199536
1.683E+18,14.23405811,-0.492199987,0.239999995,-0.73119998,,,1.168799996,-0.239999995,9.733699799,,,711,0.676600009,0,9.002499819
1.683E+18,14.25405811,-0.610599995,0.258599997,-0.9648,,,1.179399967,-0.258599997,9.731999397,,,712,0.568799973,0,8.767199397
1.683E+18,14.27405811,-0.54549998,0.397299975,-1.031299949,,,1.192799926,-0.279599994,9.729800224,,,713,0.647299945,0.117699981,8.698500276
1.683E+18,14.29405811,-0.31189999,0.509299994,-0.4208,,,1.204299927,-0.313199997,9.72729969,,,714,0.892399937,0.196099997,9.30649969
1.683E+18,14.31405811,-0.121099994,0.649399996,0.531599998,,,1.199800014,-0.36499998,9.726099968,,,715,1.078700021,0.284400016,10.25769997
1.683E+18,14.33405811,0.073899999,0.870599985,1.386299968,,,1.190999985,-0.42929998,9.724499702,,,716,1.264899984,0.441300005,11.11079967
1.683E+18,14.35405811,0.180600002,1.051100016,2.094300032,,,1.182399988,-0.4921,9.722599983,,,717,1.362999991,0.559000015,11.81690001
1.683E+18,14.37405811,0.193199992,1.32190001,2.174799919,,,1.1796,-0.537400007,9.720499992,,,718,1.372799993,0.784500003,11.89529991
1.683E+18,14.39405811,0.181099996,1.389999986,1.815699935,,,1.201499939,-0.556499958,9.716799736,,,719,1.382599935,0.833500028,11.53249967
1.683E+18,14.41405811,0.221199989,1.07099998,1.595999956,,,1.24969995,-0.551299989,9.710999489,,,720,1.47089994,0.519699991,11.30699944
1.683E+18,14.4340564,0.180299997,0.636500001,1.954899907,,,1.300400019,-0.538399994,9.70510006,,,721,1.480700016,0.098100007,11.65999997
1.683E+18,14.45405811,0.289399981,0.450299978,2.480399847,,,1.338400006,-0.548399985,9.699299812,,,722,1.627799988,-0.098100007,12.17969966
1.683E+18,14.47405811,0.472199976,0.457699984,2.694499969,,,1.381099939,-0.585200012,9.691199303,,,723,1.853299916,-0.127500027,12.38569927
1.683E+18,14.4940564,0.250400007,0.629899979,2.094399929,,,1.416599989,-0.629899979,9.683300018,,,724,1.666999996,0,11.77769995
1.683E+18,14.51405811,0.1347,0.59709996,1.063699961,,,1.463699937,-0.655900002,9.674499512,,,725,1.598399937,-0.058800042,10.73819947
1.683E+18,14.53405811,0.090300001,0.17459999,0.806499958,,,1.51789999,-0.645299971,9.666899681,,,726,1.608199991,-0.470699981,10.47339964
1.683E+18,14.55405811,-0.0568,-0.288699985,1.805699944,,,1.527799964,-0.603599966,9.668000221,,,727,1.470999964,-0.89229995,11.47370017
1.683E+18,14.57405811,-0.179799989,-0.6699,2.943399906,,,1.484099984,-0.555899978,9.677700043,,,728,1.304299995,-1.225799978,12.62109995
1.683E+18,14.59405811,-0.361000001,-1.114300013,3.129999876,,,1.439799905,-0.503699958,9.687199593,,,729,1.078799903,-1.617999971,12.81719947
1.683E+18,14.61405811,-0.752200007,-1.486799955,1.488299966,,,1.438599944,-0.425399989,9.691199303,,,730,0.686399937,-1.912199944,11.17949927
1.683E+18,14.63405811,-0.93539995,-1.647199988,-0.849299967,,,1.504199982,-0.323899984,9.685099602,,,731,0.568800032,-1.971099973,8.835799634
1.683E+18,14.65405811,-0.806099951,-1.573699951,-2.588699818,,,1.620099902,-0.230599999,9.669099808,,,732,0.813999951,-1.804299951,7.08039999
1.683E+18,14.67405811,-0.712300003,-1.282699943,-3.209499836,,,1.72239995,-0.178399995,9.652500153,,,733,1.010099947,-1.461099938,6.443000317
1.683E+18,14.6940564,-0.529100001,-1.293599963,-2.428799868,,,1.754899979,-0.187099993,9.646499634,,,734,1.225799978,-1.480699956,7.217699766
1.683E+18,14.7140564,-0.654799998,-1.341399908,-1.307500005,,,1.71389997,-0.227599993,9.652999878,,,735,1.059099972,-1.568999901,8.345499873
1.683E+18,14.73405811,-0.742399991,-0.967099965,-0.975799978,,,1.644599915,-0.248899996,9.664499283,,,736,0.902199924,-1.215999961,8.688699305
1.683E+18,14.75405811,-0.58829999,-0.318100005,-1.287999988,,,1.59829998,-0.230999991,9.672699928,,,737,1.00999999,-0.549099997,8.384699941
1.683E+18,14.77405811,-0.623099983,-0.079499997,-1.578699946,,,1.564599991,-0.194999993,9.678999901,,,738,0.941500008,-0.27449999,8.100299954
1.683E+18,14.79405811,-0.610499978,-0.188699991,-1.440299988,,,1.512699962,-0.173999995,9.687699318,,,739,0.902199984,-0.362699986,8.24739933
1.683E+18,14.81405811,-0.230599999,-0.175399989,-1.048200011,,,1.44659996,-0.177499995,9.697699547,,,740,1.215999961,-0.352899984,8.649499536
1.683E+18,14.83405811,0.0638,-0.055599999,-0.529900014,,,1.367900014,-0.189400002,9.708899498,,,741,1.431700014,-0.245000001,9.178999484
1.683E+18,14.85405811,0.130699992,0.112899996,-0.334399998,,,1.291199923,-0.191399992,9.719299316,,,742,1.421899915,-0.078499995,9.384899318
1.683E+18,14.87405811,0.168799996,0.185499996,-0.391199976,,,1.233399987,-0.175699994,9.727099419,,,743,1.402199984,0.009800002,9.335899442
1.683E+18,14.8940564,0.333700001,0.1523,-0.456399977,,,1.18629992,-0.142499998,9.733499527,,,744,1.519999921,0.009800002,9.27709955
1.683E+18,14.91405811,0.581399977,0.155699998,-0.36499998,,,1.134599924,-0.106599994,9.740099907,,,745,1.715999901,0.049100004,9.375099927
1.683E+18,14.9340564,1.001399994,0.126800001,0.139300004,,,1.087299943,-0.0876,9.745699883,,,746,2.088699937,0.0392,9.884999886
1.683E+18,14.95405811,1.318199992,0.098699994,0.890799999,,,1.054899931,-0.0889,9.749300003,,,747,2.373099923,0.009799995,10.6401
1.683E+18,14.97405811,1.515299916,0.104800001,1.673299909,,,1.03429997,-0.104800001,9.751299858,,,748,2.549599886,0,11.42459977
1.683E+18,14.9940564,1.413599968,0.050099999,2.033699989,,,1.00849998,-0.1285,9.753699303,,,749,2.422099948,-0.078400001,11.78739929
1.683E+18,15.01405811,1.14109993,0.086300001,1.561999917,,,0.996599972,-0.145099998,9.754699707,,,750,2.137699902,-0.058799997,11.31669962
1.683E+18,15.03405811,0.824999988,0.164299995,0.848399997,,,1.01849997,-0.144699991,9.75249958,,,751,1.843499959,0.019600004,10.60089958
1.683E+18,15.05405811,0.463200003,0.1008,1.037699938,,,1.046899915,-0.140000001,9.749499321,,,752,1.510099918,-0.0392,10.78719926
1.683E+18,15.07405811,0.069299996,0.164299995,1.605799913,,,1.038699985,-0.154499993,9.750199318,,,753,1.10799998,0.009800002,11.35599923
1.683E+18,15.09405811,-0.020399999,0.417699993,2.123299837,,,1.010800004,-0.192099988,9.75249958,,,754,0.990400005,0.225600004,11.87579942
1.683E+18,15.11405957,-0.133599997,0.497799993,2.288199902,,,0.986699998,-0.223199993,9.754300117,,,755,0.853100002,0.274599999,12.04250002
1.683E+18,15.13405957,-0.287299991,0.766299963,1.118999958,,,0.96389997,-0.226899996,9.75649929,,,756,0.676599979,0.539399967,10.87549925
1.683E+18,15.15405811,0.282999992,0.577399969,-0.615399957,,,0.981999993,-0.204699993,9.755199432,,,757,1.264999986,0.372699976,9.139799476
1.683E+18,15.17405811,0.896599948,0.2773,-1.130499959,,,1.0352,-0.15959999,9.750499725,,,758,1.931799948,0.117700011,8.619999766
1.683E+18,15.1940564,1.08949995,-0.121199995,0.253100008,,,1.048300028,-0.123899996,9.749599457,,,759,2.137799978,-0.245099992,10.00269946
1.683E+18,15.2140564,0.857299984,-0.8301,2.200199842,,,1.005900025,-0.130799994,9.75399971,,,760,1.863200009,-0.960899994,11.95419955
1.683E+18,15.23405811,0.221599996,-1.534999967,2.68479991,,,0.945299983,-0.151600003,9.759799957,,,761,1.166899979,-1.68659997,12.44459987
1.683E+18,15.25405811,-0.022299999,-1.790699959,1.10650003,,,0.95389998,-0.131300002,9.759200096,,,762,0.93159998,-1.921999961,10.86570013
1.683E+18,15.27405811,-0.0112,-1.215099931,-0.425999999,,,1.031099916,-0.049899999,9.752099991,,,763,1.019899916,-1.26499993,9.326099992
1.683E+18,15.29405811,-0.108199999,-0.52669996,-1.280499935,,,1.108500004,0.0462,9.743599892,,,764,1.000300005,-0.48049996,8.463099957
1.683E+18,15.31405811,-0.429199994,-0.516099989,-1.058899999,,,1.154899955,0.104199998,9.737799644,,,765,0.725699961,-0.411899991,8.678899646
1.683E+18,15.33405811,-0.909199953,-0.773999989,-0.840599954,,,1.174000025,0.126800001,9.735199928,,,766,0.264800072,-0.647199988,8.894599974
1.683E+18,15.35405811,-1.096099973,-0.829099953,-1.092800021,,,1.19419992,0.152500004,9.73239994,,,767,0.098099947,-0.67659995,8.639599919
1.683E+18,15.37405811,-1.157099962,-0.700599968,-1.69599998,,,1.225700021,0.200399995,9.727600098,,,768,0.068600059,-0.500199974,8.031600118
1.683E+18,15.39405811,-1.020699978,-0.700800002,-2.151900053,,,1.256099939,0.249699995,9.722599983,,,769,0.235399961,-0.451100007,7.57069993
1.683E+18,15.41405811,-0.772599995,-0.687900007,-2.158799887,,,1.272799969,0.275999993,9.71969986,,,770,0.500199974,-0.411900014,7.560899973
1.683E+18,15.4340564,-0.472499996,-0.631599963,-1.816299915,,,1.266899943,0.278600007,9.720399857,,,771,0.794399947,-0.352999955,7.904099941
1.683E+18,15.45405811,-0.194399998,-0.482299984,-1.465299964,,,1.253499985,0.266499996,9.722499847,,,772,1.059099987,-0.215799987,8.257199883
1.683E+18,15.47405811,-0.046399999,-0.28489998,-1.192600012,,,1.242799997,0.245699987,9.724399567,,,773,1.196399998,-0.039199993,8.531799555
1.683E+18,15.4940564,-0.048699997,-0.141000003,-0.929399967,,,1.235299945,0.21949999,9.725999832,,,774,1.186599948,0.078499988,8.796599865
1.683E+18,15.51405811,-0.189699993,-0.0098,-0.852199972,,,1.229300022,0.196099997,9.72729969,,,775,1.03960003,0.186299996,8.875099719
1.683E+18,15.53405811,-0.308899999,0.154799998,-0.911199987,,,1.230700016,0.178499997,9.727399826,,,776,0.921800017,0.333299994,8.816199839
1.683E+18,15.55405811,-0.441499978,0.396099985,-0.959899962,,,1.235899925,0.162799999,9.726999283,,,777,0.794399947,0.558899984,8.767099321
1.683E+18,15.5740564,-0.584299982,0.509800017,-0.939799964,,,1.241400003,0.147200003,9.726599693,,,778,0.657100022,0.65700002,8.786799729
1.683E+18,15.59405811,-0.556499958,0.52609998,-0.556100011,,,1.252799988,0.130799994,9.725399971,,,779,0.69630003,0.656899974,9.16929996
1.683E+18,15.61405811,-0.388399988,0.549799979,0.081999995,,,1.261199951,0.107099995,9.724599838,,,780,0.872799963,0.656899974,9.806599833
1.683E+18,15.63405811,-0.122199997,0.51789999,1.003299952,,,1.259799957,0.0704,9.725099564,,,781,1.13759996,0.58829999,10.72839952
1.683E+18,15.65405811,0.0107,0.592299998,1.913100004,,,1.244499922,0.0254,9.72729969,,,782,1.255199921,0.617699997,11.64039969
1.683E+18,15.67405811,0.0133,0.677999973,2.575899839,,,1.212499976,-0.0209,9.7312994,,,783,1.225799976,0.657099973,12.30719924
1.683E+18,15.6940564,-0.060799997,0.683699965,2.494699955,,,1.188599944,-0.0561,9.734099388,,,784,1.127799947,0.627599966,12.22879934
1.683E+18,15.7140564,0.15519999,0.333099991,2.525300026,,,1.197999954,-0.068399996,9.732899666,,,785,1.353199944,0.264699996,12.25819969
1.683E+18,15.73405811,0.20189999,0.212200001,2.928900003,,,1.210199952,-0.065099999,9.731399536,,,786,1.412099943,0.147100002,12.66029954
1.683E+18,15.7540564,0.465199977,0.078099996,3.342299938,,,1.22149992,-0.078099996,9.729899406,,,787,1.686699897,0,13.07219934
1.683E+18,15.7740564,0.389599979,0.059599999,2.630100012,,,1.248099923,-0.1184,9.726099968,,,788,1.637699902,-0.058800001,12.35619998
1.683E+18,15.7940564,0.323799998,0.015699999,1.245399952,,,1.30400002,-0.152899995,9.718299866,,,789,1.627800018,-0.137199996,10.96369982
1.683E+18,15.81405811,0.613099992,-0.206499994,0.48209998,,,1.387300014,-0.14639999,9.706899643,,,790,2.000400007,-0.352899984,10.18899962
1.683E+18,15.83405811,0.671700001,-0.592999995,1.144500017,,,1.426800013,-0.112999998,9.701600075,,,791,2.098500013,-0.705999993,10.84610009
1.683E+18,15.85405811,0.509899974,-0.826699972,1.963099957,,,1.392499924,-0.094999999,9.706799507,,,792,1.902399898,-0.921699971,11.66989946
1.683E+18,15.87405811,0.290899992,-1.094699979,2.290099859,,,1.346699953,-0.101599999,9.713199615,,,793,1.637599945,-1.196299978,12.00329947
1.683E+18,15.8940564,0.078699999,-1.0273,1.346699953,,,1.333400011,-0.090599999,9.715099335,,,794,1.41210001,-1.117899999,11.06179929
1.683E+18,15.91405811,-0.260499984,-0.779699981,-0.112599999,,,1.348999977,-0.034199998,9.713299751,,,795,1.088499993,-0.813899979,9.600699753
1.683E+18,15.9340564,-0.489199996,-0.690099955,-1.324000001,,,1.381600022,0.0429,9.70870018,,,796,0.892400026,-0.647199955,8.384700179
1.683E+18,15.95405811,-0.643599987,-1.128000021,-2.022799969,,,1.42809999,0.108099997,9.701399803,,,797,0.784500003,-1.019900024,7.678599834
1.683E+18,15.97405811,-0.672499955,-1.341199994,-2.438099861,,,1.466799974,0.154599994,9.694999695,,,798,0.79430002,-1.1866,7.256899834
1.683E+18,15.9940564,-0.566199958,-1.07099998,-2.406599998,,,1.478199959,0.178599998,9.692899704,,,799,0.912,-0.892399982,7.286299706
1.683E+18,16.01405811,-0.514199972,-0.975699961,-1.939399958,,,1.455599904,0.171599999,9.696399689,,,800,0.941399932,-0.804099962,7.756999731
1.683E+18,16.03405811,-0.397199988,-0.706299961,-1.513999939,,,1.417099953,0.14729999,9.702599525,,,801,1.019899964,-0.558999971,8.188599586
1.683E+18,16.05405811,-0.17719999,-0.33039999,-1.187099934,,,1.373600006,0.124499999,9.70909977,,,802,1.196400017,-0.205899991,8.521999836
1.683E+18,16.0740564,0.055199999,-0.126100004,-0.870199978,,,1.327399969,0.1065,9.715799332,,,803,1.382599968,-0.019600004,8.845599353
1.683E+18,16.09405811,0.201799989,-0.046299998,-0.602299988,,,1.278900027,0.085499994,9.722499847,,,804,1.480700016,0.039199997,9.120199859
1.683E+18,16.11405811,0.296999991,0.037,-0.373099983,,,1.23269999,0.060999997,9.728599548,,,805,1.529699981,0.097999997,9.355499566
1.683E+18,16.13405811,0.310399979,0.147499993,-0.367499977,,,1.199699998,0.038699999,9.732899666,,,806,1.510099977,0.186199993,9.365399688
1.683E+18,16.15405957,0.251699984,0.225499988,-0.477799982,,,1.179999948,0.029399998,9.735300064,,,807,1.431699932,0.254899986,9.257500082
1.683E+18,16.17405957,0.323899984,0.270899981,-0.498999983,,,1.166599989,0.033,9.736899376,,,808,1.490499973,0.303899981,9.237899393
1.683E+18,16.1940564,0.407399982,0.163900003,-0.286199987,,,1.141899943,0.041899998,9.7397995,,,809,1.549299926,0.205800001,9.453599513
1.683E+18,16.2140564,0.553799987,0.0087,0.130999997,,,1.103500009,0.049999997,9.744199753,,,810,1.657299995,0.058699997,9.87519975
1.683E+18,16.23405811,0.740099967,-0.065899998,0.802299976,,,1.054399967,0.0561,9.749599457,,,811,1.794499934,-0.009799998,10.55189943
1.683E+18,16.25405811,0.905399978,-0.182300001,1.640599966,,,1.006799936,0.0548,9.754599571,,,812,1.912199914,-0.127500001,11.39519954
1.683E+18,16.27405811,0.911199987,-0.215599999,2.126299858,,,0.961799979,0.039099999,9.759200096,,,813,1.872999966,-0.1765,11.88549995
1.683E+18,16.2940564,0.878099978,-0.194699988,2.014899969,,,0.926199973,0.018199999,9.762700081,,,814,1.804299951,-0.176499989,11.77760005
1.683E+18,16.31405811,0.907299995,-0.33829999,1.955199957,,,0.916700006,0.0049,9.763699532,,,815,1.824000001,-0.33339999,11.71889949
1.683E+18,16.33405811,0.711499989,-0.471299976,2.415199995,,,0.906499982,-0.009099999,9.7645998,,,816,1.617999971,-0.480399976,12.1797998
1.683E+18,16.35405811,0.384000003,-0.504599988,2.256000042,,,0.880899966,-0.044499997,9.766799927,,,817,1.264899969,-0.549099986,12.02279997
1.683E+18,16.37405811,0.465599984,-0.616999984,2.07949996,,,0.877799988,-0.088999994,9.766799927,,,818,1.343399972,-0.705999978,11.84629989
1.683E+18,16.3940564,0.202999994,-0.302699983,1.539399981,,,0.86589998,-0.118899994,9.76760006,,,819,1.068899974,-0.421599977,11.30700004
1.683E+18,16.41405957,0.225199997,-0.037699997,0.087200001,,,0.853399992,-0.138699993,9.768400192,,,820,1.078599989,-0.176399991,9.855600193
1.683E+18,16.43405811,0.385800004,0.0129,-1.342000008,,,0.879199982,-0.150199994,9.765999794,,,821,1.264999986,-0.137299995,8.423999786
1.683E+18,16.45405811,0.471299976,-0.0059,-1.798099995,,,0.930899978,-0.150899991,9.761099815,,,822,1.402199954,-0.156799991,7.962999821
1.683E+18,16.47405811,0.501199961,-0.061699998,-0.922299981,,,0.959899962,-0.163800001,9.758099556,,,823,1.461099923,-0.225499999,8.835799575
1.683E+18,16.4940564,0.103199996,-0.3028,0.479399979,,,0.94599998,-0.207099989,9.758699417,,,824,1.049199976,-0.509899989,10.2380994
1.683E+18,16.51405811,-0.244399995,-0.626299977,1.389299989,,,0.911199987,-0.256199986,9.760799408,,,825,0.666799992,-0.882499963,11.1500994
1.683E+18,16.53405811,-0.482499987,-0.611299992,1.199699998,,,0.87469995,-0.261399984,9.763999939,,,826,0.392199963,-0.872699976,10.96369994
1.683E+18,16.55405811,-0.456499994,-0.361699998,0.176200002,,,0.848800004,-0.206999987,9.76760006,,,827,0.39230001,-0.568699986,9.943800062
1.683E+18,16.5740564,-0.442099988,-0.12529999,-0.942499995,,,0.853999972,-0.129600003,9.768499374,,,828,0.411899984,-0.254899994,8.825999379
1.683E+18,16.59405811,-0.270899981,-0.275099993,-1.449899912,,,0.888699949,-0.077799998,9.765899658,,,829,0.617799968,-0.352899991,8.315999746
1.683E+18,16.61405811,-0.182300001,-0.466499984,-1.572899938,,,0.937399983,-0.062899999,9.761499405,,,830,0.755099982,-0.529399984,8.188599467
1.683E+18,16.6340564,-0.216899991,-0.717899978,-1.549899936,,,0.972000003,-0.066500001,9.758099556,,,831,0.755100012,-0.784399979,8.20819962
1.683E+18,16.65405811,-0.236999989,-0.742199957,-1.469399929,,,0.9921,-0.071599998,9.755999565,,,832,0.755100012,-0.813799955,8.286599636
1.683E+18,16.67405811,-0.177900001,-0.574400008,-1.322299957,,,0.991799951,-0.072799996,9.755999565,,,833,0.813899949,-0.647200003,8.433699608
1.683E+18,16.6940564,-0.157999992,-0.400399983,-1.079200029,,,0.971899986,-0.070299998,9.758099556,,,834,0.813899994,-0.470699981,8.678899527
1.683E+18,16.7140564,-0.114,-0.136399999,-0.944299996,,,0.947599947,-0.069499999,9.760499954,,,835,0.833599947,-0.205899999,8.816199958
1.683E+18,16.73405811,-0.123799995,0.036399998,-1.023599982,,,0.937699974,-0.075599998,9.761400223,,,836,0.813899979,-0.0392,8.737800241
1.683E+18,16.75405957,-0.055,0.116899997,-1.042099953,,,0.947399974,-0.0973,9.760199547,,,837,0.892399974,0.019599997,8.718099594
1.683E+18,16.7740564,0.02,0.232099995,-1.000200033,,,0.970399976,-0.134000003,9.757499695,,,838,0.990399975,0.098099992,8.757299662
1.683E+18,16.7940564,-0.073899999,0.335700005,-0.977299988,,,0.995700002,-0.178800002,9.754300117,,,839,0.921800002,0.156900004,8.777000129
1.683E+18,16.81405811,-0.262600005,0.369199991,-0.964399993,,,1.017699957,-0.22209999,9.751099586,,,840,0.755099952,0.147100002,8.786699593
1.683E+18,16.83405811,-0.467500001,0.608599961,-0.922399998,,,1.036299944,-0.255600005,9.748299599,,,841,0.568799943,0.352999955,8.825899601
1.683E+18,16.85405811,-0.640599966,0.788499951,-0.664999962,,,1.05250001,-0.278600007,9.745999336,,,842,0.411900043,0.509899944,9.080999374
1.683E+18,16.87405811,-0.755899966,0.932399988,-0.045599997,,,1.059899926,-0.304800004,9.744400024,,,843,0.30399996,0.627599984,9.698800027
1.683E+18,16.8940564,-0.747299969,0.952099979,0.995199978,,,1.061100006,-0.344099998,9.742899895,,,844,0.313800037,0.60799998,10.73809987
1.683E+18,16.91405811,-0.718100011,1.134599924,1.819700003,,,1.051499963,-0.389299989,9.742300034,,,845,0.333399951,0.745299935,11.56200004
1.683E+18,16.9340564,-0.701399982,1.295499921,2.22239995,,,1.04460001,-0.422699988,9.741600037,,,846,0.343200028,0.872799933,11.96399999
1.683E+18,16.9540564,-0.778199971,0.996599972,2.135200024,,,1.05279994,-0.4278,9.740499496,,,847,0.274599969,0.568799973,11.87569952
1.683E+18,16.9740564,-0.602499962,0.423199981,1.98999989,,,1.082999945,-0.39379999,9.738699913,,,848,0.480499983,0.029399991,11.7286998
1.683E+18,16.9940564,-0.108999997,0.022,2.355099916,,,1.119099975,-0.345599979,9.736399651,,,849,1.010099977,-0.323599979,12.09149957
1.683E+18,17.0140564,0.231999993,-0.198200002,3.013000011,,,1.130999923,-0.33129999,9.735499382,,,850,1.362999916,-0.529499993,12.74849939
1.683E+18,17.0340564,0.3926,-0.106699996,3.200099945,,,1.127300024,-0.363899976,9.734799385,,,851,1.519900024,-0.470599972,12.93489933
1.683E+18,17.0540564,0.557599962,0.1083,2.133299828,,,1.129099965,-0.412299991,9.732600212,,,852,1.686699927,-0.30399999,11.86590004
1.683E+18,17.0740564,0.75,0.201199993,0.529500008,,,1.162099957,-0.426799983,9.728099823,,,853,1.912099957,-0.225599989,10.25759983
1.683E+18,17.0940564,0.861199975,-0.1664,0.2579,,,1.198099971,-0.392499983,9.725199699,,,854,2.059299946,-0.558899984,9.983099699
1.683E+18,17.1140564,0.839599967,-0.540699959,1.303499937,,,1.180499911,-0.351599991,9.728899956,,,855,2.020099878,-0.89229995,11.03239989
1.683E+18,17.1340564,0.730499983,-0.868699968,2.678099871,,,1.112999916,-0.347299993,9.736999512,,,856,1.843499899,-1.215999961,12.41509938
1.683E+18,17.1540564,0.216699988,-1.10650003,2.915299892,,,1.038399935,-0.354599983,9.744999886,,,857,1.255099922,-1.461100012,12.66029978
1.683E+18,17.1740564,-0.052499998,-1.27609992,1.146299958,,,1.013499975,-0.322299987,9.748799324,,,858,0.960999977,-1.598399907,10.89509928
1.683E+18,17.1940564,-0.108099997,-1.164899945,-0.842099965,,,1.059299946,-0.227499992,9.746600151,,,859,0.951199949,-1.392399937,8.904500186
1.683E+18,17.2140564,-0.110199995,-0.925899982,-2.277699947,,,1.130100012,-0.113499999,9.740599632,,,860,1.019900016,-1.039399981,7.462899685
1.683E+18,17.2340564,-0.0449,-0.988799989,-2.682799816,,,1.192299962,-0.040799998,9.733799934,,,861,1.147399962,-1.029599987,7.051000118
1.683E+18,17.25405811,-0.150399998,-1.193199992,-2.022399902,,,1.219299912,-0.032600001,9.730400085,,,862,1.068899915,-1.225799993,7.708000183
1.683E+18,17.27405811,-0.297399998,-1.178900003,-1.513599992,,,1.209399939,-0.056699999,9.731599808,,,863,0.911999941,-1.235600002,8.217999816
1.683E+18,17.2940564,-0.483099997,-1.012799978,-1.476799965,,,1.189199924,-0.065899998,9.734000206,,,864,0.706099927,-1.078699976,8.257200241
1.683E+18,17.31405811,-0.601700008,-0.771799982,-1.567399979,,,1.170499921,-0.051799998,9.736299515,,,865,0.568799913,-0.823599979,8.168899536
1.683E+18,17.3340564,-0.630699992,-0.799699962,-1.344299912,,,1.15049994,-0.033799998,9.738800049,,,866,0.519799948,-0.833499961,8.394500136
1.683E+18,17.35405811,-0.544200003,-0.734699965,-0.994499981,,,1.122799993,-0.030099999,9.742099762,,,867,0.578599989,-0.764799964,8.747599781
1.683E+18,17.37405811,-0.452399999,-0.626800001,-0.566699982,,,1.089900017,-0.039999999,9.745800018,,,868,0.637500018,-0.6668,9.179100037
1.683E+18,17.39405811,-0.426899999,-0.523999989,-0.266599983,,,1.054499984,-0.054499999,9.749599457,,,869,0.627599984,-0.578499988,9.482999474
1.683E+18,17.41405811,-0.33769998,-0.466099977,-0.289299995,,,1.024099946,-0.0634,9.752799988,,,870,0.686399966,-0.529499978,9.463499993
1.683E+18,17.43405811,-0.0823,-0.331699997,-0.771999955,,,1.004099965,-0.0605,9.754899979,,,871,0.921799965,-0.392199997,8.982900023
