time,seconds_elapsed,z,y,x
1683013827298918400,0.04391845703125,-0.02329999953508377,0.013799999840557575,-0.010599999688565731
1683013827318918400,0.06391845703125,-0.02329999953508377,0.013799999840557575,-0.010599999688565731
1683013827338923000,0.083923095703125,-0.02329999953508377,0.013799999840557575,-0.010599999688565731
1683013827358918400,0.10391845703125,0.01850000023841858,-0.009999999776482582,0.07459999620914459
1683013827378918400,0.12391845703125,0.01899999938905239,0.03689999878406525,0.13300000131130219
1683013827398918400,0.14391845703125,-0.0340999998152256,0.014599999412894249,0.11169999837875366
1683013827418918400,0.16391845703125,-0.07919999957084656,0.0632999986410141,0.1362999975681305
1683013827438918400,0.18391845703125,0.05169999971985817,0.22349999845027924,0.10249999910593033
1683013827458918400,0.20391845703125,0.1054999977350235,0.08559999614953995,0.2102999985218048
1683013827478916900,0.223916748046875,0.13109999895095825,0.0892999991774559,0.14309999346733093
1683013827498918400,0.24391845703125,0.019199999049305916,0.25459998846054077,0.07109999656677246
1683013827518918400,0.26391845703125,0.09149999916553497,0.3725999891757965,0.14139999449253082
1683013827538918400,0.28391845703125,-0.039000000804662704,0.28919997811317444,0.18079999089241028
1683013827558918400,0.30391845703125,0.13009999692440033,0.12129999697208405,0.39100000262260437
1683013827578918400,0.32391845703125,0.26249998807907104,0.006799999624490738,0.15330000221729279
1683013827598918400,0.34391845703125,0.04569999873638153,0.0616999976336956,-0.13599999248981476
1683013827618918400,0.36391845703125,0.22529999911785126,-0.05810000002384186,-0.00419999985024333
1683013827638918400,0.38391845703125,0.24229998886585236,0.0616999976336956,0.10610000044107437
1683013827658918400,0.40391845703125,0.4220999777317047,-0.24059998989105225,0.012000000104308128
1683013827678918400,0.42391845703125,0.27639999985694885,-0.19089999794960022,-0.08379999548196793
1683013827698918400,0.44391845703125,0.06449999660253525,-0.0892999991774559,-0.06960000097751617
1683013827718918400,0.46391845703125,0.13189999759197235,-0.032999999821186066,-0.11309999972581863
1683013827738918400,0.48391845703125,0.22209998965263367,-0.06549999862909317,0.3879999816417694
1683013827758918400,0.50391845703125,0.21119999885559082,-0.10719999670982361,0.5331999659538269
1683013827778918400,0.52391845703125,0.055399999022483826,-0.013499999418854713,0.3547999858856201
1683013827798918400,0.54391845703125,-0.9138999581336975,0.27410000562667847,0.3398999869823456
1683013827818918400,0.56391845703125,-1.2278000116348267,0.42309999465942383,-0.4203999936580658
1683013827838918400,0.58391845703125,-0.6474999785423279,0.26429998874664307,-0.2621999979019165
1683013827858916900,0.603916748046875,-0.4777999818325043,0.4204999804496765,-0.2377999871969223
1683013827878916900,0.623916748046875,-0.035099998116493225,-0.22839999198913574,-0.4050999879837036
1683013827898916900,0.643916748046875,0.3441999852657318,-0.8014999628067017,0.3564999997615814
1683013827918916900,0.663916748046875,0.6042999625205994,-0.8102999925613403,0.6093999743461609
1683013827938916900,0.683916748046875,0.5656999945640564,-0.5672999620437622,0.6243999600410461
1683013827958916900,0.703916748046875,0.42559999227523804,-0.1030999943614006,0.27959999442100525
1683013827978916900,0.723916748046875,-0.2166999876499176,-0.21379999816417694,0.37700000405311584
1683013827998916900,0.743916748046875,-0.38169997930526733,-0.03579999879002571,-0.06289999932050705
1683013828018916900,0.763916748046875,-0.7285999655723572,-0.1824999898672104,0.13040000200271606
1683013828038916900,0.783916748046875,-1.4786999225616455,-0.0139999995008111,0.08749999850988388
1683013828058916900,0.803916748046875,-0.41339999437332153,-0.29350000619888306,0.19829998910427094
1683013828078923000,0.823923095703125,-0.16599999368190765,0.4074999988079071,-0.10179999470710754
1683013828098916900,0.843916748046875,-0.2728999853134155,-0.17260000109672546,0.6240999698638916
1683013828118916900,0.863916748046875,-0.19489999115467072,-0.03529999777674675,0.49949997663497925
1683013828138916900,0.883916748046875,-0.32580000162124634,-0.006199999712407589,0.39649999141693115
1683013828158916900,0.903916748046875,-0.33249998092651367,-0.11079999804496765,0.1793999969959259
1683013828178916900,0.923916748046875,-0.19550000131130219,-0.14469999074935913,0.2092999964952469
1683013828198916900,0.943916748046875,-0.05700000002980232,-0.08079999685287476,0.12139999866485596
1683013828218916900,0.963916748046875,0.20099999010562897,-0.14069999754428864,-0.06350000202655792
1683013828238916900,0.983916748046875,0.35040000081062317,-0.08819999545812607,-0.2766000032424927
1683013828258916900,1.003916748046875,0.3635999858379364,-0.06799999624490738,-0.22669999301433563
1683013828278916900,1.023916748046875,0.4781000018119812,0.015599999576807022,0.025699999183416367
1683013828298916900,1.043916748046875,0.2838999927043915,-0.08529999852180481,-0.03909999877214432
1683013828318916900,1.063916748046875,0.3418000042438507,0.0843999981880188,0.022499999031424522
1683013828338916900,1.083916748046875,0.20819999277591705,0.25380000472068787,0.06520000100135803
1683013828358916900,1.103916748046875,0.3385999798774719,0.149399995803833,0.0819999948143959
1683013828378916900,1.123916748046875,0.6876999735832214,0.14299999177455902,0.34880000352859497
1683013828398916900,1.143916748046875,0.4810999929904938,0.23959998786449432,-0.04699999839067459
1683013828418916900,1.163916748046875,0.29339998960494995,0.19209998846054077,-0.05260000005364418
1683013828438916900,1.183916748046875,0.17430000007152557,0.1096000000834465,0.14509999752044678
1683013828458918400,1.20391845703125,0.24300000071525574,0.10769999772310257,-0.15330000221729279
1683013828478918400,1.22391845703125,0.14989998936653137,0.02719999849796295,-0.21249999105930328
1683013828498918400,1.24391845703125,0.2012999951839447,-0.094200000166893,0.08879999816417694
1683013828518918400,1.26391845703125,0.17059999704360962,-0.15760000050067902,0.258899986743927
1683013828538918400,1.28391845703125,0.10329999774694443,-0.12539999186992645,0.45499998331069946
1683013828558918400,1.30391845703125,0.053599998354911804,-0.09789999574422836,0.41429999470710754
1683013828578918400,1.32391845703125,-0.02029999904334545,-0.030299998819828033,0.21079999208450317
1683013828598918400,1.34391845703125,-0.11159999668598175,-0.07589999586343765,0.39089998602867126
1683013828618918400,1.36391845703125,-0.21769998967647552,-0.06239999830722809,0.5407999753952026
1683013828638918400,1.38391845703125,-0.2667999863624573,0.020999999716877937,0.3967999815940857
1683013828658918400,1.40391845703125,-0.29089999198913574,0.032600000500679016,0.4396999776363373
1683013828678918400,1.42391845703125,-0.39559999108314514,0.021399999037384987,0.1889999955892563
1683013828698918400,1.44391845703125,-0.39890000224113464,0.019500000402331352,0.09640000015497208
1683013828718918400,1.46391845703125,-0.33409997820854187,0.04439999908208847,0.17059999704360962
1683013828738918400,1.48391845703125,-0.05609999969601631,0.09510000050067902,0.0982000008225441
1683013828758918400,1.50391845703125,0.10049999505281448,0.19629999995231628,0.1817999929189682
1683013828778918400,1.52391845703125,0.2158999890089035,0.014399999752640724,0.43879997730255127
1683013828798918400,1.54391845703125,0.07069999724626541,-0.07939999550580978,0.5167999863624573
1683013828818918400,1.56391845703125,0.1873999983072281,0.07090000063180923,0.2442999929189682
1683013828838918400,1.58391845703125,0.16859999299049377,0.08989999443292618,0.09099999815225601
1683013828858918400,1.60391845703125,0.147599995136261,-0.054499998688697815,0.14409999549388885
1683013828878918400,1.62391845703125,0.03779999911785126,0.00839999970048666,0.01889999955892563
1683013828898918400,1.64391845703125,0.020999999716877937,0.10329999774694443,0.07119999825954437
1683013828918918400,1.66391845703125,-0.29919999837875366,-0.024299999698996544,0.23919999599456787
1683013828938918400,1.68391845703125,-0.20559999346733093,0.11879999935626984,0.23819999396800995
1683013828958918400,1.70391845703125,-0.010400000028312206,0.04809999838471413,0.19919998943805695
1683013828978918400,1.72391845703125,0.11239999532699585,0.05209999904036522,0.19039998948574066
1683013828998918400,1.74391845703125,0.1664000004529953,-0.02070000022649765,0.07369999587535858
1683013829018918400,1.76391845703125,0.09699999541044235,0.1419999897480011,0.0738999992609024
1683013829038918400,1.78391845703125,-0.05639999732375145,0.07400000095367432,0.25949999690055847
1683013829058918400,1.80391845703125,-0.11969999969005585,0.18079999089241028,0.3172999918460846
1683013829078928000,1.823927978515625,-0.22609999775886536,0.18199999630451202,0.20739999413490295
1683013829098918400,1.84391845703125,-0.31200000643730164,0.08879999816417694,0.23469999432563782
1683013829118918400,1.86391845703125,-0.1867000013589859,0.09919999539852142,0.06509999930858612
1683013829138918400,1.88391845703125,0.01759999990463257,0.045399997383356094,0.10119999945163727
1683013829158918400,1.90391845703125,0.17069999873638153,-0.05269999802112579,0.23739999532699585
1683013829178918400,1.92391845703125,0.09950000047683716,-0.08129999786615372,0.17899999022483826
1683013829198918400,1.94391845703125,-0.2638999819755554,-0.06599999964237213,0.2969000041484833
1683013829218918400,1.96391845703125,-0.1070999950170517,0.27480000257492065,-0.0925000011920929
1683013829238918400,1.98391845703125,-0.22779999673366547,-0.09539999812841415,0.02850000001490116
1683013829258918400,2.00391845703125,-0.18069998919963837,0.0038999998942017555,0.2393999993801117
1683013829278918400,2.02391845703125,0.05309999734163284,0.0478999987244606,0.21480000019073486
1683013829298918400,2.04391845703125,0.21619999408721924,-0.01640000008046627,0.22169999778270721
1683013829318918400,2.06391845703125,0.32690000534057617,-0.04149999842047691,0.12309999763965607
1683013829338918400,2.08391845703125,0.2953000068664551,0.040300000458955765,0.01549999974668026
1683013829358918400,2.10391845703125,0.14980000257492065,0.02149999886751175,-0.004299999680370092
1683013829378918400,2.12391845703125,-0.002699999837204814,0.08060000091791153,0.014499999582767487
1683013829398918400,2.14391845703125,-0.11919999867677689,0.05119999870657921,0.14010000228881836
1683013829418918400,2.16391845703125,-0.08309999853372574,-0.025699999183416367,0.2549999952316284
1683013829438918400,2.18391845703125,-0.05700000002980232,-0.06870000064373016,0.1444000005722046
1683013829458918400,2.20391845703125,0.059699997305870056,-0.1039000004529953,0.044999998062849045
1683013829478918400,2.22391845703125,0.16939999163150787,-0.12299999594688416,0.06430000066757202
1683013829498918400,2.24391845703125,0.250900000333786,-0.1476999968290329,0.09309999644756317
1683013829518918400,2.26391845703125,0.25220000743865967,-0.07189999520778656,0.13199999928474426
1683013829538918400,2.28391845703125,0.16609999537467957,-0.06499999761581421,0.20999999344348907
1683013829558918400,2.30391845703125,-0.001999999862164259,-0.18719999492168427,0.19049999117851257
1683013829578918400,2.32391845703125,-0.05769999697804451,-0.13419999182224274,0.14249999821186066
1683013829598918400,2.34391845703125,-0.09640000015497208,-0.1348000019788742,0.16339999437332153
1683013829618918400,2.36391845703125,-0.06469999998807907,-0.12189999967813492,0.16449999809265137
1683013829638918400,2.38391845703125,0.01860000006854534,-0.05130000039935112,0.125900000333786
1683013829658918400,2.40391845703125,0.01209999993443489,-0.01759999990463257,0.2345999926328659
1683013829678918400,2.42391845703125,0.023899998515844345,-0.043800000101327896,0.23579999804496765
1683013829698918400,2.44391845703125,0.08410000056028366,-0.07490000128746033,0.19789999723434448
1683013829718918400,2.46391845703125,0.027300000190734863,-0.11999999731779099,0.12069999426603317
1683013829738918400,2.48391845703125,-0.08349999785423279,-0.11869999766349792,0.032899998128414154
1683013829758918400,2.50391845703125,-0.07000000029802322,-0.0729999989271164,0.1793999969959259
1683013829778918400,2.52391845703125,-0.026099998503923416,-0.0004999999655410647,0.2078000009059906
1683013829798918400,2.54391845703125,0.07180000096559525,0.09829999506473541,0.15869998931884766
1683013829818918400,2.56391845703125,0.14169999957084656,0.11819999665021896,0.2565000057220459
1683013829838918400,2.58391845703125,0.08839999884366989,0.06939999759197235,0.2653000056743622
1683013829858918400,2.60391845703125,0.07779999822378159,0.06799999624490738,0.13619999587535858
1683013829878918400,2.62391845703125,0.07180000096559525,0.08320000022649765,0.11599999666213989
1683013829898918400,2.64391845703125,0.0478999987244606,0.043299999088048935,0.17379999160766602
1683013829918918400,2.66391845703125,-0.06419999897480011,0.08469999581575394,0.181099995970726
1683013829938918400,2.68391845703125,-0.1412999927997589,0.08609999716281891,0.17759999632835388
1683013829958918400,2.70391845703125,-0.1160999983549118,0.01889999955892563,0.35979998111724854
1683013829978918400,2.72391845703125,-0.012899999506771564,0.11109999567270279,0.26919999718666077
1683013829998918400,2.74391845703125,0.05689999833703041,0.0982000008225441,0.15129999816417694
1683013830018918400,2.76391845703125,0.19709999859333038,0.0471000000834465,0.22100000083446503
1683013830038918400,2.78391845703125,0.24309998750686646,-0.002199999988079071,0.2230999916791916
1683013830058918400,2.80391845703125,0.16929998993873596,0.02459999918937683,0.15529999136924744
1683013830078918400,2.82391845703125,0.033799998462200165,0.021399999037384987,0.12559999525547028
1683013830098918400,2.84391845703125,0.018199998885393143,0.04910000041127205,0.1445000022649765
1683013830118918400,2.86391845703125,-0.019899999722838402,0.04079999774694443,0.17379999160766602
1683013830138918400,2.88391845703125,-0.04010000079870224,0.0405999980866909,0.1347000002861023
1683013830158918400,2.90391845703125,-0.028199998661875725,0.0009999999310821295,0.12449999898672104
1683013830178918400,2.92391845703125,0.019600000232458115,-0.03539999946951866,0.12469999492168427
1683013830198918400,2.94391845703125,0.11159999668598175,-0.03189999982714653,0.09629999846220016
1683013830218918400,2.96391845703125,0.10279999673366547,-0.1054999977350235,0.10749999433755875
1683013830238918400,2.98391845703125,0.15240000188350677,-0.06629999727010727,0.27570000290870667
1683013830258918400,3.00391845703125,0.07599999755620956,0.014299999922513962,0.1298999935388565
1683013830278918400,3.02391845703125,0.007699999958276749,0.028099998831748962,0.08079999685287476
1683013830298918400,3.04391845703125,0.004399999976158142,-0.02319999970495701,0.13859999179840088
1683013830318918400,3.06391845703125,-0.07069999724626541,-0.11009999364614487,0.11840000003576279
1683013830338918400,3.08391845703125,-0.11939999461174011,-0.07880000025033951,0.07909999787807465
1683013830358918400,3.10391845703125,-0.05009999871253967,-0.023899998515844345,0.07899999618530273
1683013830378918400,3.12391845703125,0.04969999939203262,0.054999999701976776,0.09839999675750732
1683013830398918400,3.14391845703125,0.027499999850988388,0.035499997437000275,0.14630000293254852
1683013830418918400,3.16391845703125,-0.020999999716877937,0.00279999990016222,0.1348000019788742
1683013830438918400,3.18391845703125,0.06369999796152115,0.0279999990016222,0.12399999797344208
1683013830458918400,3.20391845703125,0.09690000116825104,0.03439999744296074,0.15289999544620514
1683013830478918400,3.22391845703125,0.0892999991774559,0.059699997305870056,0.054499998688697815
1683013830498918400,3.24391845703125,0.06059999763965607,0.04309999942779541,0.08379999548196793
1683013830518918400,3.26391845703125,0.09279999881982803,0.06709999591112137,0.17170000076293945
1683013830538918400,3.28391845703125,0.07939999550580978,0.07369999587535858,0.2295999974012375
1683013830558918400,3.30391845703125,0.12600000202655792,0.1232999935746193,0.26759999990463257
1683013830578918400,3.32391845703125,0.16099999845027924,0.09030000120401382,0.15060000121593475
1683013830598918400,3.34391845703125,0.16939999163150787,0.1419999897480011,0.03460000082850456
1683013830618918400,3.36391845703125,0.09309999644756317,0.07490000128746033,0.025999998673796654
1683013830638918400,3.38391845703125,0.04389999806880951,0.046799998730421066,0.12409999966621399
1683013830658918400,3.40391845703125,0.07409999519586563,-0.020600000396370888,0.17289999127388
1683013830678918400,3.42391845703125,0.14899998903274536,-0.00029999998514540493,0.07539999485015869
1683013830698918400,3.44391845703125,0.17669999599456787,-0.027499999850988388,0.1736999899148941
1683013830718918400,3.46391845703125,0.1468999981880188,-0.06229999661445618,0.22280000150203705
1683013830738918400,3.48391845703125,0.08609999716281891,-0.08949999511241913,0.20349998772144318
1683013830758918400,3.50391845703125,0.07289999723434448,-0.09869999438524246,0.11580000072717667
1683013830778918400,3.52391845703125,0.055799998342990875,-0.16329999268054962,0.028699999675154686
1683013830798918400,3.54391845703125,0.1005999967455864,-0.08649999648332596,0.009800000116229057
1683013830818918400,3.56391845703125,0.04519999772310257,-0.11939999461174011,0.09749999642372131
1683013830838918400,3.58391845703125,0.006399999838322401,-0.12860000133514404,0.2134999930858612
1683013830858918400,3.60391845703125,-0.08020000159740448,-0.041600000113248825,0.319599986076355
1683013830878918400,3.62391845703125,-0.08789999783039093,-0.10439999401569366,0.2996000051498413
1683013830898918400,3.64391845703125,-0.08419999480247498,-0.0731000006198883,0.12409999966621399
1683013830918918400,3.66391845703125,-0.03150000050663948,-0.012799999676644802,0.08590000122785568
1683013830938918400,3.68391845703125,0.017899999395012856,-0.015099999494850636,0.19370000064373016
1683013830958918400,3.70391845703125,-0.016300000250339508,0.002899999963119626,0.19290000200271606
1683013830978918400,3.72391845703125,-0.06229999661445618,0.03759999945759773,0.16300000250339508
1683013830998918400,3.74391845703125,-0.011599999852478504,0.04209999740123749,0.19219999015331268
1683013831018918400,3.76391845703125,-0.008899999782443047,0.01640000008046627,0.21139998733997345
1683013831038918400,3.78391845703125,-0.006899999920278788,0.016999999061226845,0.14239999651908875
1683013831058918400,3.80391845703125,0.005799999926239252,0.0471000000834465,0.17139999568462372
1683013831078918400,3.82391845703125,0.030499998480081558,0.000699999975040555,0.258899986743927
1683013831098918400,3.84391845703125,0.09149999916553497,0.05069999769330025,0.1800999939441681
1683013831118918400,3.86391845703125,0.09229999780654907,0.07009999454021454,0.1014999970793724
1683013831138918400,3.88391845703125,0.11309999972581863,0.03989999741315842,0.11109999567270279
1683013831158918400,3.90391845703125,0.11840000003576279,-0.02019999921321869,0.19849999248981476
1683013831178918400,3.92391845703125,0.11459999531507492,-0.02029999904334545,0.19759999215602875
1683013831198918400,3.94391845703125,0.0803999975323677,0.056699998676776886,0.1574999988079071
1683013831218918400,3.96391845703125,0.18129999935626984,0.11459999531507492,0.16689999401569366
1683013831238918400,3.98391845703125,0.18150000274181366,0.054899998009204865,0.14729999005794525
1683013831258918400,4.00391845703125,0.0625,-0.008899999782443047,0.03959999978542328
1683013831278918400,4.02391845703125,0.030299998819828033,0.04439999908208847,0.049799997359514236
1683013831298918400,4.04391845703125,0.012299999594688416,0.052299998700618744,0.1671999990940094
1683013831318918400,4.06391845703125,0.020499998703598976,0.040300000458955765,0.2541999816894531
1683013831338918400,4.08391845703125,0.05790000036358833,0.005499999970197678,0.17440000176429749
1683013831358918400,4.10391845703125,0.18769998848438263,0.02850000001490116,0.1348000019788742
1683013831378918400,4.12391845703125,0.26479998230934143,0.026899999007582664,0.2134999930858612
1683013831398918400,4.14391845703125,0.15950000286102295,-0.05339999869465828,0.22289998829364777
1683013831418918400,4.16391845703125,0.0044999998062849045,-0.0803999975323677,0.05590000003576279
1683013831438918400,4.18391845703125,-0.08500000089406967,-0.125900000333786,0.06589999794960022
1683013831458918400,4.20391845703125,-0.06870000064373016,-0.06679999828338623,0.10559999942779541
1683013831478918400,4.22391845703125,-0.053999997675418854,0.014800000004470348,0.14559999108314514
1683013831498918400,4.24391845703125,-0.042799998074769974,0.055299997329711914,0.2238999903202057
1683013831518918400,4.26391845703125,-0.007499999832361937,0.014399999752640724,0.2719999849796295
1683013831538918400,4.28391845703125,0.035099998116493225,-0.03920000046491623,0.251800000667572
1683013831558918400,4.30391845703125,0.08399999886751175,-0.04779999703168869,0.11449999362230301
1683013831578916900,4.323916748046875,0.12889999151229858,-0.005699999630451202,0.026899999007582664
1683013831598918400,4.34391845703125,0.10859999805688858,-0.007499999832361937,0.1152999997138977
1683013831618918400,4.36391845703125,0.04389999806880951,0.010799999348819256,0.14409999549388885
1683013831638918400,4.38391845703125,0.017500000074505806,0.01850000023841858,0.11419999599456787
1683013831658918400,4.40391845703125,-0.0017999999690800905,-0.012899999506771564,0.10439999401569366
1683013831678918400,4.42391845703125,0.03819999843835831,0.0064999996684491634,0.1630999892950058
1683013831698918400,4.44391845703125,0.05790000036358833,-0.009599999524652958,0.17289999127388
1683013831718918400,4.46391845703125,0.009099999442696571,0.02070000022649765,0.10419999808073044
1683013831738918400,4.48391845703125,0.020600000396370888,0.021199999377131462,0.11369999498128891
1683013831758918400,4.50391845703125,0.04559999704360962,0.00279999990016222,0.16189999878406525
1683013831778918400,4.52391845703125,0.10749999433755875,-0.004100000020116568,0.21050000190734863
1683013831798918400,4.54391845703125,0.06509999930858612,0.0015999999595806003,0.19139999151229858
1683013831818918400,4.56391845703125,0.03920000046491623,0.002099999925121665,0.21199999749660492
1683013831838918400,4.58391845703125,0.008899999782443047,-0.014599999412894249,0.24149999022483826
1683013831858918400,4.60391845703125,-0.012000000104308128,0.02759999968111515,0.17309999465942383
1683013831878918400,4.62391845703125,0.025999998673796654,0.06929999589920044,0.15359999239444733
1683013831898918400,4.64391845703125,0.032999999821186066,0.052299998700618744,0.12469999492168427
1683013831918918400,4.66391845703125,-0.009399999864399433,0.023000000044703484,0.08590000122785568
1683013831938918400,4.68391845703125,-0.019700000062584877,0.06229999661445618,0.13509999215602875
1683013831958918400,4.70391845703125,-0.0568000003695488,0.01589999906718731,0.20340000092983246
1683013831978918400,4.72391845703125,-0.034199997782707214,0.026899999007582664,0.16369999945163727
1683013831998918400,4.74391845703125,0.006300000008195639,0.016899999231100082,0.15369999408721924
1683013832018918400,4.76391845703125,0.08449999988079071,0.01899999938905239,0.2125999927520752
1683013832038918400,4.78391845703125,0.05219999700784683,0.022499999031424522,0.21299999952316284
1683013832058918400,4.80391845703125,-0.05829999968409538,-0.014800000004470348,0.16439999639987946
1683013832078918400,4.82391845703125,-0.09929999709129333,0.02459999918937683,0.11559999734163284
1683013832098918400,4.84391845703125,-0.11019999533891678,0.02630000002682209,0.11580000072717667
1683013832118918400,4.86391845703125,-0.09099999815225601,0.028999999165534973,0.11589999496936798
1683013832138918400,4.88391845703125,-0.00279999990016222,0.04079999774694443,0.1551000028848648
1683013832158918400,4.90391845703125,0.03819999843835831,0.03370000049471855,0.2724999785423279
1683013832178918400,4.92391845703125,0.0405999980866909,0.01529999915510416,0.2624000012874603
1683013832198918400,4.94391845703125,0.03999999910593033,0.03280000016093254,0.1152999997138977
1683013832218918400,4.96391845703125,0.07279999554157257,0.028099998831748962,0.17520000040531158
1683013832238918400,4.98391845703125,0.07729999721050262,0.030899999663233757,0.24309998750686646
1683013832258918400,5.00391845703125,0.031199999153614044,0.04149999842047691,0.14459998905658722
1683013832278918400,5.02391845703125,0.0031999999191612005,0.06960000097751617,0.11499999463558197
1683013832298918400,5.04391845703125,-0.01269999984651804,0.019600000232458115,0.1143999993801117
1683013832318918400,5.06391845703125,0.019299998879432678,0.028299998492002487,0.11400000005960464
1683013832338918400,5.08391845703125,0.04039999842643738,0.05819999799132347,0.14319999516010284
1683013832358918400,5.10391845703125,0.09309999644756317,0.02979999966919422,0.21130000054836273
1683013832378918400,5.12391845703125,0.07769999653100967,0.02969999983906746,0.17139999568462372
1683013832398918400,5.14391845703125,0.09829999506473541,0.01860000006854534,0.12219999730587006
1683013832418918400,5.16391845703125,0.12809999287128448,0.028599999845027924,0.14180000126361847
1683013832438918400,5.18391845703125,0.06969999521970749,0.00009999999747378752,0.13189999759197235
1683013832458918400,5.20391845703125,0.07519999891519547,0.02879999950528145,0.03449999913573265
1683013832478918400,5.22391845703125,0.07779999822378159,0.00839999970048666,0.14339999854564667
1683013832498918400,5.24391845703125,0.03799999877810478,-0.017999999225139618,0.3005000054836273
1683013832518918400,5.26391845703125,-0.008799999952316284,-0.008499999530613422,0.15299999713897705
1683013832538918400,5.28391845703125,0.010599999688565731,0.026999998837709427,0.03539999946951866
1683013832558918400,5.30391845703125,0.11319999396800995,0.026999998837709427,0.06560000032186508
1683013832578916900,5.323916748046875,0.060999996960163116,-0.011299999430775642,0.10529999434947968
1683013832598918400,5.34391845703125,0.011699999682605267,0.014800000004470348,0.056299999356269836
1683013832618918400,5.36391845703125,-0.011599999852478504,-0.026999998837709427,0.18289999663829803
1683013832638918400,5.38391845703125,0.07329999655485153,0.01269999984651804,0.2602999806404114
1683013832658918400,5.40391845703125,0.11499999463558197,0.022299999371170998,0.2304999977350235
1683013832678918400,5.42391845703125,0.13349999487400055,-0.05849999934434891,0.18159998953342438
1683013832698918400,5.44391845703125,0.14010000228881836,-0.05139999836683273,0.08399999886751175
1683013832718918400,5.46391845703125,0.09719999879598618,-0.05269999802112579,0.09439999610185623
1683013832738918400,5.48391845703125,0.06879999488592148,0.02589999884366989,0.15309999883174896
1683013832758918400,5.50391845703125,0.022599998861551285,0.018199998885393143,0.19189999997615814
1683013832778918400,5.52391845703125,0.048899997025728226,0.03819999843835831,0.10409999638795853
1683013832798918400,5.54391845703125,0.056199997663497925,0.01860000006854534,0.12409999966621399
1683013832818918400,5.56391845703125,0.03799999877810478,-0.019299998879432678,0.20239999890327454
1683013832838918400,5.58391845703125,0.04079999774694443,-0.018299998715519905,0.2313999980688095
1683013832858918400,5.60391845703125,0.009800000116229057,0.019600000232458115,0.1727999895811081
1683013832878918400,5.62391845703125,-0.02199999988079071,-0.011599999852478504,0.1339000016450882
1683013832898918400,5.64391845703125,-0.053199999034404755,-0.002199999988079071,0.17339999973773956
1683013832918918400,5.66391845703125,-0.045499999076128006,0.00839999970048666,0.20319999754428864
1683013832938918400,5.68391845703125,-0.08460000157356262,-0.02199999988079071,0.1834999918937683
1683013832958918400,5.70391845703125,-0.04490000009536743,-0.024799998849630356,0.14419999718666077
1683013832978918400,5.72391845703125,0.025599999353289604,-0.015699999406933784,0.18310000002384186
1683013832998918400,5.74391845703125,0.0568000003695488,-0.045099999755620956,0.20250000059604645
1683013833018918400,5.76391845703125,0.04829999804496765,-0.026999998837709427,0.11400000005960464
1683013833038918400,5.78391845703125,0.06059999763965607,-0.06679999828338623,0.14299999177455902
1683013833058918400,5.80391845703125,0.056699998676776886,0.0038999998942017555,0.18140000104904175
1683013833078918400,5.82391845703125,0.041600000113248825,0.016300000250339508,0.16110000014305115
1683013833098918400,5.84391845703125,0.03629999980330467,0.01889999955892563,0.16040000319480896
1683013833118918400,5.86391845703125,0.07400000095367432,0.009800000116229057,0.1703999936580658
1683013833138918400,5.88391845703125,0.0697999969124794,-0.039400000125169754,0.25929999351501465
1683013833158918400,5.90391845703125,0.07019999623298645,-0.019199999049305916,0.19059999287128448
1683013833178918400,5.92391845703125,0.10979999601840973,0.0284000001847744,0.11209999769926071
1683013833198918400,5.94391845703125,0.18439999222755432,0.029500000178813934,0.10289999842643738
1683013833218918400,5.96391845703125,0.147599995136261,0.06079999729990959,0.094200000166893
1683013833238918400,5.98391845703125,0.07490000128746033,0.019999999552965164,0.09479999542236328
1683013833258918400,6.00391845703125,0.045399997383356094,0.016599999740719795,0.11449999362230301
1683013833278918400,6.02391845703125,0.046799998730421066,-0.0044999998062849045,0.21229998767375946
1683013833298918400,6.04391845703125,0.10559999942779541,-0.005499999970197678,0.15349999070167542
1683013833318918400,6.06391845703125,0.12319999933242798,-0.04639999940991402,0.14399999380111694
1683013833338918400,6.08391845703125,0.10130000114440918,-0.04609999805688858,0.14429999887943268
1683013833358918400,6.10391845703125,0.06969999521970749,-0.01489999983459711,0.13490000367164612
1683013833378918400,6.12391845703125,-0.03539999946951866,-0.013399999588727951,0.1736999899148941
1683013833398918400,6.14391845703125,-0.09999999403953552,-0.012600000016391277,0.11419999599456787
1683013833418918400,6.16391845703125,-0.02239999920129776,0.01939999870955944,0.1340000033378601
1683013833438918400,6.18391845703125,0.05339999869465828,0.07449999451637268,0.1833999902009964
1683013833458918400,6.20391845703125,0.03519999980926514,0.08899999409914017,0.2321999967098236
1683013833478918400,6.22391845703125,-0.03009999915957451,0.06129999831318855,0.2513999938964844
1683013833498918400,6.24391845703125,-0.02969999983906746,0.031199999153614044,0.15320000052452087
1683013833518918400,6.26391845703125,-0.04129999876022339,0.03009999915957451,0.11429999768733978
1683013833538918400,6.28391845703125,-0.0016999999061226845,0.031099999323487282,0.16329999268054962
1683013833558918400,6.30391845703125,-0.0471000000834465,0.03309999778866768,0.18230000138282776
1683013833578918400,6.32391845703125,-0.02969999983906746,0.034199997782707214,0.21059998869895935
1683013833598918400,6.34391845703125,0.0429999977350235,0.03460000082850456,0.1314999908208847
1683013833618918400,6.36391845703125,0.04399999976158142,0.024699999019503593,0.07249999791383743
1683013833638918400,6.38391845703125,0.03009999915957451,0.015099999494850636,0.11089999973773956
1683013833658918400,6.40391845703125,-0.01979999989271164,-0.01249999925494194,0.09969999641180038
1683013833678918400,6.42391845703125,0.05929999798536301,0.030399998649954796,0.19619999825954437
1683013833698918400,6.44391845703125,0.04039999842643738,-0.0050999997183680534,0.26330000162124634
1683013833718918400,6.46391845703125,0.10399999469518661,0.043800000101327896,0.13509999215602875
1683013833738918400,6.48391845703125,0.10409999638795853,0.043699998408555984,0.06650000065565109
1683013833758918400,6.50391845703125,0.16339999437332153,0.02239999920129776,0.17430000007152557
1683013833778918400,6.52391845703125,0.12399999797344208,-0.07620000094175339,0.2345999926328659
1683013833798918400,6.54391845703125,0.0279999990016222,-0.0786999985575676,0.07739999890327454
1683013833818918400,6.56391845703125,0.09609999507665634,0.04829999804496765,0.05790000036358833
1683013833838918400,6.58391845703125,0.12399999797344208,0.055799998342990875,0.2149999886751175
1683013833858918400,6.60391845703125,0.03529999777674675,0.060499999672174454,0.15629999339580536
1683013833878918400,6.62391845703125,-0.024699999019503593,0.058799996972084045,0.04859999939799309
1683013833898918400,6.64391845703125,-0.006099999882280827,-0.02159999869763851,0.06830000132322311
1683013833918918400,6.66391845703125,0.06920000165700912,0.00019999999494757503,0.14729999005794525
1683013833938918400,6.68391845703125,0.03889999911189079,0.03280000016093254,0.21609999239444733
1683013833958918400,6.70391845703125,-0.027300000190734863,-0.025699999183416367,0.19609999656677246
1683013833978918400,6.72391845703125,-0.017099998891353607,0.012999999336898327,0.17639999091625214
1683013833998918400,6.74391845703125,0.029099998995661736,-0.04360000044107437,0.15719999372959137
1683013834018918400,6.76391845703125,0.016499999910593033,-0.0016999999061226845,0.1184999942779541
1683013834038918400,6.78391845703125,-0.024399999529123306,-0.04859999939799309,0.13830000162124634
1683013834058918400,6.80391845703125,-0.04580000042915344,0.03189999982714653,0.11899999529123306
1683013834078918400,6.82391845703125,-0.09600000083446503,0.024699999019503593,0.16820000112056732
1683013834098918400,6.84391845703125,-0.08579999953508377,0.01719999872148037,0.22699999809265137
1683013834118918400,6.86391845703125,-0.0746999979019165,-0.03999999910593033,0.22689999639987946
1683013834138918400,6.88391845703125,-0.03009999915957451,0.01979999989271164,0.1784999966621399
1683013834158918400,6.90391845703125,-0.023499999195337296,0.04010000079870224,0.16920000314712524
1683013834178918400,6.92391845703125,-0.01730000041425228,0.06149999797344208,0.257999986410141
1683013834198918400,6.94391845703125,-0.033900000154972076,0.03280000016093254,0.21979999542236328
1683013834218918400,6.96391845703125,-0.0052999998442828655,0.020899999886751175,0.11349999904632568
1683013834238918400,6.98391845703125,0.014599999412894249,0.03949999809265137,0.1444000005722046
1683013834258918400,7.00391845703125,0.009499999694526196,-0.01730000041425228,0.20399999618530273
1683013834278918400,7.02391845703125,0.006199999712407589,0.03949999809265137,0.10649999976158142
1683013834298918400,7.04391845703125,-0.0008999999845400453,0.017899999395012856,0.1256999969482422
1683013834318918400,7.06391845703125,-0.022699998691678047,-0.002699999837204814,0.16369999945163727
1683013834338918400,7.08391845703125,-0.055299997329711914,-0.061799999326467514,0.15289999544620514
1683013834358918400,7.10391845703125,-0.019600000232458115,-0.062199998646974564,0.15189999341964722
1683013834378918400,7.12391845703125,-0.003000000026077032,-0.00139999995008111,0.12150000035762787
1683013834398918400,7.14391845703125,0.03879999741911888,-0.008200000040233135,0.17989999055862427
1683013834418918400,7.16391845703125,0.05139999836683273,-0.06539999693632126,0.23839999735355377
1683013834438918400,7.18391845703125,0.0925000011920929,-0.014399999752640724,0.2087000012397766
1683013834458918400,7.20391845703125,0.0421999990940094,-0.02149999886751175,0.1598999947309494
1683013834478918400,7.22391845703125,0.002899999963119626,0.05810000002384186,0.10099999606609344
1683013834498918400,7.24391845703125,-0.01759999990463257,0.07930000126361847,0.06199999898672104
1683013834518918400,7.26391845703125,-0.006399999838322401,0.09160000085830688,0.13040000200271606
1683013834538918400,7.28391845703125,-0.029899999499320984,0.033799998462200165,0.188400000333786
1683013834558918400,7.30391845703125,-0.06340000033378601,-0.045499999076128006,0.13849999010562897
1683013834578918400,7.32391845703125,-0.013199999928474426,0.012399999424815178,0.12849999964237213
1683013834598918400,7.34391845703125,0.06749999523162842,0.03460000082850456,0.19679999351501465
1683013834618918400,7.36391845703125,0.10809999704360962,0.02539999969303608,0.19659999012947083
1683013834638918400,7.38391845703125,0.11659999936819077,-0.034699998795986176,0.1477999985218048
1683013834658918400,7.40391845703125,0.10480000078678131,-0.046799998730421066,0.1087999939918518
1683013834678918400,7.42391845703125,0.05389999970793724,-0.009499999694526196,0.08949999511241913
1683013834698918400,7.44391845703125,0.024899998679757118,0.0011999999405816197,0.15809999406337738
1683013834718918400,7.46391845703125,0.025100000202655792,0.01209999993443489,0.13840000331401825
1683013834738918400,7.48391845703125,0.05139999836683273,0.012000000104308128,0.1290999948978424
1683013834758918400,7.50391845703125,0.050999999046325684,-0.04729999974370003,0.14880000054836273
1683013834778918400,7.52391845703125,0.0892999991774559,0,0.14890000224113464
1683013834798918400,7.54391845703125,0.1469999998807907,-0.06969999521970749,0.09019999951124191
1683013834818918400,7.56391845703125,0.1598999947309494,-0.03179999813437462,0.040699999779462814
1683013834838918400,7.58391845703125,0.08909999579191208,-0.04959999769926071,0.1964999884366989
1683013834858918400,7.60391845703125,0.014599999412894249,0.01249999925494194,0.22529999911785126
1683013834878918400,7.62391845703125,-0.11229999363422394,0.0024999999441206455,0.21549999713897705
1683013834898918400,7.64391845703125,-0.12359999865293503,0.022199999541044235,0.20589999854564667
1683013834918918400,7.66391845703125,-0.07779999822378159,0.021900000050663948,0.1670999974012375
1683013834938918400,7.68391845703125,-0.06079999729990959,-0.02850000001490116,0.14790000021457672
1683013834958918400,7.70391845703125,-0.02419999986886978,-0.011299999430775642,0.10899999737739563
1683013834978918400,7.72391845703125,0.03269999846816063,-0.011799999512732029,0.1386999934911728
1683013834998918400,7.74391845703125,0.05159999802708626,0.02929999865591526,0.18789999186992645
1683013835018918400,7.76391845703125,0.020800000056624413,0.04129999876022339,0.16849999129772186
1683013835038918400,7.78391845703125,-0.05979999899864197,0.05179999768733978,0.12960000336170197
1683013835058918400,7.80391845703125,-0.03959999978542328,0.05079999938607216,0.25699999928474426
1683013835078918400,7.82391845703125,-0.015099999494850636,0.002300000051036477,0.33469998836517334
1683013835098918400,7.84391845703125,0.024699999019503593,0.0778999999165535,0.1678999960422516
1683013835118918400,7.86391845703125,0.06129999831318855,0.08399999886751175,0.09959999471902847
1683013835138918400,7.88391845703125,0.027899999171495438,0.08299999684095383,0.10019999742507935
1683013835158918400,7.90391845703125,0.014099999330937862,0.08219999819993973,0.12039999663829803
1683013835178918400,7.92391845703125,-0.006399999838322401,0.07959999889135361,0.1793999969959259
1683013835198918400,7.94391845703125,-0.002699999837204814,0.03610000014305115,0.23759999871253967
1683013835218918400,7.96391845703125,0.05920000001788139,0.029199998825788498,0.15860000252723694
1683013835238918400,7.98391845703125,0.11659999936819077,0.004299999680370092,0.11959999799728394
1683013835258918400,8.00391845703125,0.11459999531507492,0.02879999950528145,0.12969999015331268
1683013835278918400,8.02391845703125,0.03480000048875809,-0.0429999977350235,0.17889998853206635
1683013835298918400,8.04391845703125,0.029500000178813934,-0.015699999406933784,0.16990000009536743
1683013835318918400,8.06391845703125,0.052400000393390656,0.001500000013038516,0.14139999449253082
1683013835338918400,8.08391845703125,0.06889999657869339,0.03790000081062317,0.1516999900341034
1683013835358918400,8.10391845703125,0.0568000003695488,-0.01529999915510416,0.1225999966263771
1683013835378918400,8.12391845703125,0.03319999948143959,-0.09009999781847,0.08399999886751175
1683013835398918400,8.14391845703125,-0.009999999776482582,-0.065700002014637,0.11400000005960464
1683013835418918400,8.16391845703125,-0.0705999955534935,-0.10679999738931656,0.12409999966621399
1683013835438918400,8.18391845703125,-0.041099999099969864,-0.059699997305870056,0.15349999070167542
1683013835458918400,8.20391845703125,-0.00039999998989515007,-0.041200000792741776,0.15320000052452087
1683013835478918400,8.22391845703125,0.05859999731183052,-0.09109999984502792,0.1727999895811081
1683013835498918400,8.24391845703125,0.0674000009894371,-0.08240000158548355,0.15330000221729279
1683013835518918400,8.26391845703125,0.03579999879002571,-0.09239999949932098,0.13409999012947083
1683013835538918400,8.28391845703125,-0.03519999980926514,-0.07239999622106552,0.11479999870061874
1683013835558918400,8.30391845703125,-0.08449999988079071,-0.050999999046325684,0.14429999887943268
1683013835578918400,8.32391845703125,-0.0940999984741211,-0.03879999741911888,0.15410000085830688
1683013835598918400,8.34391845703125,-0.02459999918937683,-0.026799999177455902,0.13429999351501465
1683013835618918400,8.36391845703125,0.08299999684095383,-0.004100000020116568,0.15399999916553497
1683013835638918400,8.38391845703125,0.11249999701976776,-0.010499999858438969,0.16380000114440918
1683013835658918400,8.40391845703125,0.065700002014637,0.04129999876022339,0.17329999804496765
1683013835678918400,8.42391845703125,0.026499999687075615,0.04319999739527702,0.15369999408721924
1683013835698918400,8.44391845703125,-0.03189999982714653,0.023000000044703484,0.2516999840736389
1683013835718918400,8.46391845703125,-0.028699999675154686,0.0030999998562037945,0.3296000063419342
1683013835738918400,8.48391845703125,-0.04439999908208847,0.003599999938160181,0.23099999129772186
1683013835758918400,8.50391845703125,0.0357000008225441,0.0802999958395958,0.0737999975681305
1683013835778918400,8.52391845703125,0.14229999482631683,0.09149999916553497,0.10339999943971634
1683013835798918400,8.54391845703125,0.20009998977184296,0.09369999915361404,0.11339999735355377
1683013835818918400,8.56391845703125,0.13269999623298645,0.043299999088048935,0.08379999548196793
1683013835838918400,8.58391845703125,0.03659999743103981,0.04839999973773956,0.12269999831914902
1683013835858918400,8.60391845703125,0.05920000001788139,0.03830000013113022,0.19089999794960022
1683013835878918400,8.62391845703125,0.06969999521970749,0.06939999759197235,0.1809999942779541
1683013835898918400,8.64391845703125,0.1581999957561493,0.10809999704360962,0.17109999060630798
1683013835918918400,8.66391845703125,0.18679998815059662,0.030399998649954796,0.23989999294281006
1683013835938918400,8.68391845703125,0.20669999718666077,0.03949999809265137,0.14180000126361847
1683013835958918400,8.70391845703125,0.17319999635219574,0.03579999879002571,0.06390000134706497
1683013835978918400,8.72391845703125,0.14090000092983246,0.034199997782707214,0.11339999735355377
1683013835998918400,8.74391845703125,0.11769999563694,0.033900000154972076,0.15320000052452087
1683013836018918400,8.76391845703125,0.08469999581575394,0.032999999821186066,0.18310000002384186
1683013836038920000,8.783919921875,0.03590000048279762,0.03059999831020832,0.20269998908042908
1683013836058918400,8.80391845703125,0.08309999853372574,0.009399999864399433,0.15389999747276306
1683013836078918400,8.82391845703125,-0.017500000074505806,0.07589999586343765,-0.051500000059604645
1683013836098918400,8.84391845703125,0.19299998879432678,-0.025499999523162842,0.19439999759197235
1683013836118918400,8.86391845703125,0.05929999798536301,0.027899999171495438,0.25429999828338623
1683013836138918400,8.88391845703125,0.018400000408291817,0.027499999850988388,0.2953000068664551
1683013836158918400,8.90391845703125,-0.10319999605417252,0.07029999792575836,0.2272999882698059
1683013836178918400,8.92391845703125,-0.14329999685287476,0.07819999754428864,0.26669999957084656
1683013836198918400,8.94391845703125,-0.14259999990463257,0.05269999802112579,0.2175000011920929
1683013836218918400,8.96391845703125,-0.09399999678134918,0.0421999990940094,0.19789999723434448
1683013836238918400,8.98391845703125,-0.1014999970793724,-0.039799999445676804,0.07979999482631683
1683013836258918400,9.00391845703125,-0.011500000022351742,-0.01209999993443489,0.05009999871253967
1683013836278918400,9.02391845703125,0.05069999769330025,0.005200000014156103,0.19669999182224274
1683013836298918400,9.04391845703125,0.0066999997943639755,0.01640000008046627,0.19589999318122864
1683013836318918400,9.06391845703125,-0.00969999935477972,0.014499999582767487,0.15619999170303345
1683013836338918400,9.08391845703125,0.010199999436736107,-0.047599997371435165,0.2541999816894531
1683013836358918400,9.10391845703125,-0.024299999698996544,-0.0989999994635582,0.2239999920129776
1683013836378918400,9.12391845703125,0.008700000122189522,0.0058999997563660145,0.09600000083446503
1683013836398918400,9.14391845703125,0.02969999983906746,0.01529999915510416,0.11539999395608902
1683013836418918400,9.16391845703125,0.010400000028312206,0.00559999980032444,0.13490000367164612
1683013836438918400,9.18391845703125,-0.0005999999702908099,-0.01759999990463257,0.08609999716281891
1683013836458918400,9.20391845703125,-0.03579999879002571,-0.02419999986886978,0.09529999643564224
1683013836478918400,9.22391845703125,0.028299998492002487,-0.04859999939799309,0.17289999127388
1683013836498918400,9.24391845703125,0.003000000026077032,-0.031099999323487282,0.1428999900817871
1683013836518918400,9.26391845703125,0.03240000084042549,-0.03399999812245369,0.1331000030040741
1683013836538918400,9.28391845703125,0.05999999865889549,-0.05350000038743019,0.15299999713897705
1683013836558918400,9.30391845703125,0.07779999822378159,-0.01269999984651804,0.12379999458789825
1683013836578916900,9.323916748046875,0.05819999799132347,-0.04089999943971634,0.13359999656677246
1683013836598918400,9.34391845703125,0.04919999837875366,-0.03019999898970127,0.09429999440908432
1683013836618918400,9.36391845703125,0.04829999804496765,-0.008100000210106373,0.11400000005960464
1683013836638918400,9.38391845703125,0.01769999973475933,0.006599999964237213,0.17299999296665192
1683013836658918400,9.40391845703125,-0.021299999207258224,0.020899999886751175,0.18279999494552612
1683013836678918400,9.42391845703125,-0.05849999934434891,0.033299997448921204,0.1824999898672104
1683013836698918400,9.44391845703125,-0.05689999833703041,0.0066999997943639755,0.17239999771118164
1683013836718918400,9.46391845703125,-0.05460000038146973,0.008899999782443047,0.14270000159740448
1683013836738918400,9.48391845703125,0.025599999353289604,0.012999999336898327,0.16200000047683716
1683013836758918400,9.50391845703125,0.05689999833703041,0.057499997317790985,0.21079999208450317
1683013836778918400,9.52391845703125,0.08739999681711197,0.041099999099969864,0.23019999265670776
1683013836798918400,9.54391845703125,-0.00029999998514540493,0.012000000104308128,0.13210000097751617
1683013836818918400,9.56391845703125,-0.010199999436736107,0.03999999910593033,0.13210000097751617
1683013836838918400,9.58391845703125,0.000699999975040555,0.02319999970495701,0.1907999962568283
1683013836858918400,9.60391845703125,0.013799999840557575,0.03439999744296074,0.20989999175071716
1683013836878918400,9.62391845703125,0.056299999356269836,0.023799998685717583,0.14069999754428864
1683013836898918400,9.64391845703125,0.12479999661445618,0.003499999875202775,0.13089999556541443
1683013836918918400,9.66391845703125,0.13519999384880066,0.0142000000923872,0.14069999754428864
1683013836938918400,9.68391845703125,0.08729999512434006,0.02579999901354313,0.06199999898672104
1683013836958918400,9.70391845703125,0.05810000002384186,0.025299999862909317,0.1306999921798706
1683013836978918400,9.72391845703125,0.04259999841451645,-0.0024999999441206455,0.26729997992515564
1683013836998918400,9.74391845703125,0.04690000042319298,-0.027699999511241913,0.1981000006198883
1683013837018918400,9.76391845703125,0.18459999561309814,0.07099999487400055,0.12929999828338623
1683013837038918400,9.78391845703125,0.23989999294281006,0.026399999856948853,0.2574000060558319
1683013837058918400,9.80391845703125,0.11739999800920486,0.0632999986410141,0.10119999945163727
1683013837078918400,9.82391845703125,-0.07660000026226044,0.027400000020861626,0.03370000049471855
1683013837098918400,9.84391845703125,-0.15689998865127563,0.02410000003874302,0.11239999532699585
1683013837118918400,9.86391845703125,-0.14190000295639038,0.004399999976158142,0.1915999948978424
1683013837138918400,9.88391845703125,-0.0016999999061226845,0.026099998503923416,0.20250000059604645
1683013837158918400,9.90391845703125,0.13449999690055847,0.00930000003427267,0.1551000028848648
1683013837178918400,9.92391845703125,0.2232999950647354,0.011099999770522118,0.21539999544620514
1683013837198918400,9.94391845703125,0.18779999017715454,-0.007999999448657036,0.1574999988079071
1683013837218918400,9.96391845703125,0.07019999623298645,-0.03920000046491623,0.08060000091791153
1683013837238918400,9.98391845703125,-0.0737999975681305,-0.03099999949336052,0.11109999567270279
1683013837258918400,10.00391845703125,-0.16539999842643738,-0.00019999999494757503,0.15079998970031738
1683013837278918400,10.02391845703125,-0.1062999963760376,0.0210999995470047,0.1703999936580658
1683013837298918400,10.04391845703125,-0.0729999989271164,-0.028299998492002487,0.1599999964237213
1683013837318918400,10.06391845703125,-0.028599999845027924,-0.04149999842047691,0.12969999015331268
1683013837338918400,10.08391845703125,0.0357000008225441,-0.033799998462200165,0.1582999974489212
1683013837358918400,10.10391845703125,0.060999996960163116,-0.012600000016391277,0.2554999887943268
1683013837378921500,10.12392138671875,0.03689999878406525,0.008499999530613422,0.3037000000476837
1683013837398918400,10.14391845703125,-0.04739999771118164,-0.003000000026077032,0.22459998726844788
1683013837418918400,10.16391845703125,-0.10289999842643738,0.011099999770522118,0.12600000202655792
1683013837438918400,10.18391845703125,-0.04559999704360962,0.01979999989271164,0.13599999248981476
1683013837458918400,10.20391845703125,0.010599999688565731,0.01119999960064888,0.1363999992609024
1683013837478918400,10.22391845703125,0.010499999858438969,0.011899999342858791,0.1266999989748001
1683013837498918400,10.24391845703125,0.014399999752640724,0.02279999852180481,0.15549999475479126
1683013837518918400,10.26391845703125,-0.046799998730421066,0.004299999680370092,0.20340000092983246
1683013837538918400,10.28391845703125,-0.020399998873472214,0.023499999195337296,0.1630999892950058
1683013837558918400,10.30391845703125,0.017400000244379044,0.013599999248981476,0.16179999709129333
1683013837578916900,10.323916748046875,0.014800000004470348,-0.005699999630451202,0.11169999837875366
1683013837598918400,10.34391845703125,0.04749999940395355,-0.035099998116493225,0.14059999585151672
1683013837618918400,10.36391845703125,0.07259999960660934,-0.052799999713897705,0.2475999891757965
1683013837638918400,10.38391845703125,0.10040000081062317,0.007499999832361937,0.20719999074935913
1683013837658918400,10.40391845703125,0.07739999890327454,0.007899999618530273,0.13759998977184296
1683013837678918400,10.42391845703125,0.0885000005364418,-0.0005999999702908099,0.12759999930858612
1683013837698918400,10.44391845703125,0.056599996984004974,0.028199998661875725,0.07889999449253082
1683013837718918400,10.46391845703125,0.03309999778866768,0.01730000041425228,0.0892999991774559
1683013837738918400,10.48391845703125,-0.005799999926239252,-0.012299999594688416,0.13830000162124634
1683013837758918400,10.50391845703125,0.043299999088048935,0.027699999511241913,0.2069000005722046
1683013837778918400,10.52391845703125,0.052299998700618744,0.008299999870359898,0.2069999873638153
1683013837798918400,10.54391845703125,0.08760000020265579,-0.02329999953508377,0.13899999856948853
1683013837818918400,10.56391845703125,0.10080000013113022,0.002199999988079071,0.1006999984383583
1683013837838918400,10.58391845703125,0.0973999947309494,-0.00019999999494757503,0.1403999924659729
1683013837858918400,10.60391845703125,0.06529999524354935,0.00969999935477972,0.2094999998807907
1683013837878918400,10.62391845703125,0.040699999779462814,-0.002300000051036477,0.2003999948501587
1683013837898918400,10.64391845703125,0.049300000071525574,0.013799999840557575,0.11389999836683273
1683013837918918400,10.66391845703125,0.016899999231100082,0.010300000198185444,0.08639999479055405
1683013837938918400,10.68391845703125,-0.028099998831748962,0.0072999997064471245,0.1363999992609024
1683013837958918400,10.70391845703125,-0.019500000402331352,0.004699999932199717,0.16599999368190765
1683013837978918400,10.72391845703125,0.029899999499320984,-0.016300000250339508,0.20509999990463257
1683013837998918400,10.74391845703125,0.06839999556541443,-0.018199998885393143,0.16599999368190765
1683013838018918400,10.76391845703125,0.08489999920129776,-0.0013000000035390258,0.11739999800920486
1683013838038918400,10.78391845703125,0.05469999834895134,-0.0030999998562037945,0.15680000185966492
1683013838058918400,10.80391845703125,0.006399999838322401,0.0050999997183680534,0.20569999516010284
1683013838078924800,10.8239248046875,-0.032899998128414154,0.0030999998562037945,0.19589999318122864
1683013838098918400,10.84391845703125,-0.0722000002861023,-0.0010999999940395355,0.18609999120235443
1683013838118918400,10.86391845703125,-0.05219999700784683,-0.01599999889731407,0.1370999962091446
1683013838138918400,10.88391845703125,-0.023499999195337296,-0.05009999871253967,0.09799999743700027
1683013838158918400,10.90391845703125,0.08049999922513962,-0.023099999874830246,0.10839999467134476
1683013838178918400,10.92391845703125,0.04039999842643738,-0.07229999452829361,0.1673000007867813
1683013838198918400,10.94391845703125,0.01249999925494194,-0.033900000154972076,0.11809999495744705
1683013838218918400,10.96391845703125,-0.008200000040233135,-0.02290000021457672,0.11819999665021896
1683013838238921500,10.98392138671875,0.028199998661875725,-0.021199999377131462,0.2166999876499176
1683013838258918400,11.00391845703125,0.08609999716281891,-0.06879999488592148,0.3051999807357788
1683013838278918400,11.02391845703125,0.0957999974489212,-0.06759999692440033,0.20709998905658722
1683013838298918400,11.04391845703125,0.05429999902844429,-0.01939999870955944,0.07999999821186066
1683013838318918400,11.06391845703125,0.031300000846385956,0.011699999682605267,0.08049999922513962
1683013838338918400,11.08391845703125,-0.030499998480081558,0.025599999353289604,0.13979999721050262
1683013838358918400,11.10391845703125,-0.11019999533891678,0.017500000074505806,0.13019999861717224
1683013838378918400,11.12391845703125,-0.11129999905824661,-0.012199999764561653,0.12060000002384186
1683013838398918400,11.14391845703125,-0.061400000005960464,-0.011299999430775642,0.16949999332427979
1683013838418918400,11.16391845703125,0.029099998995661736,-0.008700000122189522,0.17889998853206635
1683013838438920000,11.183919921875,0.09889999777078629,0.02290000021457672,0.20809999108314514
1683013838458920000,11.203919921875,0.0892999991774559,-0.0052999998442828655,0.17870000004768372
1683013838478918400,11.22391845703125,0.07069999724626541,-0.00559999980032444,0.16869999468326569
1683013838498934000,11.24393408203125,0.02199999988079071,-0.0058999997563660145,0.09019999951124191
1683013838518918400,11.26391845703125,0.012899999506771564,0.042799998074769974,0.09989999979734421
1683013838538918400,11.28391845703125,-0.03099999949336052,0.0559999980032444,0.27559998631477356
1683013838558918400,11.30391845703125,-0.03059999831020832,-0.00009999999747378752,0.17749999463558197
1683013838578918400,11.32391845703125,-0.01489999983459711,0.04659999907016754,0.08989999443292618
1683013838598920000,11.343919921875,0.032999999821186066,0.00839999970048666,0.17829999327659607
1683013838618918400,11.36391845703125,0.05469999834895134,0.0494999997317791,0.2465999871492386
1683013838638918400,11.38391845703125,0.03749999776482582,0.06799999624490738,0.24619999527931213
1683013838658918400,11.40391845703125,-0.02329999953508377,0.02539999969303608,0.20729999244213104
1683013838678918400,11.42391845703125,-0.05549999698996544,0.02029999904334545,0.14890000224113464
1683013838698918400,11.44391845703125,-0.05119999870657921,-0.00279999990016222,0.11059999465942383
1683013838718918400,11.46391845703125,-0.06129999831318855,-0.00559999980032444,0.21849998831748962
1683013838738918400,11.48391845703125,-0.08020000159740448,0.002099999925121665,0.22819998860359192
1683013838758918400,11.50391845703125,-0.0616999976336956,-0.02290000021457672,0.11069999635219574
1683013838778918400,11.52391845703125,-0.04209999740123749,-0.04739999771118164,0.11069999635219574
1683013838798918400,11.54391845703125,-0.04089999943971634,-0.04879999905824661,0.2184000015258789
1683013838818918400,11.56391845703125,-0.0284000001847744,-0.0794999971985817,0.20819999277591705
1683013838838918400,11.58391845703125,-0.03669999912381172,-0.11259999871253967,0.09030000120401382
1683013838858918400,11.60391845703125,0.03969999775290489,-0.05469999834895134,0.10040000081062317
1683013838878918400,11.62391845703125,0.057499997317790985,-0.08289999514818192,0.23799999058246613
1683013838898918400,11.64391845703125,0.00969999935477972,-0.07119999825954437,0.2280000001192093
1683013838918918400,11.66391845703125,-0.04559999704360962,-0.0009999999310821295,0.14899998903274536
1683013838938918400,11.68391845703125,-0.02459999918937683,0.03889999911189079,0.1193000003695488
1683013838958918400,11.70391845703125,0.02290000021457672,0.010199999436736107,0.13910000026226044
1683013838978918400,11.72391845703125,-0.00139999995008111,-0.029500000178813934,0.07129999995231628
1683013838998918400,11.74391845703125,-0.06269999593496323,-0.062199998646974564,0.03240000084042549
1683013839018918400,11.76391845703125,-0.009800000116229057,-0.043699998408555984,0.1298999935388565
1683013839038918400,11.78391845703125,0.06279999762773514,-0.03949999809265137,0.2272999882698059
1683013839058918400,11.80391845703125,0.15039999783039093,0.012999999336898327,0.16859999299049377
1683013839078926300,11.82392626953125,0.15649999678134918,-0.023399999365210533,0.20839999616146088
1683013839098918400,11.84391845703125,0.13509999215602875,-0.001500000013038516,0.17919999361038208
1683013839118918400,11.86391845703125,0.05299999937415123,-0.0007999999797903001,0.11109999567270279
1683013839138918400,11.88391845703125,-0.008799999952316284,0.0486999973654747,0.10179999470710754
1683013839158918400,11.90391845703125,-0.03959999978542328,0.012199999764561653,0.18050000071525574
1683013839178918400,11.92391845703125,-0.0031999999191612005,0.09299999475479126,0.14169999957084656
1683013839198918400,11.94391845703125,0.03240000084042549,0.11389999836683273,0.21089999377727509
1683013839218918400,11.96391845703125,0.05040000006556511,0.05570000037550926,0.22100000083446503
1683013839238918400,11.98391845703125,0.01939999870955944,0.032600000500679016,0.1525999903678894
1683013839258918400,12.00391845703125,0.0066999997943639755,0.019199999049305916,0.13339999318122864
1683013839278918400,12.02391845703125,-0.022599998861551285,-0.021900000050663948,0.1824999898672104
1683013839298918400,12.04391845703125,0.006099999882280827,-0.0142000000923872,0.13349999487400055
1683013839318918400,12.06391845703125,0.01489999983459711,-0.006300000008195639,0.15330000221729279
1683013839338918400,12.08391845703125,0.034699998795986176,0.02159999869763851,0.23179998993873596
1683013839358918400,12.10391845703125,-0.003399999812245369,-0.028199998661875725,0.1727999895811081
1683013839378918400,12.12391845703125,-0.035499997437000275,-0.03189999982714653,0.09479999542236328
1683013839398918400,12.14391845703125,-0.01899999938905239,-0.06309999525547028,0.11490000039339066
1683013839418918400,12.16391845703125,0.03929999843239784,-0.032899998128414154,0.1542000025510788
1683013839438918400,12.18391845703125,0.10269999504089355,-0.030799999833106995,0.21229998767375946
1683013839458918400,12.20391845703125,0.08540000021457672,-0.019500000402331352,0.13339999318122864
1683013839478918400,12.22391845703125,0.07490000128746033,0.02929999865591526,0.10409999638795853
1683013839498927900,12.243927978515625,0.07440000027418137,-0.029500000178813934,0.20229999721050262
1683013839518918400,12.26391845703125,0.017799999564886093,-0.05810000002384186,0.27059999108314514
1683013839538918400,12.28391845703125,0.01759999990463257,-0.010499999858438969,0.07449999451637268
1683013839558918400,12.30391845703125,0.0835999995470047,0.04829999804496765,0.12389999628067017
1683013839578918400,12.32391845703125,0.08309999853372574,0.002199999988079071,0.21220000088214874
1683013839598918400,12.34391845703125,0.013499999418854713,-0.029500000178813934,0.07509999722242355
1683013839618918400,12.36391845703125,0.0024999999441206455,-0.004900000058114529,0.05570000037550926
1683013839638918400,12.38391845703125,-0.016200000420212746,-0.05339999869465828,0.20269998908042908
1683013839658918400,12.40391845703125,-0.0058999997563660145,-0.00279999990016222,0.15359999239444733
1683013839678918400,12.42391845703125,0.014099999330937862,0.0064999996684491634,0.1437000036239624
1683013839698918400,12.44391845703125,0.08329999446868896,-0.031700000166893005,0.2514999806880951
1683013839718918400,12.46391845703125,0.11129999905824661,-0.032099999487400055,0.17319999635219574
1683013839738918400,12.48391845703125,0.06069999933242798,-0.03399999812245369,0.15389999747276306
1683013839758918400,12.50391845703125,-0.00029999998514540493,-0.04519999772310257,0.09539999812841415
1683013839778918400,12.52391845703125,-0.03189999982714653,-0.035999998450279236,0.12520000338554382
1683013839798918400,12.54391845703125,-0.04169999808073044,-0.034199997782707214,0.19380000233650208
1683013839818918400,12.56391845703125,-0.033399999141693115,-0.03319999948143959,0.09600000083446503
1683013839838918400,12.58391845703125,-0.003499999875202775,-0.03269999846816063,0.21359999477863312
1683013839858918400,12.60391845703125,0.02719999849796295,-0.04989999905228615,0.20349998772144318
1683013839878918400,12.62391845703125,0.055299997329711914,-0.00969999935477972,0.13509999215602875
1683013839898918400,12.64391845703125,0.0471000000834465,-0.027899999171495438,0.20349998772144318
1683013839918918400,12.66391845703125,0.047199998050928116,-0.005499999970197678,0.19370000064373016
1683013839938918400,12.68391845703125,-0.041099999099969864,-0.0050999997183680534,0.15449999272823334
1683013839958918400,12.70391845703125,-0.06920000165700912,0.005699999630451202,0.19349999725818634
1683013839978918400,12.72391845703125,-0.020499998703598976,0.02669999934732914,0.1347000002861023
1683013839998918400,12.74391845703125,0.05889999866485596,0.057099997997283936,0.1736999899148941
1683013840018918400,12.76391845703125,0.08229999989271164,0.0004999999655410647,0.2515999972820282
1683013840038918400,12.78391845703125,0.11189999431371689,0.03949999809265137,0.12409999966621399
1683013840058918400,12.80391845703125,0.07270000129938126,0.07840000092983246,0.09470000118017197
1683013840078918400,12.82391845703125,0.025100000202655792,0.04039999842643738,0.15320000052452087
1683013840098918400,12.84391845703125,0.01529999915510416,-0.019500000402331352,0.22190000116825104
1683013840118918400,12.86391845703125,0.027799999341368675,-0.019600000232458115,0.19200000166893005
1683013840138918400,12.88391845703125,0.0794999971985817,0.029999999329447746,0.13279999792575836
1683013840158918400,12.90391845703125,0.1476999968290329,0.07050000131130219,0.13289999961853027
1683013840178918400,12.92391845703125,0.11669999361038208,0.012199999764561653,0.1232999935746193
1683013840198918400,12.94391845703125,0.06549999862909317,0.020499998703598976,0.07459999620914459
1683013840218918400,12.96391845703125,0.009399999864399433,0.008200000040233135,0.12319999933242798
1683013840238918400,12.98391845703125,-0.0031999999191612005,-0.02290000021457672,0.22019998729228973
1683013840258918400,13.00391845703125,0.029199998825788498,-0.04259999841451645,0.19029998779296875
1683013840278918400,13.02391845703125,0.09449999779462814,-0.014699999243021011,0.11239999532699585
1683013840298918400,13.04391845703125,0.11140000075101852,-0.024399999529123306,0.21089999377727509
1683013840318918400,13.06391845703125,0.10249999910593033,-0.024399999529123306,0.22049999237060547
1683013840338918400,13.08391845703125,0.05989999696612358,-0.026200000196695328,0.11319999396800995
1683013840358918400,13.10391845703125,-0.003399999812245369,0.0009999999310821295,0.09429999440908432
1683013840378918400,13.12391845703125,-0.0071000000461936,0.05049999803304672,0.17339999973773956
1683013840398918400,13.14391845703125,-0.056299999356269836,0.011699999682605267,0.251800000667572
1683013840418918400,13.16391845703125,-0.06650000065565109,-0.031099999323487282,0.2126999944448471
1683013840438918400,13.18391845703125,-0.0632999986410141,-0.025299999862909317,0.10589999705553055
1683013840458918400,13.20391845703125,-0.031199999153614044,-0.03849999979138374,0.15609999001026154
1683013840478918400,13.22391845703125,-0.009099999442696571,0.0210999995470047,0.13769999146461487
1683013840498927900,13.243927978515625,-0.007999999448657036,0.010499999858438969,0.2076999992132187
1683013840518918400,13.26391845703125,0.02239999920129776,0.0486999973654747,0.18959999084472656
1683013840538918400,13.28391845703125,-0.003499999875202775,-0.04189999774098396,0.17099998891353607
1683013840558918400,13.30391845703125,-0.10260000079870224,-0.1257999986410141,0.08289999514818192
1683013840578916900,13.323916748046875,-0.1021999940276146,-0.08139999955892563,0.004399999976158142
1683013840598918400,13.34391845703125,-0.008100000210106373,-0.050200000405311584,0.1995999962091446
1683013840618918400,13.36391845703125,0.04209999740123749,-0.04659999907016754,0.26639997959136963
1683013840638918400,13.38391845703125,0.05079999938607216,0.011899999342858791,0.12770000100135803
1683013840658918400,13.40391845703125,0.07369999587535858,-0.05049999803304672,0.1565999984741211
1683013840678918400,13.42391845703125,0.03669999912381172,-0.16920000314712524,0.27390000224113464
1683013840698918400,13.44391845703125,-0.038100000470876694,-0.1508999913930893,0.12629999220371246
1683013840718918400,13.46391845703125,-0.056599996984004974,-0.055299997329711914,0.00839999970048666
1683013840738918400,13.48391845703125,0.002899999963119626,-0.02199999988079071,0.13580000400543213
1683013840758918400,13.50391845703125,0.04099999740719795,-0.0058999997563660145,0.12610000371932983
1683013840778918400,13.52391845703125,0.050200000405311584,0.02419999986886978,0.0674000009894371
1683013840798918400,13.54391845703125,0.015799999237060547,-0.044199999421834946,0.16459999978542328
1683013840818918400,13.56391845703125,0.0011999999405816197,-0.041999999433755875,0.21279999613761902
1683013840838918400,13.58391845703125,0.030899999663233757,-0.010400000028312206,0.16380000114440918
1683013840858918400,13.60391845703125,0.04839999973773956,-0.008599999360740185,0.19349999725818634
1683013840878918400,13.62391845703125,0.06610000133514404,-0.01640000008046627,0.2035999894142151
1683013840898918400,13.64391845703125,0.0038999998942017555,-0.03539999946951866,0.1256999969482422
1683013840918918400,13.66391845703125,-0.027300000190734863,0.002300000051036477,0.11620000004768372
1683013840938918400,13.68391845703125,-0.017400000244379044,-0.006300000008195639,0.16519999504089355
1683013840958918400,13.70391845703125,-0.0007999999797903001,-0.003700000001117587,0.16569998860359192
1683013840978918400,13.72391845703125,0.024799998849630356,0.027799999341368675,0.1761000007390976
1683013840998918400,13.74391845703125,0.031199999153614044,0.03969999775290489,0.16689999401569366
1683013841018918400,13.76391845703125,-0.01809999905526638,0.020899999886751175,0.2158999890089035
1683013841038918400,13.78391845703125,-0.03720000013709068,0.0005999999702908099,0.16679999232292175
1683013841058918400,13.80391845703125,-0.06659999489784241,0.02879999950528145,0.12759999930858612
1683013841078918400,13.82391845703125,0.003700000001117587,0.048499997705221176,0.17629998922348022
1683013841098918400,13.84391845703125,0.05460000038146973,0.009999999776482582,0.21529999375343323
1683013841118918400,13.86391845703125,0.035999998450279236,-0.011099999770522118,0.14649999141693115
1683013841138918400,13.88391845703125,0.03539999946951866,-0.013499999418854713,0.11719999462366104
1683013841158918400,13.90391845703125,0.015599999576807022,-0.03370000049471855,0.16619999706745148
1683013841178918400,13.92391845703125,0.007599999662488699,-0.03319999948143959,0.2149999886751175
1683013841198918400,13.94391845703125,-0.050200000405311584,0.0052999998442828655,0.10689999908208847
1683013841218918400,13.96391845703125,-0.05159999802708626,0.012899999506771564,0.05810000002384186
1683013841238918400,13.98391845703125,-0.012899999506771564,-0.0771000012755394,0.2150999903678894
1683013841258918400,14.00391845703125,0.03019999898970127,-0.09549999982118607,0.25369998812675476
1683013841278918400,14.02391845703125,0.061400000005960464,-0.035499997437000275,0.13570000231266022
1683013841298918400,14.04391845703125,0.09079999476671219,0.03529999777674675,0.125900000333786
1683013841318918400,14.06391845703125,0.0885000005364418,0.06839999556541443,0.15569999814033508
1683013841338918400,14.08391845703125,-0.002099999925121665,0.019199999049305916,0.09730000048875809
1683013841358918400,14.10391845703125,-0.09959999471902847,0.005699999630451202,0.06780000030994415
1683013841378918400,14.12391845703125,-0.07589999586343765,-0.033799998462200165,0.16519999504089355
1683013841398918400,14.14391845703125,0.055799998342990875,-0.028299998492002487,0.23309999704360962
1683013841418918400,14.16391845703125,0.13859999179840088,-0.02149999886751175,0.15549999475479126
1683013841438918400,14.18391845703125,0.18359999358654022,0.020899999886751175,0.17579999566078186
1683013841458918400,14.20391845703125,0.10209999978542328,-0.013799999840557575,0.20569999516010284
1683013841478918400,14.22391845703125,-0.04690000042319298,-0.014699999243021011,0.13740000128746033
1683013841498927900,14.243927978515625,-0.11639999598264694,0.00139999995008111,0.11789999902248383
1683013841518918400,14.26391845703125,-0.049799997359514236,0.0013000000035390258,0.13779999315738678
1683013841538918400,14.28391845703125,0.007699999958276749,0.0210999995470047,0.1477999985218048
1683013841558918400,14.30391845703125,0.04769999906420708,-0.00930000003427267,0.1476999968290329
1683013841578918400,14.32391845703125,0.08789999783039093,0,0.18679998815059662
1683013841598918400,14.34391845703125,0.05909999832510948,-0.019099999219179153,0.20629999041557312
1683013841618918400,14.36391845703125,0.02979999966919422,-0.020499998703598976,0.13759998977184296
1683013841638918400,14.38391845703125,0.02759999968111515,-0.012000000104308128,0.1281999945640564
1683013841658918400,14.40391845703125,-0.002699999837204814,-0.0013000000035390258,0.19699999690055847
1683013841678918400,14.42391845703125,-0.060099996626377106,-0.02149999886751175,0.17719998955726624
1683013841698918400,14.44391845703125,-0.040699999779462814,-0.023499999195337296,0.1281999945640564
1683013841718918400,14.46391845703125,0.016999999061226845,-0.023899998515844345,0.1282999962568283
1683013841738918400,14.48391845703125,0.0551999993622303,-0.023399999365210533,0.18729999661445618
1683013841758918400,14.50391845703125,0.03539999946951866,-0.042899999767541885,0.1972000002861023
1683013841778918400,14.52391845703125,-0.00419999985024333,-0.024299999698996544,0.11879999935626984
1683013841798918400,14.54391845703125,-0.0340999998152256,-0.025200000032782555,0.09929999709129333
1683013841818918400,14.56391845703125,-0.004799999762326479,-0.06480000168085098,0.20719999074935913
1683013841838918400,14.58391845703125,0.06579999625682831,-0.03350000083446503,0.26569998264312744
1683013841858918400,14.60391845703125,0.06749999523162842,-0.011699999682605267,0.19669999182224274
1683013841878918400,14.62391845703125,0.04800000041723251,0.04769999906420708,0.11829999834299088
1683013841898918400,14.64391845703125,0.045899998396635056,0.038599997758865356,0.11859999597072601
1683013841918918400,14.66391845703125,-0.02589999884366989,0.028599999845027924,0.06030000001192093
1683013841938918400,14.68391845703125,-0.09459999948740005,0.008299999870359898,0.17799998819828033
1683013841958918400,14.70391845703125,-0.08959999680519104,-0.021199999377131462,0.20659999549388885
1683013841978918400,14.72391845703125,0.030899999663233757,-0.021199999377131462,0.18649999797344208
1683013841998918400,14.74391845703125,0.14959999918937683,-0.019899999722838402,0.14710000157356262
1683013842018918400,14.76391845703125,0.22499999403953552,-0.019099999219179153,0.12799999117851257
1683013842038918400,14.78391845703125,0.09649999439716339,-0.018699999898672104,0.19679999351501465
1683013842058918400,14.80391845703125,-0.03999999910593033,-0.019199999049305916,0.13779999315738678
1683013842078918400,14.82391845703125,-0.04969999939203262,0.038599997758865356,0.13779999315738678
1683013842098918400,14.84391845703125,-0.028699999675154686,-0.009499999694526196,0.16699999570846558
1683013842118918400,14.86391845703125,0.08569999784231186,0.030799999833106995,0.16749998927116394
1683013842138918400,14.88391845703125,0.06300000101327896,0.03099999949336052,0.18769998848438263
1683013842158918400,14.90391845703125,0.0139999995008111,0.03759999945759773,0.13859999179840088
1683013842178918400,14.92391845703125,-0.034299999475479126,-0.004900000058114529,0.14829999208450317
1683013842198918400,14.94391845703125,-0.014599999412894249,-0.026099998503923416,0.1678999960422516
1683013842218918400,14.96391845703125,0.06189999729394913,-0.006099999882280827,0.15839999914169312
1683013842238918400,14.98391845703125,0.04230000078678131,0.014099999330937862,0.18789999186992645
1683013842258918400,15.00391845703125,0.02319999970495701,0.0037999998312443495,0.1582999974489212
1683013842278918400,15.02391845703125,-0.025200000032782555,-0.03749999776482582,0.1386999934911728
1683013842298918400,15.04391845703125,-0.03539999946951866,-0.04879999905824661,0.12889999151229858
1683013842318918400,15.06391845703125,-0.007199999876320362,-0.03839999809861183,0.1290999948978424
1683013842338918400,15.08391845703125,0.0030999998562037945,-0.02759999968111515,0.18779999017715454
1683013842358918400,15.10391845703125,0.01549999974668026,-0.07609999924898148,0.16779999434947968
1683013842378918400,15.12391845703125,0.03629999980330467,-0.04649999737739563,0.15779998898506165
1683013842398918400,15.14391845703125,0.04600000008940697,-0.04559999704360962,0.14800000190734863
1683013842418918400,15.16391845703125,0.02459999918937683,-0.065700002014637,0.15809999406337738
1683013842438918400,15.18391845703125,-0.012899999506771564,-0.08559999614953995,0.19709999859333038
1683013842458918400,15.20391845703125,0.019700000062584877,-0.044199999421834946,0.14749999344348907
1683013842478918400,15.22391845703125,0.030899999663233757,0.017099998891353607,0.12770000100135803
1683013842498927900,15.243927978515625,0.0210999995470047,0.0689999982714653,0.17669999599456787
1683013842518918400,15.26391845703125,0.04010000079870224,0.03219999745488167,0.1964000016450882
1683013842538918400,15.28391845703125,-0.02929999865591526,0.0005999999702908099,0.08869999647140503
1683013842558918400,15.30391845703125,-0.045899998396635056,-0.022299999371170998,0.1371999979019165
1683013842578918400,15.32391845703125,0.03519999980926514,-0.02070000022649765,0.2053999900817871
1683013842598918400,15.34391845703125,0.05689999833703041,0.019199999049305916,0.1363999992609024
1683013842618918400,15.36391845703125,0.11580000072717667,0.019700000062584877,0.17559999227523804
1683013842638918400,15.38391845703125,0.09649999439716339,0.010300000198185444,0.20499999821186066
1683013842658918400,15.40391845703125,0.05739999935030937,-0.020600000396370888,0.15600000321865082
1683013842678918400,15.42391845703125,0.018699999898672104,-0.022599998861551285,0.1264999955892563
1683013842698918400,15.44391845703125,0.05559999868273735,0.016200000420212746,0.12680000066757202
1683013842718918400,15.46391845703125,0.06300000101327896,0.027300000190734863,0.17629998922348022
1683013842738918400,15.48391845703125,0.04189999774098396,0.0364999994635582,0.16669999063014984
1683013842758918400,15.50391845703125,0.00989999994635582,0.02279999852180481,0.13769999146461487
1683013842778918400,15.52391845703125,-0.0010999999940395355,-0.02969999983906746,0.18699999153614044
1683013842798918400,15.54391845703125,0.017999999225139618,-0.031599998474121094,0.15760000050067902
1683013842818918400,15.56391845703125,0.046299997717142105,-0.023599999025464058,0.15779998898506165
1683013842838918400,15.58391845703125,0.056299999356269836,0.013899999670684338,0.18719999492168427
1683013842858918400,15.60391845703125,0.006899999920278788,-0.026499999687075615,0.17749999463558197
1683013842878918400,15.62391845703125,-0.041999999433755875,-0.02969999983906746,0.15779998898506165
1683013842898918400,15.64391845703125,-0.05119999870657921,-0.041600000113248825,0.19699999690055847
1683013842918918400,15.66391845703125,-0.04129999876022339,-0.014599999412894249,0.15779998898506165
1683013842938918400,15.68391845703125,-0.021299999207258224,-0.04639999940991402,0.14790000021457672
1683013842958918400,15.70391845703125,-0.030399998649954796,-0.08689999580383301,0.1379999965429306
1683013842978918400,15.72391845703125,-0.030899999663233757,-0.05810000002384186,0.08899999409914017
1683013842998918400,15.74391845703125,-0.028999999165534973,-0.047599997371435165,0.1671999990940094
1683013843018918400,15.76391845703125,-0.04349999874830246,-0.04529999941587448,0.22519999742507935
1683013843038918400,15.78391845703125,-0.09939999878406525,-0.054999999701976776,0.1265999972820282
1683013843058918400,15.80391845703125,-0.08219999819993973,-0.045899998396635056,0.019099999219179153
1683013843078918400,15.82391845703125,0.025200000032782555,-0.04399999976158142,0.25459998846054077
1683013843098918400,15.84391845703125,0.05119999870657921,-0.07769999653100967,0.3319000005722046
1683013843118918400,15.86391845703125,0.04559999704360962,-0.028299998492002487,0.14489999413490295
1683013843138918400,15.88391845703125,0.05460000038146973,0.000699999975040555,0.06659999489784241
1683013843158918400,15.90391845703125,0.02290000021457672,-0.015599999576807022,0.10619999468326569
1683013843178918400,15.92391845703125,-0.026999998837709427,0.01549999974668026,0.08669999986886978
1683013843198918400,15.94391845703125,-0.07360000163316727,0.02579999901354313,0.12559999525547028
1683013843218918400,15.96391845703125,-0.037299998104572296,-0.0016999999061226845,0.2224999964237213
1683013843238918400,15.98391845703125,0.04399999976158142,0.0008999999845400453,0.23179998993873596
1683013843258918400,16.00391845703125,0.13179999589920044,0.031599998474121094,0.20250000059604645
1683013843278918400,16.02391845703125,0.1388999968767166,0.011299999430775642,0.14409999549388885
1683013843298918400,16.04391845703125,0.06920000165700912,0.018799999728798866,0.12459999322891235
1683013843318918400,16.06391845703125,0.00009999999747378752,-0.012199999764561653,0.14429999887943268
1683013843338918400,16.08391845703125,-0.039000000804662704,0.006599999964237213,0.12469999492168427
1683013843358918400,16.10391845703125,0,0.05590000003576279,0.13459999859333038
1683013843378918400,16.12391845703125,0.06830000132322311,0.06709999591112137,0.18359999358654022
1683013843398918400,16.14391845703125,0.06780000030994415,0.038100000470876694,0.2523999810218811
1683013843418918400,16.16391845703125,0.017999999225139618,-0.003700000001117587,0.19370000064373016
1683013843438918400,16.18391845703125,-0.023099999874830246,-0.01730000041425228,0.14499999582767487
1683013843458918400,16.20391845703125,-0.03399999812245369,0.0005999999702908099,0.15489999949932098
1683013843478918400,16.22391845703125,-0.015599999576807022,0.020399998873472214,0.17479999363422394
1683013843498927900,16.243927978515625,0.02319999970495701,0.07939999550580978,0.19439999759197235
1683013843518918400,16.26391845703125,-0.01549999974668026,0.06859999895095825,0.21400000154972076
1683013843538918400,16.28391845703125,0.004799999762326479,0.07519999891519547,0.17459999024868011
1683013843558921500,16.30392138671875,-0.015399999916553497,-0.01730000041425228,0.1453000009059906
1683013843578918400,16.32391845703125,-0.01719999872148037,-0.05159999802708626,0.12610000371932983
1683013843598918400,16.34391845703125,0.022499999031424522,-0.006300000008195639,0.15539999306201935
1683013843618918400,16.36391845703125,0.01599999889731407,-0.018400000408291817,0.19409999251365662
1683013843638918400,16.38391845703125,0.048499997705221176,-0.021800000220537186,0.16419999301433563
1683013843658918400,16.40391845703125,0.08779999613761902,-0.045499999076128006,0.14459998905658722
1683013843678918400,16.42391845703125,0.10779999941587448,-0.06849999725818634,0.17399999499320984
1683013843698918400,16.44391845703125,0.06859999895095825,-0.051500000059604645,0.15439999103546143
1683013843718918400,16.46391845703125,-0.048899997025728226,-0.06449999660253525,0.08569999784231186
1683013843738918400,16.48391845703125,-0.050999999046325684,-0.06920000165700912,0.12539999186992645
1683013843758918400,16.50391845703125,0.007699999958276749,-0.11959999799728394,0.3018999993801117
1683013843778918400,16.52391845703125,0.030399998649954796,-0.061400000005960464,0.21310000121593475
1683013843798918400,16.54391845703125,0.08689999580383301,-0.015399999916553497,0.06639999896287918
1683013843818918400,16.56391845703125,0.09349999576807022,0.003000000026077032,0.09640000015497208
1683013843838918400,16.58391845703125,-0.007400000002235174,-0.036399997770786285,0.0674000009894371
1683013843858918400,16.60391845703125,-0.1054999977350235,-0.000699999975040555,0.07729999721050262
1683013843878918400,16.62391845703125,-0.14949999749660492,-0.04230000078678131,0.20399999618530273
1683013843898918400,16.64391845703125,-0.09629999846220016,-0.08179999887943268,0.24249999225139618
1683013843918918400,16.66391845703125,0.020600000396370888,-0.003499999875202775,0.1348000019788742
1683013843938918400,16.68391845703125,0.0982000008225441,-0.03219999745488167,0.18400000035762787
1683013843958918400,16.70391845703125,0.08940000087022781,-0.04099999740719795,0.20340000092983246
1683013843978918400,16.72391845703125,-0.009499999694526196,-0.09109999984502792,0.1152999997138977
1683013843998918400,16.74391845703125,-0.039400000125169754,-0.025200000032782555,0.06629999727010727
1683013844018918400,16.76391845703125,-0.03799999877810478,-0.04349999874830246,0.19359999895095825
1683013844038918400,16.78391845703125,-0.04580000042915344,-0.0016999999061226845,0.20309999585151672
1683013844058918400,16.80391845703125,-0.006599999964237213,0.03680000081658363,0.13439999520778656
1683013844078918400,16.82391845703125,0.07319999486207962,0.006399999838322401,0.18320000171661377
1683013844098918400,16.84391845703125,0.065700002014637,-0.03359999880194664,0.19269999861717224
1683013844118918400,16.86391845703125,0.026499999687075615,0.00279999990016222,0.1437000036239624
1683013844138918400,16.88391845703125,0.03629999980330467,-0.028199998661875725,0.1437000036239624
1683013844158918400,16.90391845703125,0.008299999870359898,-0.03929999843239784,0.14350000023841858
1683013844178918400,16.92391845703125,-0.0007999999797903001,-0.05089999735355377,0.13359999656677246
1683013844198918400,16.94391845703125,0.038599997758865356,-0.05159999802708626,0.16300000250339508
1683013844218918400,16.96391845703125,0.058799996972084045,-0.012600000016391277,0.2020999938249588
1683013844238918400,16.98391845703125,0.06839999556541443,-0.034299999475479126,0.15309999883174896
1683013844258918400,17.00391845703125,0.057099997997283936,-0.07679999619722366,0.11419999599456787
1683013844278918400,17.02391845703125,0.03529999777674675,-0.07889999449253082,0.12439999729394913
1683013844298918400,17.04391845703125,-0.01529999915510416,-0.09839999675750732,0.11479999870061874
1683013844318918400,17.06391845703125,-0.05379999801516533,-0.08879999816417694,0.08529999852180481
1683013844338918400,17.08391845703125,-0.013599999248981476,-0.09559999406337738,0.12429999560117722
1683013844358918400,17.10391845703125,0.026200000196695328,-0.03019999898970127,0.16339999437332153
1683013844378918400,17.12391845703125,0.07519999891519547,0.05379999801516533,0.1437000036239624
1683013844398918400,17.14391845703125,0.0738999992609024,-0.003000000026077032,0.30079999566078186
1683013844418918400,17.16391845703125,-0.022599998861551285,-0.0908999964594841,0.2809999883174896
1683013844438918400,17.18391845703125,-0.07069999724626541,-0.052799999713897705,0.12389999628067017
1683013844458918400,17.20391845703125,-0.032499998807907104,0.02589999884366989,0.08479999750852585
1683013844478918400,17.22391845703125,0.03610000014305115,0.06069999933242798,0.18289999663829803
1683013844498927900,17.243927978515625,0.026399999856948853,0.08410000056028366,0.13379999995231628
1683013844518918400,17.26391845703125,-0.02159999869763851,0.09309999644756317,0.11400000005960464
1683013844538918400,17.28391845703125,0.02239999920129776,0.023799998685717583,0.23089998960494995
1683013844558918400,17.30391845703125,0.02419999986886978,-0.044599998742341995,0.2207999974489212
1683013844578918400,17.32391845703125,0.042799998074769974,-0.026999998837709427,0.10329999774694443
1683013844598918400,17.34391845703125,0.1103999987244606,0.022499999031424522,0.1525000035762787
1683013844618918400,17.36391845703125,0.10319999605417252,0.014299999922513962,0.21089999377727509
1683013844638918400,17.38391845703125,0.08699999749660492,-0.05460000038146973,0.21040000021457672
1683013844658918400,17.40391845703125,0.065700002014637,-0.0681999996304512,0.08320000022649765
1683013844678918400,17.42391845703125,0.08139999955892563,-0.04189999774098396,0.06419999897480011
1683013844698918400,17.44391845703125,0.08959999680519104,-0.06079999729990959,0.16249999403953552
1683013844718918400,17.46391845703125,0.030299998819828033,-0.05929999798536301,0.1233999952673912
1683013844738918400,17.48391845703125,0.04829999804496765,0.009099999442696571,0.13349999487400055
1683013844758918400,17.50391845703125,0.019600000232458115,0.000699999975040555,0.2117999941110611
1683013844778918400,17.52391845703125,0.010400000028312206,-0.01860000006854534,0.16269999742507935
1683013844798918400,17.54391845703125,0.04809999838471413,-0.009599999524652958,0.12370000034570694
1683013844818918400,17.56391845703125,0.08669999986886978,-0.007999999448657036,0.16300000250339508
1683013844838918400,17.58391845703125,0.0771000012755394,0.012799999676644802,0.23160000145435333
1683013844858918400,17.60391845703125,0.027499999850988388,0.03179999813437462,0.1826999932527542
1683013844878918400,17.62391845703125,-0.0616999976336956,-0.020099999383091927,0.12399999797344208
1683013844898918400,17.64391845703125,-0.04470000043511391,-0.002300000051036477,0.13429999351501465
1683013844918918400,17.66391845703125,-0.026499999687075615,0.007899999618530273,0.1639000028371811
1683013844938918400,17.68391845703125,0.03319999948143959,0.01809999905526638,0.1930999904870987
1683013844958918400,17.70391845703125,0.054099999368190765,-0.02159999869763851,0.17329999804496765
1683013844978918400,17.72391845703125,0.07279999554157257,0.0071000000461936,0.17350000143051147
1683013844998918400,17.74391845703125,0.042399998754262924,0.006899999920278788,0.1735999882221222
1683013845018918400,17.76391845703125,-0.02589999884366989,-0.024399999529123306,0.13439999520778656
1683013845038918400,17.78391845703125,-0.015399999916553497,0.013799999840557575,0.15389999747276306
1683013845058918400,17.80391845703125,-0.0031999999191612005,0.024799998849630356,0.21229998767375946
1683013845078918400,17.82391845703125,0.035499997437000275,0.06449999660253525,0.1241999939084053
1683013845098918400,17.84391845703125,0.07259999960660934,-0.0072999997064471245,0.21279999613761902
1683013845118918400,17.86391845703125,0.08540000021457672,-0.0982000008225441,0.2515999972820282
1683013845138918400,17.88391845703125,0.09479999542236328,-0.0405999980866909,0.12409999966621399
1683013845158918400,17.90391845703125,0.10449999570846558,0.017500000074505806,0.14379999041557312
1683013845178918400,17.92391845703125,0.06469999998807907,0.06839999556541443,0.16349999606609344
1683013845198918400,17.94391845703125,-0.035099998116493225,0.047199998050928116,0.11479999870061874
1683013845218918400,17.96391845703125,-0.1322999894618988,-0.03529999777674675,0.12449999898672104
1683013845238918400,17.98391845703125,-0.06350000202655792,-0.028099998831748962,0.12449999898672104
1683013845258918400,18.00391845703125,0.015599999576807022,-0.03749999776482582,0.2125999927520752
1683013845278918400,18.02391845703125,0.0771000012755394,0.0013000000035390258,0.22199998795986176
1683013845298918400,18.04391845703125,0.10719999670982361,-0.010900000110268593,0.10419999808073044
1683013845318918400,18.06391845703125,0.09549999982118607,-0.04339999705553055,0.1143999993801117
1683013845338918400,18.08391845703125,0.025999998673796654,-0.06289999932050705,0.2223999947309494
1683013845358918400,18.10391845703125,-0.06269999593496323,-0.0037999998312443495,0.18320000171661377
1683013845378918400,18.12391845703125,-0.13159999251365662,0.013700000010430813,0.13429999351501465
1683013845398918400,18.14391845703125,-0.044999998062849045,0.02329999953508377,0.1444000005722046
1683013845418918400,18.16391845703125,0.0030999998562037945,0.00419999985024333,0.1445000022649765
1683013845438918400,18.18391845703125,0.02029999904334545,0.022599998861551285,0.14489999413490295
1683013845458918400,18.20391845703125,-0.017999999225139618,-0.03839999809861183,0.16439999639987946
1683013845478918400,18.22391845703125,-0.065700002014637,-0.06030000001192093,0.14459998905658722
1683013845498927900,18.243927978515625,-0.0348999984562397,-0.052299998700618744,0.1444000005722046
1683013845518918400,18.26391845703125,-0.014399999752640724,-0.013899999670684338,0.1834999918937683
1683013845538918400,18.28391845703125,0.07239999622106552,-0.003999999724328518,0.1445000022649765
1683013845558918400,18.30391845703125,0.02419999986886978,-0.024399999529123306,0.19339999556541443
1683013845578918400,18.32391845703125,-0.004299999680370092,-0.03519999980926514,0.12459999322891235
1683013845598918400,18.34391845703125,-0.02419999986886978,-0.0364999994635582,0.09529999643564224
1683013845618918400,18.36391845703125,0.01529999915510416,0.0023999998811632395,0.16380000114440918
1683013845638918400,18.38391845703125,0.02589999884366989,-0.026399999856948853,0.2126999944448471
1683013845658918400,18.40391845703125,0.01599999889731407,-0.0284000001847744,0.1833999902009964
1683013845678918400,18.42391845703125,0.04470000043511391,-0.02199999988079071,0.14429999887943268
1683013845698918400,18.44391845703125,0.05309999734163284,-0.032999999821186066,0.16419999301433563
1683013845718918400,18.46391845703125,0.05169999971985817,-0.023799998685717583,0.17419999837875366
1683013845738918400,18.48391845703125,-0.03839999809861183,-0.04559999704360962,0.11569999903440475
1683013845758918400,18.50391845703125,-0.05829999968409538,-0.019199999049305916,0.10599999874830246
1683013845778918400,18.52391845703125,-0.008799999952316284,0.029999999329447746,0.1647000014781952
1683013845798918400,18.54391845703125,0.0016999999061226845,0.04989999905228615,0.16459999978542328
1683013845818918400,18.56391845703125,0.010599999688565731,-0.02199999988079071,0.18439999222755432
1683013845838918400,18.58391845703125,0.01119999960064888,-0.07449999451637268,0.2529999911785126
1683013845858918400,18.60391845703125,0.02149999886751175,-0.056699998676776886,0.20389999449253082
1683013845878918400,18.62391845703125,0.03830000013113022,-0.008299999870359898,0.125900000333786
1683013845898918400,18.64391845703125,0.04389999806880951,0.07050000131130219,0.1265999972820282
1683013845918918400,18.66391845703125,-0.016599999740719795,0.010799999348819256,0.12690000236034393
1683013845938918400,18.68391845703125,-0.08669999986886978,0.00699999975040555,0.07819999754428864
1683013845958918400,18.70391845703125,-0.10559999942779541,-0.035499997437000275,0.14669999480247498
1683013845978918400,18.72391845703125,-0.01599999889731407,-0.06449999660253525,0.21519999206066132
1683013845998918400,18.74391845703125,0.02539999969303608,-0.025499999523162842,0.17559999227523804
1683013846018918400,18.76391845703125,0.06599999964237213,-0.016300000250339508,0.1459999978542328
1683013846038918400,18.78391845703125,0.08559999614953995,0.002899999963119626,0.19499999284744263
1683013846058918400,18.80391845703125,0.04829999804496765,-0.03749999776482582,0.16529999673366547
1683013846078918400,18.82391845703125,-0.029500000178813934,-0.03009999915957451,0.12600000202655792
1683013846098918400,18.84391845703125,-0.03879999741911888,-0.040699999779462814,0.125900000333786
1683013846118918400,18.86391845703125,-0.019199999049305916,-0.009399999864399433,0.16509999334812164
1683013846138918400,18.88391845703125,0.03909999877214432,0.02149999886751175,0.14559999108314514
1683013846158918400,18.90391845703125,0.03989999741315842,0.02239999920129776,0.16499999165534973
1683013846178918400,18.92391845703125,0.061400000005960464,0.03309999778866768,0.1647000014781952
1683013846198918400,18.94391845703125,0.055299997329711914,-0.0050999997183680534,0.21310000121593475
1683013846218918400,18.96391845703125,0.027699999511241913,-0.015199999324977398,0.16380000114440918
1683013846238918400,18.98391845703125,0.02719999849796295,0.013199999928474426,0.12469999492168427
1683013846258918400,19.00391845703125,0.03590000048279762,0.0038999998942017555,0.16409999132156372
1683013846278918400,19.02391845703125,0.016300000250339508,0.04309999942779541,0.16409999132156372
1683013846298918400,19.04391845703125,-0.0007999999797903001,0.013399999588727951,0.16369999945163727
1683013846318918400,19.06391845703125,0.04939999803900719,0.03319999948143959,0.17329999804496765
1683013846338918400,19.08391845703125,0.06839999556541443,0.03319999948143959,0.15379999577999115
1683013846358918400,19.10391845703125,0.04859999939799309,0.012000000104308128,0.13419999182224274
1683013846378918400,19.12391845703125,-0.01860000006854534,-0.028699999675154686,0.18310000002384186
1683013846398918400,19.14391845703125,-0.02669999934732914,0.028199998661875725,0.12399999797344208
1683013846418918400,19.16391845703125,-0.004799999762326479,0.027699999511241913,0.1922999918460846
1683013846438918400,19.18391845703125,0.06650000065565109,0.03790000081062317,0.21149998903274536
1683013846458918400,19.20391845703125,0.1256999969482422,0.03680000081658363,0.21139998733997345
1683013846478918400,19.22391845703125,0.047199998050928116,-0.013899999670684338,0.18199999630451202
1683013846498927900,19.243927978515625,-0.042399998754262924,-0.007599999662488699,0.05480000004172325
1683013846518918400,19.26391845703125,-0.0357000008225441,0.04739999771118164,0.10439999401569366
1683013846538918400,19.28391845703125,-0.0052999998442828655,-0.05989999696612358,0.33959999680519104
1683013846558918400,19.30391845703125,0.010300000198185444,-0.020999999716877937,0.26019999384880066
1683013846578918400,19.32391845703125,0.06939999759197235,0.03359999880194664,0.11319999396800995
1683013846598918400,19.34391845703125,0.0973999947309494,0.041999999433755875,0.1428000032901764
1683013846618918400,19.36391845703125,0.06560000032186508,0.011299999430775642,0.13339999318122864
1683013846638918400,19.38391845703125,-0.04439999908208847,0.03500000014901161,0.016200000420212746
1683013846658918400,19.40391845703125,-0.07939999550580978,0.019299998879432678,0.13329999148845673
1683013846678918400,19.42391845703125,-0.015699999406933784,-0.060999996960163116,0.2011999934911728
1683013846698918400,19.44391845703125,0.03280000016093254,-0.03449999913573265,0.14249999821186066
1683013846718918400,19.46391845703125,0.10979999601840973,-0.025999998673796654,0.12319999933242798
1683013846738918400,19.48391845703125,0.1395999938249588,-0.016099998727440834,0.20160000026226044
1683013846758918400,19.50391845703125,0.09269999712705612,-0.02709999866783619,0.2110999971628189
1683013846778918400,19.52391845703125,0.004900000058114529,-0.05009999871253967,0.12280000001192093
1683013846798918400,19.54391845703125,0.02279999852180481,-0.04349999874830246,0.12309999763965607
1683013846818918400,19.56391845703125,-0.009499999694526196,-0.023499999195337296,0.14319999516010284
1683013846838918400,19.58391845703125,0.0030999998562037945,0.015199999324977398,0.14429999887943268
1683013846858918400,19.60391845703125,0.060999996960163116,0.02369999885559082,0.12639999389648438
1683013846878918400,19.62391845703125,0.05549999698996544,0.012899999506771564,0.1469999998807907
1683013846898918400,19.64391845703125,0.06300000101327896,0.02149999886751175,0.17679999768733978
1683013846918918400,19.66391845703125,-0.003700000001117587,0.00029999998514540493,0.19609999656677246
1683013846938918400,19.68391845703125,-0.010499999858438969,0.017400000244379044,0.14669999480247498
1683013846958918400,19.70391845703125,0.021900000050663948,0.024799998849630356,0.15600000321865082
1683013846978918400,19.72391845703125,-0.0016999999061226845,-0.014999999664723873,0.20419999957084656
1683013846998918400,19.74391845703125,-0.02459999918937683,0.002099999925121665,0.17379999160766602
1683013847018918400,19.76391845703125,-0.011399999260902405,-0.0008999999845400453,0.14389999210834503
1683013847038918400,19.78391845703125,-0.07569999992847443,-0.04309999942779541,0.15299999713897705
1683013847058918400,19.80391845703125,-0.023499999195337296,-0.006799999624490738,0.13300000131130219
1683013847078918400,19.82391845703125,-0.010699999518692493,-0.03749999776482582,0.17180000245571136
1683013847098918400,19.84391845703125,-0.006199999712407589,-0.05859999731183052,0.17109999060630798
1683013847118918400,19.86391845703125,0.007199999876320362,-0.031199999153614044,0.1509999930858612
1683013847138918400,19.88391845703125,0.021199999377131462,-0.06189999729394913,0.16009999811649323
1683013847158918400,19.90391845703125,0.05469999834895134,-0.0729999989271164,0.14970000088214874
1683013847178918400,19.92391845703125,0.018699999898672104,-0.07429999858140945,0.1688999980688095
1683013847198918400,19.94391845703125,0.00039999998989515007,-0.03460000082850456,0.09019999951124191
1683013847218918400,19.96391845703125,0.02759999968111515,0.01269999984651804,0.1395999938249588
1683013847238918400,19.98391845703125,-0.004600000102072954,-0.14589999616146088,0.26759999990463257
1683013847258918400,20.00391845703125,0.003000000026077032,-0.08689999580383301,0.18949998915195465
1683013847278918400,20.02391845703125,0.10339999943971634,-0.016899999231100082,0.06309999525547028
1683013847298918400,20.04391845703125,0.14710000157356262,0.05609999969601631,0.14229999482631683
1683013847318918400,20.06391845703125,0.1362999975681305,0.032600000500679016,0.15209999680519104
1683013847338918400,20.08391845703125,0.04609999805688858,0.04319999739527702,0.015099999494850636
1683013847358918400,20.10391845703125,-0.0405999980866909,0.07129999995231628,0.0737999975681305
1683013847378918400,20.12391845703125,0.025200000032782555,0.06469999998807907,0.258899986743927
1683013847398918400,20.14391845703125,0.07129999995231628,0.04910000041127205,0.24789999425411224
1683013847418918400,20.16391845703125,0.05719999969005585,0.03920000046491623,0.1881999969482422
1683013847438918400,20.18391845703125,0.1143999993801117,0.05779999867081642,0.1394999921321869
1683013847458918400,20.20391845703125,0.12109999358654022,0.027899999171495438,0.16939999163150787
1683013847478918400,20.22391845703125,0.08810000121593475,0.007599999662488699,0.14059999585151672
1683013847498927900,20.243927978515625,0.01599999889731407,0.024699999019503593,0.12150000035762787
1683013847518918400,20.26391845703125,-0.025100000202655792,0.03319999948143959,0.20029999315738678
1683013847538918400,20.28391845703125,-0.02019999921321869,0.041999999433755875,0.19129998981952667
1683013847558918400,20.30391845703125,-0.013700000010430813,0.04099999740719795,0.19189999997615814
1683013847578918400,20.32391845703125,0.012299999594688416,0.010300000198185444,0.14339999854564667
1683013847598918400,20.34391845703125,-0.019600000232458115,-0.01119999960064888,0.10459999740123749
1683013847618918400,20.36391845703125,0.018699999898672104,-0.002199999988079071,0.12439999729394913
1683013847638918400,20.38391845703125,-0.007599999662488699,-0.011899999342858791,0.1826999932527542
1683013847658918400,20.40391845703125,-0.023799998685717583,0.006799999624490738,0.16259999573230743
1683013847678918400,20.42391845703125,-0.022499999031424522,-0.012999999336898327,0.20160000026226044
1683013847698918400,20.44391845703125,-0.15279999375343323,0.006199999712407589,0.12359999865293503
1683013847718918400,20.46391845703125,0.09449999779462814,-0.041600000113248825,0.1232999935746193
1683013847738918400,20.48391845703125,-0.05219999700784683,-0.05159999802708626,0.18209999799728394
1683013847758918400,20.50391845703125,-0.14239999651908875,0.0050999997183680534,0.12359999865293503
1683013847778918400,20.52391845703125,-0.03709999844431877,-0.054899998009204865,0.21069999039173126
1683013847798918400,20.54391845703125,-0.03309999778866768,-0.04519999772310257,0.14139999449253082
1683013847818918400,20.56391845703125,0.05549999698996544,-0.014800000004470348,0.20019999146461487
1683013847838918400,20.58391845703125,0.04580000042915344,-0.001999999862164259,0.22949999570846558
1683013847858918400,20.60391845703125,-0.01269999984651804,0.008299999870359898,0.17059999704360962
1683013847878918400,20.62391845703125,-0.05920000001788139,-0.010900000110268593,0.13099999725818634
1683013847898918400,20.64391845703125,-0.08630000054836273,0.03019999898970127,0.11099999397993088
1683013847918918400,20.66391845703125,-0.04820000007748604,0.022499999031424522,0.16990000009536743
1683013847938918400,20.68391845703125,-0.02029999904334545,-0.055299997329711914,0.219200000166893
1683013847958918400,20.70391845703125,0.018799999728798866,-0.025100000202655792,0.16030000150203705
1683013847978918400,20.72391845703125,0.08689999580383301,0.015599999576807022,0.16040000319480896
1683013847998918400,20.74391845703125,0.08639999479055405,0.03759999945759773,0.17019999027252197
1683013848018918400,20.76391845703125,0.04319999739527702,0.01860000006854534,0.121799997985363
1683013848038918400,20.78391845703125,-0.020399998873472214,0.04639999940991402,0.044199999421834946
1683013848058918400,20.80391845703125,-0.04989999905228615,-0.015099999494850636,0.093299999833107
1683013848078924800,20.8239248046875,-0.016999999061226845,-0.025999998673796654,0.1613999903202057
1683013848098918400,20.84391845703125,0.06189999729394913,-0.02589999884366989,0.16129998862743378
1683013848118918400,20.86391845703125,0.10209999978542328,-0.006000000052154064,0.16110000014305115
1683013848138918400,20.88391845703125,0.11180000007152557,-0.015399999916553497,0.17099998891353607
1683013848158918400,20.90391845703125,0.09989999979734421,-0.024899998679757118,0.1516999900341034
1683013848178918400,20.92391845703125,0.04829999804496765,-0.043699998408555984,0.13239999115467072
1683013848198918400,20.94391845703125,-0.0018999999156221747,-0.003599999938160181,0.17180000245571136
1683013848218918400,20.96391845703125,-0.022599998861551285,0.027300000190734863,0.171999990940094
1683013848238918400,20.98391845703125,-0.005499999970197678,0.04749999940395355,0.1232999935746193
1683013848258918400,21.00391845703125,0.03959999978542328,0.03839999809861183,0.12389999628067017
1683013848278918400,21.02391845703125,0.02759999968111515,0.03889999911189079,0.16349999606609344
1683013848298918400,21.04391845703125,-0.011699999682605267,0.01899999938905239,0.19290000200271606
1683013848318918400,21.06391845703125,-0.03999999910593033,0.027400000020861626,0.19280000030994415
1683013848338918400,21.08391845703125,0.009099999442696571,0.0551999993622303,0.18299999833106995
1683013848358918400,21.10391845703125,0.0575999990105629,0.024699999019503593,0.20269998908042908
1683013848378918400,21.12391845703125,0.044999998062849045,-0.02589999884366989,0.1542000025510788
1683013848398918400,21.14391845703125,-0.036399997770786285,-0.029099998995661736,0.12529999017715454
1683013848418918400,21.16391845703125,-0.05639999732375145,-0.001999999862164259,0.15479999780654907
1683013848438918400,21.18391845703125,-0.03669999912381172,0.01759999990463257,0.20389999449253082
1683013848458918400,21.20391845703125,-0.02759999968111515,0.0064999996684491634,0.18439999222755432
1683013848478918400,21.22391845703125,0.010400000028312206,-0.025999998673796654,0.1356000006198883
1683013848498927900,21.243927978515625,-0.00039999998989515007,-0.04809999838471413,0.12600000202655792
1683013848518918400,21.26391845703125,0.019099999219179153,-0.02979999966919422,0.13589999079704285
1683013848538918400,21.28391845703125,0.020800000056624413,0.00930000003427267,0.15519998967647552
1683013848558918400,21.30391845703125,0.0031999999191612005,0.00009999999747378752,0.19409999251365662
1683013848578918400,21.32391845703125,0.032600000500679016,-0.0009999999310821295,0.15489999949932098
1683013848598918400,21.34391845703125,0.031099999323487282,0.008200000040233135,0.1454000025987625
1683013848618918400,21.36391845703125,0.01939999870955944,0.03669999912381172,0.13589999079704285
1683013848638918400,21.38391845703125,0.02889999933540821,-0.014999999664723873,0.21449999511241913
1683013848658918400,21.40391845703125,0.03229999914765358,-0.07639999687671661,0.2531999945640564
1683013848678918400,21.42391845703125,0.041600000113248825,-0.04919999837875366,0.09640000015497208
1683013848698918400,21.44391845703125,0.06650000065565109,0.028299998492002487,0.08739999681711197
1683013848718918400,21.46391845703125,0.06430000066757202,0.07970000058412552,0.13669998943805695
1683013848738918400,21.48391845703125,-0.024299999698996544,0.030899999663233757,0.12700000405311584
1683013848758918400,21.50391845703125,-0.054099999368190765,0.04769999906420708,0.09769999980926514
1683013848778918400,21.52391845703125,-0.03319999948143959,-0.011799999512732029,0.17589999735355377
1683013848798918400,21.54391845703125,0.04580000042915344,-0.011099999770522118,0.20520000159740448
1683013848818918400,21.56391845703125,0.10379999876022339,0.008700000122189522,0.16609999537467957
1683013848838918400,21.58391845703125,0.11029999703168869,-0.031300000846385956,0.10779999941587448
1683013848858918400,21.60391845703125,0.11490000039339066,-0.03240000084042549,0.1282999962568283
1683013848878918400,21.62391845703125,0.06319999694824219,-0.01269999984651804,0.1581999957561493
1683013848898918400,21.64391845703125,0.005200000014156103,0.025699999183416367,0.1875
1683013848918918400,21.66391845703125,-0.012199999764561653,0.004600000102072954,0.19699999690055847
1683013848938918400,21.68391845703125,0.0625,0.032999999821186066,0.1289999932050705
1683013848958918400,21.70391845703125,0.06560000032186508,0.02239999920129776,0.13009999692440033
1683013848978918400,21.72391845703125,0.0026000000070780516,0.002099999925121665,0.15039999783039093
1683013848998918400,21.74391845703125,-0.06749999523162842,0.019700000062584877,0.12119999527931213
1683013849018918400,21.76391845703125,-0.037699997425079346,0.028699999675154686,0.1800999939441681
1683013849038918400,21.78391845703125,0.020999999716877937,0.029899999499320984,0.21930000185966492
1683013849058918400,21.80391845703125,0.05810000002384186,0.019999999552965164,0.17059999704360962
1683013849078926300,21.82392626953125,0.05389999970793724,0.028599999845027924,0.13210000097751617
1683013849098918400,21.84391845703125,0.0210999995470047,0.02850000001490116,0.14239999651908875
1683013849118918400,21.86391845703125,-0.017400000244379044,0.04859999939799309,0.19129998981952667
1683013849138918400,21.88391845703125,-0.06449999660253525,0.04779999703168869,0.1615999937057495
1683013849158921500,21.90392138671875,0.003700000001117587,0.03680000081658363,0.19110000133514404
1683013849178918400,21.92391845703125,0.05130000039935112,0.0058999997563660145,0.210999995470047
1683013849198918400,21.94391845703125,0.05819999799132347,-0.0364999994635582,0.16259999573230743
1683013849218918400,21.96391845703125,0.04659999907016754,-0.07009999454021454,0.12370000034570694
1683013849238918400,21.98391845703125,0.054999999701976776,-0.06239999830722809,0.13379999995231628
1683013849258918400,22.00391845703125,0.06419999897480011,-0.06260000169277191,0.16339999437332153
1683013849278918400,22.02391845703125,0.05570000037550926,-0.033900000154972076,0.18279999494552612
1683013849298918400,22.04391845703125,0.010799999348819256,-0.0052999998442828655,0.15269999206066132
1683013849318918400,22.06391845703125,-0.026200000196695328,-0.01640000008046627,0.10339999943971634
1683013849338918400,22.08391845703125,-0.01599999889731407,-0.08760000020265579,0.23079998791217804
1683013849358918400,22.10391845703125,0.0142000000923872,-0.14509999752044678,0.24049998819828033
1683013849378918400,22.12391845703125,0.04389999806880951,-0.035499997437000275,0.12269999831914902
1683013849398918400,22.14391845703125,0.02449999935925007,0.055299997329711914,0.1127999946475029
1683013849418918400,22.16391845703125,-0.01209999993443489,0.0689999982714653,0.14169999957084656
1683013849438918400,22.18391845703125,-0.11580000072717667,0.051500000059604645,0.1605999916791916
1683013849458918400,22.20391845703125,-0.13120000064373016,0.0013000000035390258,0.13050000369548798
1683013849478918400,22.22391845703125,-0.05859999731183052,0.0008999999845400453,0.15929999947547913
1683013849498918400,22.24391845703125,-0.033799998462200165,-0.0066999997943639755,0.20739999413490295
1683013849518918400,22.26391845703125,0.0004999999655410647,0.054899998009204865,0.1476999968290329
1683013849538918400,22.28391845703125,0.07129999995231628,0.08749999850988388,0.2158999890089035
1683013849558918400,22.30391845703125,0.08489999920129776,0.05989999696612358,0.23489999771118164
1683013849578918400,22.32391845703125,-0.1348000019788742,-0.11589999496936798,0.2044999897480011
1683013849598918400,22.34391845703125,0.0559999980032444,0.15519998967647552,0.0778999999165535
1683013849618918400,22.36391845703125,0.0876999944448471,0.05339999869465828,0.08909999579191208
1683013849638918400,22.38391845703125,0.05779999867081642,-0.02070000022649765,0.17729999125003815
1683013849658918400,22.40391845703125,0.1103999987244606,0.04729999974370003,0.12770000100135803
1683013849678918400,22.42391845703125,0.056199997663497925,0.006300000008195639,0.11719999462366104
1683013849698918400,22.44391845703125,0.0794999971985817,0.016999999061226845,0.20479999482631683
1683013849718918400,22.46391845703125,0.10929999500513077,0.008599999360740185,0.21449999511241913
1683013849738918400,22.48391845703125,0.08779999613761902,-0.00139999995008111,0.1363999992609024
1683013849758918400,22.50391845703125,0.06830000132322311,-0.003599999938160181,0.1363999992609024
1683013849778918400,22.52391845703125,0.0013000000035390258,-0.035499997437000275,0.12639999389648438
1683013849798918400,22.54391845703125,-0.006199999712407589,-0.04749999940395355,0.11629999428987503
1683013849818918400,22.56391845703125,0.022099999710917473,-0.008999999612569809,0.15569999814033508
1683013849838918400,22.58391845703125,0.05819999799132347,-0.018199998885393143,0.14639998972415924
1683013849858918400,22.60391845703125,0.026099998503923416,-0.04769999906420708,0.12719999253749847
1683013849878918400,22.62391845703125,-0.004600000102072954,-0.0478999987244606,0.09809999912977219
1683013849898918400,22.64391845703125,-0.0044999998062849045,-0.03659999743103981,0.1469999998807907
1683013849918918400,22.66391845703125,0.006099999882280827,-0.023899998515844345,0.1762000024318695
1683013849938918400,22.68391845703125,0.006899999920278788,0.026999998837709427,0.19569998979568481
1683013849958918400,22.70391845703125,-0.002099999925121665,-0.0502999983727932,0.17589999735355377
1683013849978918400,22.72391845703125,-0.041600000113248825,0.029899999499320984,0.13669998943805695
1683013849998918400,22.74391845703125,-0.05249999836087227,0.04230000078678131,0.14659999310970306
1683013850018918400,22.76391845703125,0.024000000208616257,0.023499999195337296,0.2644999921321869
1683013850038918400,22.78391845703125,-0.03280000016093254,-0.093299999833107,0.2935999929904938
1683013850058918400,22.80391845703125,-0.0405999980866909,-0.005699999630451202,0.11679999530315399
1683013850078918400,22.82391845703125,0.015799999237060547,0.05269999802112579,0.05829999968409538
1683013850098918400,22.84391845703125,0.07449999451637268,0.08579999953508377,0.17589999735355377
1683013850118918400,22.86391845703125,0.02579999901354313,0.06929999589920044,0.15619999170303345
1683013850138918400,22.88391845703125,-0.05040000006556511,0.0364999994635582,0.04809999838471413
1683013850158918400,22.90391845703125,-0.024899998679757118,0.03370000049471855,0.1551000028848648
1683013850178918400,22.92391845703125,0.04769999906420708,-0.032999999821186066,0.2524999976158142
1683013850198918400,22.94391845703125,0.10869999974966049,0.06539999693632126,0.16380000114440918
1683013850218918400,22.96391845703125,0.1087999939918518,0.05509999766945839,0.13439999520778656
1683013850238918400,22.98391845703125,0.09009999781847,-0.00559999980032444,0.17350000143051147
1683013850258918400,23.00391845703125,0.0803999975323677,-0.03839999809861183,0.10499999672174454
1683013850278918400,23.02391845703125,0.019700000062584877,-0.04189999774098396,0.056299999356269836
1683013850298918400,23.04391845703125,0.010199999436736107,-0.013599999248981476,0.10529999434947968
1683013850318918400,23.06391845703125,0.060099996626377106,-0.021399999037384987,0.19339999556541443
1683013850338918400,23.08391845703125,0.08949999511241913,0.008799999952316284,0.1542000025510788
1683013850358918400,23.10391845703125,0.07979999482631683,0.007499999832361937,0.1444000005722046
1683013850378918400,23.12391845703125,0.05040000006556511,-0.04230000078678131,0.12479999661445618
1683013850398918400,23.14391845703125,0,-0.013100000098347664,0.125
1683013850418918400,23.16391845703125,-0.00969999935477972,0.017799999564886093,0.17399999499320984
1683013850438918400,23.18391845703125,0.010999999940395355,0.060099996626377106,0.22280000150203705
1683013850458918400,23.20391845703125,0.04129999876022339,0.04179999977350235,0.1833999902009964
1683013850478918400,23.22391845703125,0.04039999842643738,0.031199999153614044,0.14429999887943268
1683013850498918400,23.24391845703125,0.04010000079870224,0.040300000458955765,0.18359999358654022
1683013850518918400,23.26391845703125,-0.03799999877810478,-0.01939999870955944,0.1639999896287918
1683013850538918400,23.28391845703125,-0.0471000000834465,0.008299999870359898,0.12469999492168427
1683013850558918400,23.30391845703125,0.0013000000035390258,0.0284000001847744,0.14429999887943268
1683013850578918400,23.32391845703125,0.04169999808073044,0.020899999886751175,0.21279999613761902
1683013850598918400,23.34391845703125,0.08259999752044678,0.041099999099969864,0.19290000200271606
1683013850618918400,23.36391845703125,0.09239999949932098,0.0005999999702908099,0.17329999804496765
1683013850638918400,23.38391845703125,0.015199999324977398,-0.030499998480081558,0.15349999070167542
1683013850658918400,23.40391845703125,-0.0032999999821186066,0.027899999171495438,0.12389999628067017
1683013850678918400,23.42391845703125,0.005200000014156103,0.04859999939799309,0.12409999966621399
1683013850698918400,23.44391845703125,0.041099999099969864,0.027300000190734863,0.24229998886585236
1683013850718918400,23.46391845703125,0.05269999802112579,-0.05260000005364418,0.3008999824523926
1683013850738918400,23.48391845703125,0.042899999767541885,-0.026200000196695328,0.11469999700784683
1683013850758918400,23.50391845703125,0.08909999579191208,0.03879999741911888,0.10539999604225159
1683013850778918400,23.52391845703125,0.0851999968290329,0.02070000022649765,0.12559999525547028
1683013850798918400,23.54391845703125,-0.007599999662488699,0.03019999898970127,0.06749999523162842
1683013850818918400,23.56391845703125,-0.09719999879598618,0.027799999341368675,0.03839999809861183
1683013850838918400,23.58391845703125,-0.09359999746084213,-0.010400000028312206,0.18490000069141388
1683013850858918400,23.60391845703125,-0.0024999999441206455,0.012600000016391277,0.272599995136261
1683013850878918400,23.62391845703125,0.07699999958276749,0.014599999412894249,0.203699991106987
1683013850898918400,23.64391845703125,0.1256999969482422,0.02410000003874302,0.12529999017715454
1683013850918918400,23.66391845703125,0.11509999632835388,-0.006000000052154064,0.19409999251365662
1683013850938918400,23.68391845703125,0.055799998342990875,-0.03539999946951866,0.13539999723434448
1683013850958918400,23.70391845703125,-0.05480000004172325,0.012399999424815178,0.0965999960899353
1683013850978918400,23.72391845703125,-0.08339999616146088,0.022499999031424522,0.17489999532699585
1683013850998918400,23.74391845703125,-0.10109999775886536,0.004999999888241291,0.18439999222755432
1683013851018918400,23.76391845703125,-0.03269999846816063,0.004399999976158142,0.11580000072717667
1683013851038918400,23.78391845703125,0.08379999548196793,-0.014800000004470348,0.1454000025987625
1683013851058918400,23.80391845703125,0.08489999920129776,-0.042899999767541885,0.22360000014305115
1683013851078918400,23.82391845703125,0.06759999692440033,-0.04339999705553055,0.15459999442100525
1683013851098918400,23.84391845703125,0.018699999898672104,-0.044099997729063034,0.11539999395608902
1683013851118918400,23.86391845703125,-0.0005999999702908099,-0.033299997448921204,0.15459999442100525
1683013851138918400,23.88391845703125,0.009499999694526196,-0.02149999886751175,0.20349998772144318
1683013851158918400,23.90391845703125,-0.0008999999845400453,-0.02979999966919422,0.16429999470710754
1683013851178918400,23.92391845703125,-0.0210999995470047,-0.019899999722838402,0.10559999942779541
1683013851198918400,23.94391845703125,0.008799999952316284,0.000699999975040555,0.16429999470710754
1683013851218918400,23.96391845703125,0.05790000036358833,-0.01640000008046627,0.18379999697208405
1683013851238918400,23.98391845703125,0.05810000002384186,-0.025699999183416367,0.16419999301433563
1683013851258918400,24.00391845703125,0.07589999586343765,-0.0058999997563660145,0.12520000338554382
1683013851278918400,24.02391845703125,0.035499997437000275,-0.004799999762326479,0.14499999582767487
1683013851298918400,24.04391845703125,-0.0032999999821186066,-0.0031999999191612005,0.17430000007152557
1683013851318918400,24.06391845703125,-0.001500000013038516,-0.0018999999156221747,0.16419999301433563
1683013851338918400,24.08391845703125,-0.020600000396370888,0.02850000001490116,0.12489999830722809
1683013851358918400,24.10391845703125,0.025699999183416367,0.03989999741315842,0.12520000338554382
1683013851378918400,24.12391845703125,0.08139999955892563,-0.047599997371435165,0.23359999060630798
1683013851398918400,24.14391845703125,0.05309999734163284,-0.08579999953508377,0.20399999618530273
1683013851418918400,24.16391845703125,0.051899999380111694,0.0421999990940094,0.16489998996257782
1683013851438918400,24.18391845703125,0.031700000166893005,0.06399999558925629,0.19439999759197235
1683013851458918400,24.20391845703125,0.0005999999702908099,0.045499999076128006,0.12600000202655792
1683013851478918400,24.22391845703125,-0.004999999888241291,0.025200000032782555,0.0778999999165535
1683013851498918400,24.24391845703125,-0.08559999614953995,-0.044999998062849045,0.11749999970197678
1683013851518918400,24.26391845703125,-0.05590000003576279,-0.015399999916553497,0.1665000021457672
