time,seconds_elapsed,z,y,x
1682994393949469000,0.052468994140625,-0.06309999525547028,0.008599999360740185,0.02879999950528145
1682994393969475300,0.072475341796875,-0.06309999525547028,0.008599999360740185,0.02879999950528145
1682994393989467400,0.09246728515625,-0.08460000157356262,0.0038999998942017555,-0.001999999862164259
1682994394009467400,0.11246728515625,-0.09439999610185623,-0.0052999998442828655,-0.001999999862164259
1682994394029467400,0.13246728515625,-0.08449999988079071,-0.02199999988079071,-0.019600000232458115
1682994394049467400,0.15246728515625,-0.094200000166893,-0.01860000006854534,-0.017400000244379044
1682994394069467400,0.17246728515625,-0.11369999498128891,-0.01549999974668026,-0.01549999974668026
1682994394089467400,0.19246728515625,-0.10359999537467957,-0.020399998873472214,-0.0050999997183680534
1682994394109467400,0.21246728515625,-0.07369999587535858,-0.03790000081062317,-0.004399999976158142
1682994394129467400,0.23246728515625,-0.06359999626874924,-0.020399998873472214,-0.010999999940395355
1682994394149467400,0.25246728515625,-0.11270000040531158,-0.0026000000070780516,-0.020800000056624413
1682994394169467400,0.27246728515625,-0.1030999943614006,0.022699998691678047,-0.009800000116229057
1682994394189467400,0.29246728515625,-0.08329999446868896,-0.003999999724328518,-0.0005999999702908099
1682994394209467400,0.31246728515625,-0.07349999994039536,0.004999999888241291,0.006099999882280827
1682994394229467400,0.33246728515625,-0.06390000134706497,0.011599999852478504,-0.003399999812245369
1682994394249467400,0.35246728515625,-0.07400000095367432,0.01719999872148037,-0.018400000408291817
1682994394269467400,0.37246728515625,-0.07409999519586563,0.0139999995008111,0.007999999448657036
1682994394289467400,0.39246728515625,-0.08389999717473984,0.011899999342858791,0.013100000098347664
1682994394309467400,0.41246728515625,-0.03500000014901161,0.00839999970048666,-0.004699999932199717
1682994394329467400,0.43246728515625,-0.025100000202655792,-0.012299999594688416,-0.0210999995470047
1682994394349467400,0.45246728515625,-0.044599998742341995,-0.0011999999405816197,0.006399999838322401
1682994394369467400,0.47246728515625,-0.09369999915361404,-0.021199999377131462,0.025599999353289604
1682994394389467400,0.49246728515625,-0.07400000095367432,0.006799999624490738,0.0284000001847744
1682994394409467400,0.51246728515625,-0.06399999558925629,-0.009200000204145908,-0.0008999999845400453
1682994394429467400,0.53246728515625,-0.05419999733567238,0.008799999952316284,-0.0008999999845400453
1682994394449467400,0.55246728515625,-0.02499999850988388,0.006199999712407589,-0.0064999996684491634
1682994394469467400,0.57246728515625,-0.05460000038146973,0.005399999674409628,-0.012399999424815178
1682994394489467400,0.59246728515625,-0.06449999660253525,0.004799999762326479,-0.010099999606609344
1682994394509467400,0.61246728515625,-0.07429999858140945,-0.0032999999821186066,-0.016200000420212746
1682994394529467400,0.63246728515625,-0.035099998116493225,-0.0017999999690800905,-0.01119999960064888
1682994394549467400,0.65246728515625,-0.04490000009536743,0.006399999838322401,0.012600000016391277
1682994394569467400,0.67246728515625,-0.044599998742341995,-0.009099999442696571,0.008599999360740185
1682994394589467400,0.69246728515625,-0.044499997049570084,-0.009599999524652958,0.016099998727440834
1682994394609467400,0.71246728515625,-0.0640999972820282,-0.02929999865591526,-0.005200000014156103
1682994394629467400,0.73246728515625,-0.04399999976158142,-0.012899999506771564,0.016300000250339508
1682994394649467400,0.75246728515625,-0.04360000044107437,-0.015699999406933784,0.0044999998062849045
1682994394669467400,0.77246728515625,-0.03399999812245369,0.00279999990016222,-0.017099998891353607
1682994394689467400,0.79246728515625,-0.06359999626874924,0.009399999864399433,-0.026999998837709427
1682994394709467400,0.81246728515625,-0.04399999976158142,0,0.0013000000035390258
1682994394729467400,0.83246728515625,-0.044199999421834946,0.014999999664723873,-0.006599999964237213
1682994394749467400,0.85246728515625,-0.03439999744296074,0.004299999680370092,0.0017999999690800905
1682994394769467400,0.87246728515625,-0.044599998742341995,0.025499999523162842,0.0007999999797903001
1682994394789467400,0.89246728515625,-0.05469999834895134,0.01979999989271164,0.00019999999494757503
1682994394809467400,0.91246728515625,-0.0348999984562397,-0.006000000052154064,-0.00019999999494757503
1682994394829467400,0.93246728515625,-0.025100000202655792,-0.003399999812245369,-0.012899999506771564
1682994394849467400,0.95246728515625,-0.034699998795986176,-0.008899999782443047,-0.002699999837204814
1682994394869467400,0.97246728515625,-0.03439999744296074,-0.01269999984651804,-0.002199999988079071
1682994394889467400,0.99246728515625,-0.03399999812245369,-0.01549999974668026,0.011599999852478504
1682994394909467400,1.01246728515625,-0.03399999812245369,0.023499999195337296,0.011099999770522118
1682994394929467400,1.03246728515625,-0.033900000154972076,-0.015599999576807022,0.010699999518692493
1682994394949467400,1.05246728515625,-0.02410000003874302,0.013599999248981476,0.020099999383091927
1682994394969467400,1.07246728515625,-0.02410000003874302,0.02329999953508377,0.010099999606609344
1682994394989467400,1.09246728515625,-0.043800000101327896,0.03269999846816063,0.009800000116229057
1682994395009467400,1.11246728515625,-0.03399999812245369,0.02239999920129776,0.00969999935477972
1682994395029467400,1.13246728515625,-0.014399999752640724,0.04169999808073044,-0.01939999870955944
1682994395049467400,1.15246728515625,-0.014399999752640724,0.03179999813437462,-0.019299998879432678
1682994395069467400,1.17246728515625,-0.03399999812245369,0.02149999886751175,-0.019299998879432678
1682994395089467400,1.19246728515625,-0.043800000101327896,0.031199999153614044,0.00009999999747378752
1682994395109469000,1.212468994140625,-0.02419999986886978,0.021399999037384987,-0.009800000116229057
1682994395129467400,1.23246728515625,-0.03399999812245369,0.0016999999061226845,0.01939999870955944
1682994395149467400,1.25246728515625,-0.06379999965429306,-0.0071000000461936,0.046699997037649155
1682994395169467400,1.27246728515625,-0.03460000082850456,0.008499999530613422,0.025999998673796654
1682994395189467400,1.29246728515625,0.004399999976158142,0.0064999996684491634,-0.012999999336898327
1682994395209467400,1.31246728515625,-0.0052999998442828655,0.005699999630451202,-0.011799999512732029
1682994395229467400,1.33246728515625,-0.03480000048875809,-0.014299999922513962,-0.02969999983906746
1682994395249467400,1.35246728515625,-0.054499998688697815,-0.01489999983459711,-0.018400000408291817
1682994395269467400,1.37246728515625,-0.04479999840259552,0.03269999846816063,0.011399999260902405
1682994395289467400,1.39246728515625,-0.045499999076128006,0.05389999970793724,0.015399999916553497
1682994395309467400,1.41246728515625,-0.016999999061226845,0.027699999511241913,-0.01489999983459711
1682994395329467400,1.43246728515625,-0.007199999876320362,-0.0064999996684491634,-0.013799999840557575
1682994395349467400,1.45246728515625,-0.04600000008940697,-0.043699998408555984,-0.01850000023841858
1682994395369467400,1.47246728515625,-0.045399997383356094,-0.03999999910593033,0.0005999999702908099
1682994395389469000,1.492468994140625,-0.006000000052154064,-0.01899999938905239,0.01599999889731407
1682994395409467400,1.51246728515625,-0.0058999997563660145,-0.008200000040233135,0.012399999424815178
1682994395429467400,1.53246728515625,-0.005799999926239252,0.02149999886751175,0.009499999694526196
1682994395449467400,1.55246728515625,-0.016200000420212746,0.019700000062584877,-0.0064999996684491634
1682994395469469000,1.572468994140625,-0.02589999884366989,0.021800000220537186,-0.019199999049305916
1682994395489467400,1.59246728515625,-0.035599999129772186,0.0032999999821186066,-0.011799999512732029
1682994395509467400,1.61246728515625,-0.01589999906718731,-0.006000000052154064,-0.04270000010728836
1682994395529467400,1.63246728515625,0.013399999588727951,-0.016300000250339508,-0.07189999520778656
1682994395549467400,1.65246728515625,0.032899998128414154,-0.027400000020861626,-0.09019999951124191
1682994395569467400,1.67246728515625,0.03269999846816063,-0.040699999779462814,-0.14749999344348907
1682994395589467400,1.69246728515625,0.08129999786615372,-0.09799999743700027,-0.21379999816417694
1682994395609467400,1.71246728515625,-0.15459999442100525,0.0142000000923872,-0.21539999544620514
1682994395629467400,1.73246728515625,-0.19429999589920044,0.11809999495744705,-0.025999998673796654
1682994395649467400,1.75246728515625,-0.09609999507665634,0.15619999170303345,0.06669999659061432
1682994395669467400,1.77246728515625,0.11989999562501907,0.07599999755620956,0.09479999542236328
1682994395689467400,1.79246728515625,0.17889998853206635,-0.05829999968409538,0.08399999886751175
1682994395709467400,1.81246728515625,0.031300000846385956,-0.05939999967813492,-0.002899999963119626
1682994395729467400,1.83246728515625,-0.07739999890327454,-0.0010999999940395355,-0.029199998825788498
1682994395749467400,1.85246728515625,-0.156700000166893,0.028999999165534973,-0.055399999022483826
1682994395769467400,1.87246728515625,-0.16699999570846558,-0.011500000022351742,0.014599999412894249
1682994395789467400,1.89246728515625,-0.14739999175071716,0.017099998891353607,0.09189999848604202
1682994395809467400,1.91246728515625,0,-0.02539999969303608,0.15969999134540558
1682994395829467400,1.93246728515625,0.05900000035762787,-0.09860000014305115,0.14010000228881836
1682994395849467400,1.95246728515625,0.04899999871850014,-0.09160000085830688,0.06239999830722809
1682994395869467400,1.97246728515625,-0.04939999803900719,-0.013499999418854713,-0.002899999963119626
1682994395889467400,1.99246728515625,-0.14790000021457672,0.07490000128746033,0.03839999809861183
1682994395909467400,2.01246728515625,-0.14800000190734863,0.04169999808073044,0.07859999686479568
1682994395929467400,2.03246728515625,-0.07909999787807465,0.002899999963119626,0.058399997651576996
1682994395949467400,2.05246728515625,0.008999999612569809,-0.05559999868273735,0.02070000022649765
1682994395969467400,2.07246728515625,-0.020600000396370888,-0.04050000011920929,-0.033900000154972076
1682994395989467400,2.09246728515625,-0.060099996626377106,0.02149999886751175,-0.011299999430775642
1682994396009467400,2.11246728515625,-0.07989999651908875,0.0674000009894371,-0.010199999436736107
1682994396029467400,2.13246728515625,-0.0210999995470047,0.014800000004470348,0.006799999624490738
1682994396049467400,2.15246728515625,-0.020999999716877937,0.006399999838322401,-0.012999999336898327
1682994396069467400,2.17246728515625,-0.08980000019073486,0.01269999984651804,0.0551999993622303
1682994396089467400,2.19246728515625,-0.07029999792575836,0.03889999911189079,0.035099998116493225
1682994396109467400,2.21246728515625,-0.031099999323487282,0.04839999973773956,0.016699999570846558
1682994396129467400,2.23246728515625,-0.021299999207258224,-0.01850000023841858,0.018799999728798866
1682994396149467400,2.25246728515625,-0.05069999769330025,-0.008499999530613422,0.05999999865889549
1682994396169467400,2.27246728515625,-0.07039999961853027,-0.010199999436736107,0.0510999970138073
1682994396189467400,2.29246728515625,-0.05089999735355377,-0.021800000220537186,0.02199999988079071
1682994396209467400,2.31246728515625,-0.031300000846385956,-0.03189999982714653,0.022499999031424522
1682994396229467400,2.33246728515625,-0.041099999099969864,-0.02149999886751175,0.042899999767541885
1682994396249467400,2.35246728515625,-0.041099999099969864,-0.010300000198185444,-0.014599999412894249
1682994396269467400,2.37246728515625,-0.04099999740719795,-0.02850000001490116,-0.033299997448921204
1682994396289467400,2.39246728515625,-0.021399999037384987,-0.03749999776482582,-0.03229999914765358
1682994396309467400,2.41246728515625,-0.041099999099969864,-0.04769999906420708,-0.04129999876022339
1682994396329467400,2.43246728515625,-0.04099999740719795,-0.02279999852180481,-0.033299997448921204
1682994396349467400,2.45246728515625,-0.05079999938607216,-0.004100000020116568,-0.01589999906718731
1682994396369467400,2.47246728515625,-0.04099999740719795,-0.014399999752640724,0.010900000110268593
1682994396389467400,2.49246728515625,-0.031199999153614044,0.003599999938160181,0.04829999804496765
1682994396409467400,2.51246728515625,-0.031300000846385956,0.010900000110268593,0.06689999997615814
1682994396429467400,2.53246728515625,-0.041099999099969864,-0.010900000110268593,0.04699999839067459
1682994396449467400,2.55246728515625,-0.06079999729990959,0.01769999973475933,0.056699998676776886
1682994396469467400,2.57246728515625,-0.0705999955534935,0.01679999940097332,0.02759999968111515
1682994396489467400,2.59246728515625,-0.011899999342858791,-0.004999999888241291,-0.030299998819828033
1682994396509467400,2.61246728515625,-0.002199999988079071,-0.01759999990463257,-0.03879999741911888
1682994396529467400,2.63246728515625,-0.012000000104308128,0.010300000198185444,-0.05849999934434891
1682994396549467400,2.65246728515625,-0.012999999336898327,0.05249999836087227,-0.06650000065565109
1682994396569467400,2.67246728515625,-0.052299998700618744,0.019600000232458115,0.0016999999061226845
1682994396589467400,2.69246728515625,-0.04230000078678131,0.0038999998942017555,-0.003000000026077032
1682994396609467400,2.71246728515625,-0.01269999984651804,0.025999998673796654,0.002099999925121665
1682994396629467400,2.73246728515625,-0.02239999920129776,0.05639999732375145,0.027300000190734863
1682994396649467400,2.75246728515625,-0.01249999925494194,0.05689999833703041,0.043299999088048935
1682994396669467400,2.77246728515625,-0.04189999774098396,0.01860000006854534,0.040699999779462814
1682994396689467400,2.79246728515625,-0.04179999977350235,-0.020099999383091927,0.00930000003427267
1682994396709467400,2.81246728515625,-0.022099999710917473,-0.014699999243021011,-0.007499999832361937
1682994396729467400,2.83246728515625,-0.04149999842047691,-0.02669999934732914,-0.013700000010430813
1682994396749467400,2.85246728515625,-0.02159999869763851,-0.02630000002682209,-0.003399999812245369
1682994396769467400,2.87246728515625,-0.001999999862164259,-0.030299998819828033,-0.016699999570846558
1682994396789467400,2.89246728515625,-0.011899999342858791,-0.05329999700188637,-0.02929999865591526
1682994396809467400,2.91246728515625,-0.03150000050663948,-0.046799998730421066,0.006899999920278788
1682994396829467400,2.93246728515625,-0.03150000050663948,-0.03929999843239784,0.013700000010430813
1682994396849467400,2.95246728515625,-0.011899999342858791,-0.0210999995470047,0.050599999725818634
1682994396869467400,2.97246728515625,-0.002099999925121665,0.006799999624490738,0.03889999911189079
1682994396889467400,2.99246728515625,-0.021800000220537186,-0.02459999918937683,0.007599999662488699
1682994396909467400,3.01246728515625,-0.012000000104308128,-0.016699999570846558,-0.013199999928474426
1682994396929467400,3.03246728515625,-0.012000000104308128,0.011099999770522118,-0.033399999141693115
1682994396949467400,3.05246728515625,-0.021900000050663948,0.019700000062584877,-0.04399999976158142
1682994396969467400,3.07246728515625,-0.05130000039935112,-0.010400000028312206,-0.03519999980926514
1682994396989467400,3.09246728515625,-0.04149999842047691,-0.0017999999690800905,0.012000000104308128
1682994397009467400,3.11246728515625,0.007400000002235174,0.026099998503923416,0.0013000000035390258
1682994397029467400,3.13246728515625,-0.0030999998562037945,0.029600000008940697,-0.004600000102072954
1682994397049467400,3.15246728515625,-0.032600000500679016,0.015099999494850636,0.019099999219179153
1682994397069467400,3.17246728515625,-0.05199999734759331,0.03219999745488167,0.030700000002980232
1682994397089467400,3.19246728515625,-0.022499999031424522,0.04649999737739563,0.021800000220537186
1682994397109469000,3.212468994140625,-0.02239999920129776,0.06019999831914902,0.003399999812245369
1682994397129467400,3.23246728515625,-0.01249999925494194,0.0543999969959259,-0.01549999974668026
1682994397149467400,3.25246728515625,-0.0026000000070780516,0.038100000470876694,-0.0044999998062849045
1682994397169467400,3.27246728515625,-0.012399999424815178,0.04010000079870224,-0.014099999330937862
1682994397189467400,3.29246728515625,-0.04179999977350235,0.031099999323487282,-0.013399999588727951
1682994397209467400,3.31246728515625,-0.03189999982714653,-0.016300000250339508,-0.002899999963119626
1682994397229467400,3.33246728515625,-0.012299999594688416,-0.034299999475479126,-0.03179999813437462
1682994397249467400,3.35246728515625,-0.012199999764561653,-0.052299998700618744,0.007400000002235174
1682994397269467400,3.37246728515625,-0.02199999988079071,-0.04050000011920929,0.007199999876320362
1682994397289467400,3.39246728515625,-0.021900000050663948,-0.03869999945163727,-0.0026000000070780516
1682994397309467400,3.41246728515625,-0.021900000050663948,-0.037699997425079346,-0.002099999925121665
1682994397329467400,3.43246728515625,-0.021800000220537186,-0.05590000003576279,-0.011500000022351742
1682994397349467400,3.45246728515625,-0.021800000220537186,-0.034699998795986176,0.008599999360740185
1682994397369467400,3.47246728515625,0.007499999832361937,-0.03350000083446503,-0.00039999998989515007
1682994397389467400,3.49246728515625,-0.02149999886751175,-0.014800000004470348,-0.00039999998989515007
1682994397409467400,3.51246728515625,-0.020999999716877937,-0.01599999889731407,0.012600000016391277
1682994397429467400,3.53246728515625,-0.020899999886751175,-0.0037999998312443495,0.008299999870359898
1682994397449467400,3.55246728515625,-0.011599999852478504,0.016200000420212746,-0.01889999955892563
1682994397469467400,3.57246728515625,-0.02149999886751175,0.005200000014156103,-0.018400000408291817
1682994397489467400,3.59246728515625,-0.031700000166893005,0.032999999821186066,-0.006099999882280827
1682994397509467400,3.61246728515625,-0.03219999745488167,0.03869999945163727,-0.004699999932199717
1682994397529467400,3.63246728515625,-0.022199999541044235,0.025699999183416367,0.0038999998942017555
1682994397549467400,3.65246728515625,-0.012199999764561653,0.020999999716877937,0.0030999998562037945
1682994397569467400,3.67246728515625,-0.021800000220537186,-0.011399999260902405,-0.0044999998062849045
1682994397589467400,3.69246728515625,-0.03150000050663948,-0.008299999870359898,0.003399999812245369
1682994397609469000,3.712468994140625,-0.03150000050663948,0.0011999999405816197,-0.004900000058114529
1682994397629467400,3.73246728515625,-0.011899999342858791,-0.007699999958276749,0.013199999928474426
1682994397649467400,3.75246728515625,-0.011799999512732029,0.0031999999191612005,0.012199999764561653
1682994397669467400,3.77246728515625,-0.021699998527765274,0.00279999990016222,-0.011299999430775642
1682994397689467400,3.79246728515625,-0.041200000792741776,-0.019700000062584877,-0.016099998727440834
1682994397709467400,3.81246728515625,-0.031199999153614044,-0.013399999588727951,0.002199999988079071
1682994397729467400,3.83246728515625,-0.011299999430775642,-0.0017999999690800905,0.012199999764561653
1682994397749467400,3.85246728515625,-0.001500000013038516,0.0037999998312443495,0.005799999926239252
1682994397769467400,3.87246728515625,-0.011699999682605267,0.009099999442696571,-0.022199999541044235
1682994397789467400,3.89246728515625,-0.031300000846385956,0,-0.00969999935477972
1682994397809467400,3.91246728515625,-0.02149999886751175,0.02889999933540821,-0.012199999764561653
1682994397829467400,3.93246728515625,-0.011699999682605267,0.028699999675154686,-0.013700000010430813
1682994397849467400,3.95246728515625,-0.02199999988079071,0.03240000084042549,0.003499999875202775
1682994397869467400,3.97246728515625,-0.04149999842047691,0.010099999606609344,0.024399999529123306
1682994397889467400,3.99246728515625,-0.011899999342858791,0.015399999916553497,-0.0037999998312443495
1682994397909467400,4.01246728515625,-0.001999999862164259,0.010400000028312206,-0.022299999371170998
1682994397929467400,4.03246728515625,-0.0018999999156221747,-0.005699999630451202,0.00839999970048666
1682994397949467400,4.05246728515625,-0.041099999099969864,-0.013700000010430813,-0.009499999694526196
1682994397969469000,4.072468994140625,-0.06069999933242798,-0.013199999928474426,0.01119999960064888
1682994397989467400,4.09246728515625,-0.04099999740719795,-0.0017999999690800905,0.008499999530613422
1682994398009467400,4.11246728515625,-0.031099999323487282,-0.028699999675154686,-0.009200000204145908
1682994398029467400,4.13246728515625,-0.021299999207258224,-0.05639999732375145,-0.017500000074505806
1682994398049467400,4.15246728515625,-0.050599999725818634,-0.012899999506771564,-0.005799999926239252
1682994398069467400,4.17246728515625,-0.06030000001192093,-0.025499999523162842,-0.02029999904334545
1682994398089467400,4.19246728515625,-0.03059999831020832,-0.016699999570846558,-0.0071000000461936
1682994398109469000,4.212468994140625,-0.030700000002980232,0.009399999864399433,0.0015999999595806003
1682994398129467400,4.23246728515625,-0.04050000011920929,0.00019999999494757503,0.0008999999845400453
1682994398149467400,4.25246728515625,-0.050200000405311584,0.0005999999702908099,0.007699999958276749
1682994398169467400,4.27246728515625,-0.05049999803304672,0.02329999953508377,-0.01679999940097332
1682994398189467400,4.29246728515625,-0.04089999943971634,0.024799998849630356,0.015799999237060547
1682994398209467400,4.31246728515625,-0.041099999099969864,0.026099998503923416,0.004100000020116568
1682994398229467400,4.33246728515625,-0.041200000792741776,0.0052999998442828655,0.0032999999821186066
1682994398249467400,4.35246728515625,-0.041099999099969864,-0.001500000013038516,-0.0050999997183680534
1682994398269467400,4.37246728515625,-0.05089999735355377,-0.00930000003427267,-0.0037999998312443495
1682994398289467400,4.39246728515625,-0.06079999729990959,0.0005999999702908099,-0.01860000006854534
1682994398309467400,4.41246728515625,-0.05089999735355377,-0.013899999670684338,-0.014099999330937862
1682994398329467400,4.43246728515625,-0.041099999099969864,0.004799999762326479,-0.0032999999821186066
1682994398349467400,4.45246728515625,-0.03150000050663948,0.010900000110268593,-0.0024999999441206455
1682994398369467400,4.47246728515625,-0.03150000050663948,0.0010999999940395355,-0.008799999952316284
1682994398389467400,4.49246728515625,-0.05119999870657921,0.008999999612569809,0.00029999998514540493
1682994398409467400,4.51246728515625,-0.041200000792741776,-0.02159999869763851,-0.014499999582767487
1682994398429467400,4.53246728515625,-0.041099999099969864,-0.0008999999845400453,0.0031999999191612005
1682994398449467400,4.55246728515625,-0.031199999153614044,0,0.008700000122189522
1682994398469469000,4.572468994140625,-0.031099999323487282,0.007199999876320362,0.01249999925494194
1682994398489467400,4.59246728515625,-0.04089999943971634,-0.03179999813437462,-0.007199999876320362
1682994398509467400,4.61246728515625,-0.031099999323487282,-0.011799999512732029,0.002300000051036477
1682994398529467400,4.63246728515625,-0.04089999943971634,-0.0011999999405816197,-0.007499999832361937
1682994398549467400,4.65246728515625,-0.04089999943971634,-0.010599999688565731,-0.007599999662488699
1682994398569467400,4.67246728515625,-0.031099999323487282,-0.030299998819828033,-0.007699999958276749
1682994398589467400,4.69246728515625,-0.021299999207258224,-0.010900000110268593,0.0016999999061226845
1682994398609467400,4.71246728515625,-0.031099999323487282,-0.030499998480081558,-0.007999999448657036
1682994398629467400,4.73246728515625,-0.031099999323487282,-0.0009999999310821295,-0.017999999225139618
1682994398649467400,4.75246728515625,-0.031099999323487282,-0.010799999348819256,-0.017999999225139618
1682994398669467400,4.77246728515625,-0.031099999323487282,0.01850000023841858,0.0015999999595806003
1682994398689467400,4.79246728515625,-0.04089999943971634,0.008599999360740185,0.011399999260902405
1682994398709467400,4.81246728515625,-0.05069999769330025,-0.0013000000035390258,0.04039999842643738
1682994398729467400,4.83246728515625,-0.021299999207258224,0.008200000040233135,0.010300000198185444
1682994398749467400,4.85246728515625,0.008100000210106373,0.03749999776482582,-0.009099999442696571
1682994398769467400,4.87246728515625,-0.021199999377131462,0.028099998831748962,-0.03139999881386757
1682994398789467400,4.89246728515625,-0.050599999725818634,0.008700000122189522,-0.020899999886751175
1682994398809467400,4.91246728515625,-0.050599999725818634,0.0284000001847744,0.019099999219179153
1682994398829467400,4.93246728515625,-0.021199999377131462,-0.010400000028312206,0.019700000062584877
1682994398849467400,4.95246728515625,-0.00139999995008111,-0.0044999998062849045,0
1682994398869467400,4.97246728515625,-0.011299999430775642,0.003499999875202775,-0.00009999999747378752
1682994398889467400,4.99246728515625,-0.020899999886751175,-0.010999999940395355,-0.00699999975040555
1682994398909467400,5.01246728515625,-0.020899999886751175,-0.013799999840557575,-0.018299998715519905
1682994398929467400,5.03246728515625,-0.02070000022649765,-0.008999999612569809,0.000699999975040555
1682994398949467400,5.05246728515625,-0.011399999260902405,0.01269999984651804,-0.01759999990463257
1682994398969469000,5.072468994140625,-0.00139999995008111,-0.0032999999821186066,0.0008999999845400453
1682994398989467400,5.09246728515625,-0.030899999663233757,0.012999999336898327,0.00029999998514540493
1682994399009467400,5.11246728515625,-0.0405999980866909,0.00279999990016222,0.02239999920129776
1682994399029467400,5.13246728515625,-0.030799999833106995,-0.00019999999494757503,0.01769999973475933
1682994399049467400,5.15246728515625,-0.01119999960064888,-0.0023999998811632395,0.03370000049471855
1682994399069467400,5.17246728515625,-0.011599999852478504,0.016200000420212746,0.002300000051036477
1682994399089467400,5.19246728515625,-0.021299999207258224,-0.001999999862164259,0.0016999999061226845
1682994399109467400,5.21246728515625,-0.031300000846385956,0.013100000098347664,-0.0058999997563660145
1682994399129467400,5.23246728515625,-0.041099999099969864,-0.004799999762326479,-0.012199999764561653
1682994399149467400,5.25246728515625,-0.011599999852478504,-0.0024999999441206455,0.003999999724328518
1682994399169467400,5.27246728515625,-0.021399999037384987,0.0052999998442828655,0.002300000051036477
1682994399189467400,5.29246728515625,-0.031199999153614044,-0.002899999963119626,-0.012899999506771564
1682994399209467400,5.31246728515625,-0.021299999207258224,-0.008200000040233135,-0.002199999988079071
1682994399229467400,5.33246728515625,-0.031099999323487282,0.0013000000035390258,0.005200000014156103
1682994399249467400,5.35246728515625,-0.021299999207258224,0.007699999958276749,0.002899999963119626
1682994399269467400,5.37246728515625,-0.011500000022351742,-0.011599999852478504,0.01249999925494194
1682994399289467400,5.39246728515625,-0.0016999999061226845,-0.020999999716877937,0.0023999998811632395
1682994399309467400,5.41246728515625,-0.011500000022351742,-0.021199999377131462,-0.007499999832361937
1682994399329467400,5.43246728515625,-0.021299999207258224,-0.011500000022351742,-0.007599999662488699
1682994399349467400,5.45246728515625,-0.021299999207258224,-0.00139999995008111,0.001999999862164259
1682994399369467400,5.47246728515625,-0.011500000022351742,-0.010599999688565731,0.0016999999061226845
1682994399389467400,5.49246728515625,-0.011500000022351742,-0.02029999904334545,0.0015999999595806003
1682994399409467400,5.51246728515625,-0.031099999323487282,-0.020399998873472214,-0.008200000040233135
1682994399429467400,5.53246728515625,-0.021299999207258224,-0.0008999999845400453,-0.008100000210106373
1682994399449467400,5.55246728515625,-0.021299999207258224,-0.020399998873472214,0.0011999999405816197
1682994399469467400,5.57246728515625,-0.021199999377131462,-0.02029999904334545,0.010599999688565731
1682994399489467400,5.59246728515625,-0.021199999377131462,-0.0007999999797903001,0.0005999999702908099
1682994399509467400,5.61246728515625,-0.021199999377131462,-0.0005999999702908099,0.020099999383091927
1682994399529467400,5.63246728515625,-0.021199999377131462,-0.020099999383091927,-0.00930000003427267
1682994399549467400,5.65246728515625,-0.03099999949336052,0.00930000003427267,-0.009200000204145908
1682994399569467400,5.67246728515625,-0.021199999377131462,-0.00039999998989515007,-0.009499999694526196
1682994399589467400,5.69246728515625,-0.021199999377131462,0.009399999864399433,-0.028599999845027924
1682994399609467400,5.71246728515625,-0.03099999949336052,-0.00039999998989515007,0.010499999858438969
1682994399629467400,5.73246728515625,-0.04079999774694443,-0.00029999998514540493,0.02969999983906746
1682994399649467400,5.75246728515625,-0.0015999999595806003,-0.00019999999494757503,0.00930000003427267
1682994399669467400,5.77246728515625,0.008100000210106373,-0.009800000116229057,-0.02929999865591526
1682994399689467400,5.79246728515625,-0.01119999960064888,0.002300000051036477,-0.0032999999821186066
1682994399709467400,5.81246728515625,-0.05049999803304672,0.0024999999441206455,-0.0023999998811632395
1682994399729467400,5.83246728515625,-0.030899999663233757,-0.0072999997064471245,0.01759999990463257
1682994399749467400,5.85246728515625,-0.0009999999310821295,-0.006599999964237213,0.0030999998562037945
1682994399769467400,5.87246728515625,-0.010999999940395355,0.008299999870359898,-0.004299999680370092
1682994399789467400,5.89246728515625,-0.0007999999797903001,-0.009999999776482582,-0.001999999862164259
1682994399809467400,5.91246728515625,-0.020600000396370888,0,-0.015399999916553497
1682994399829467400,5.93246728515625,-0.02070000022649765,0.00009999999747378752,-0.01759999990463257
1682994399849467400,5.95246728515625,-0.010999999940395355,0.005799999926239252,0.00699999975040555
1682994399869467400,5.97246728515625,-0.011299999430775642,0.01589999906718731,0.00419999985024333
1682994399889467400,5.99246728515625,-0.0015999999595806003,0.0032999999821186066,-0.002899999963119626
1682994399909467400,6.01246728515625,-0.03099999949336052,-0.004699999932199717,-0.0026000000070780516
1682994399929467400,6.03246728515625,-0.03099999949336052,0.01119999960064888,0.011799999512732029
1682994399949467400,6.05246728515625,-0.021199999377131462,0.00139999995008111,-0.008100000210106373
1682994399969467400,6.07246728515625,-0.011399999260902405,0.001500000013038516,0.020499998703598976
1682994399989467400,6.09246728515625,-0.011399999260902405,0.0015999999595806003,-0.018299998715519905
1682994400009467400,6.11246728515625,-0.0210999995470047,-0.007400000002235174,0.00009999999747378752
1682994400029467400,6.13246728515625,-0.021199999377131462,0.0015999999595806003,-0.00559999980032444
1682994400049467400,6.15246728515625,-0.021299999207258224,0.007400000002235174,0.0023999998811632395
1682994400069467400,6.17246728515625,-0.011500000022351742,-0.0010999999940395355,0.0009999999310821295
1682994400089467400,6.19246728515625,-0.00139999995008111,-0.004699999932199717,0.00029999998514540493
1682994400109469000,6.212468994140625,-0.01119999960064888,-0.00279999990016222,-0.006199999712407589
1682994400129467400,6.23246728515625,-0.0405999980866909,-0.002099999925121665,-0.005200000014156103
1682994400149467400,6.25246728515625,-0.03099999949336052,0.012899999506771564,0.0030999998562037945
1682994400169467400,6.27246728515625,-0.020999999716877937,-0.0037999998312443495,0.0016999999061226845
1682994400189467400,6.29246728515625,-0.020899999886751175,-0.0018999999156221747,0.0071000000461936
1682994400209467400,6.31246728515625,-0.040300000458955765,-0.01599999889731407,-0.002300000051036477
1682994400229467400,6.33246728515625,-0.05009999871253967,-0.006300000008195639,0.007199999876320362
1682994400249467400,6.35246728515625,-0.040300000458955765,-0.015799999237060547,0.00699999975040555
1682994400269467400,6.37246728515625,-0.05009999871253967,0.0038999998942017555,0.0066999997943639755
1682994400289467400,6.39246728515625,-0.05009999871253967,0.0038999998942017555,0.006599999964237213
1682994400309467400,6.41246728515625,-0.05009999871253967,0.013700000010430813,-0.0031999999191612005
1682994400329469000,6.432468994140625,-0.05009999871253967,0.0038999998942017555,0.006399999838322401
1682994400349467400,6.45246728515625,-0.05009999871253967,0.013799999840557575,-0.013199999928474426
1682994400369467400,6.47246728515625,-0.04019999876618385,0.00419999985024333,-0.023099999874830246
1682994400389467400,6.49246728515625,-0.04999999701976776,-0.005699999630451202,-0.013399999588727951
1682994400409467400,6.51246728515625,-0.04999999701976776,-0.005699999630451202,-0.0038999998942017555
1682994400429467400,6.53246728515625,-0.04019999876618385,0.02369999885559082,0.01549999974668026
1682994400449467400,6.55246728515625,-0.030399998649954796,0.02369999885559082,0.005699999630451202
1682994400469467400,6.57246728515625,-0.04019999876618385,0.033399999141693115,0.005799999926239252
1682994400489467400,6.59246728515625,-0.04019999876618385,0.013799999840557575,0.006099999882280827
1682994400509467400,6.61246728515625,-0.04999999701976776,0.013799999840557575,0.006199999712407589
1682994400529467400,6.63246728515625,-0.030399998649954796,-0.005799999926239252,-0.03269999846816063
1682994400549467400,6.65246728515625,-0.04019999876618385,-0.01549999974668026,-0.013100000098347664
1682994400569467400,6.67246728515625,-0.05989999696612358,-0.01549999974668026,0.035599999129772186
1682994400589467400,6.69246728515625,-0.030399998649954796,0.0038999998942017555,0.015599999576807022
1682994400609469000,6.712468994140625,-0.010799999348819256,0.003999999724328518,-0.013499999418854713
1682994400629467400,6.73246728515625,-0.010999999940395355,-0.0016999999061226845,-0.023099999874830246
1682994400649467400,6.75246728515625,-0.030700000002980232,0.00699999975040555,-0.012000000104308128
1682994400669467400,6.77246728515625,-0.07000000029802322,-0.003399999812245369,0.01899999938905239
1682994400689467400,6.79246728515625,-0.0405999980866909,-0.013899999670684338,0.01979999989271164
1682994400709467400,6.81246728515625,-0.011299999430775642,-0.002300000051036477,-0.010999999940395355
1682994400729467400,6.83246728515625,-0.0210999995470047,0.005499999970197678,0.01249999925494194
1682994400749467400,6.85246728515625,-0.0210999995470047,-0.0037999998312443495,-0.006599999964237213
1682994400769467400,6.87246728515625,-0.05069999769330025,0.012399999424815178,-0.012799999676644802
1682994400789467400,6.89246728515625,-0.031199999153614044,0.008899999782443047,-0.009099999442696571
1682994400809467400,6.91246728515625,-0.021699998527765274,0.006199999712407589,-0.012399999424815178
1682994400829467400,6.93246728515625,-0.02159999869763851,-0.001999999862164259,-0.0018999999156221747
1682994400849467400,6.95246728515625,-0.041200000792741776,0.006099999882280827,0.005499999970197678
1682994400869467400,6.97246728515625,-0.05089999735355377,-0.0023999998811632395,0.018699999898672104
1682994400889467400,6.99246728515625,-0.031300000846385956,0.005399999674409628,0.00559999980032444
1682994400909467400,7.01246728515625,-0.011399999260902405,-0.002099999925121665,0.00839999970048666
1682994400929467400,7.03246728515625,-0.011299999430775642,-0.0009999999310821295,0.004999999888241291
1682994400949467400,7.05246728515625,-0.021299999207258224,0.006300000008195639,-0.0030999998562037945
1682994400969467400,7.07246728515625,-0.04079999774694443,-0.020999999716877937,-0.020899999886751175
1682994400989467400,7.09246728515625,-0.04079999774694443,-0.015799999237060547,-0.023499999195337296
1682994401009467400,7.11246728515625,-0.021299999207258224,0.00279999990016222,-0.00930000003427267
1682994401029467400,7.13246728515625,-0.021199999377131462,-0.004299999680370092,0
1682994401049467400,7.15246728515625,-0.031099999323487282,0.011500000022351742,-0.00029999998514540493
1682994401069467400,7.17246728515625,-0.030799999833106995,-0.012199999764561653,0.02029999904334545
1682994401089467400,7.19246728515625,-0.020999999716877937,-0.0011999999405816197,-0.006199999712407589
1682994401109467400,7.21246728515625,-0.030799999833106995,0.006799999624490738,0.002300000051036477
1682994401129467400,7.23246728515625,-0.030700000002980232,-0.0016999999061226845,0.0011999999405816197
1682994401149467400,7.25246728515625,-0.010999999940395355,-0.0066999997943639755,-0.005200000014156103
1682994401169467400,7.27246728515625,-0.04019999876618385,-0.004900000058114529,0.017799999564886093
1682994401189467400,7.29246728515625,-0.030399998649954796,-0.0044999998062849045,0.008200000040233135
1682994401209467400,7.31246728515625,-0.04019999876618385,-0.00419999985024333,-0.010900000110268593
1682994401229467400,7.33246728515625,0.008599999360740185,0.0026000000070780516,-0.00009999999747378752
1682994401249467400,7.35246728515625,-0.010799999348819256,0.0015999999595806003,0.010099999606609344
1682994401269467400,7.37246728515625,-0.05009999871253967,0.009200000204145908,-0.007699999958276749
1682994401289467400,7.39246728515625,-0.0405999980866909,0.014599999412894249,-0.020099999383091927
1682994401309467400,7.41246728515625,-0.00139999995008111,0.006000000052154064,-0.019500000402331352
1682994401329467400,7.43246728515625,-0.0009999999310821295,-0.006199999712407589,0.0044999998062849045
1682994401349467400,7.45246728515625,-0.01119999960064888,0.015199999324977398,-0.010099999606609344
1682994401369467400,7.47246728515625,-0.021199999377131462,0.011099999770522118,-0.0072999997064471245
1682994401389467400,7.49246728515625,-0.011500000022351742,0.007199999876320362,0.0013000000035390258
1682994401409467400,7.51246728515625,0.007999999448657036,-0.007599999662488699,-0.011099999770522118
1682994401429467400,7.53246728515625,-0.0018999999156221747,0.006799999624490738,-0.000699999975040555
1682994401449467400,7.55246728515625,-0.011699999682605267,0.004699999932199717,0.006099999882280827
1682994401469467400,7.57246728515625,-0.011399999260902405,-0.00930000003427267,0.010400000028312206
1682994401489467400,7.59246728515625,-0.0016999999061226845,-0.0050999997183680534,-0.01589999906718731
1682994401509467400,7.61246728515625,-0.011399999260902405,-0.00989999994635582,-0.00419999985024333
1682994401529467400,7.63246728515625,-0.021199999377131462,-0.00009999999747378752,0.024799998849630356
1682994401549467400,7.65246728515625,-0.04079999774694443,-0.00029999998514540493,0.02419999986886978
1682994401569467400,7.67246728515625,-0.001500000013038516,-0.00009999999747378752,-0.005200000014156103
1682994401589467400,7.69246728515625,-0.011299999430775642,0.008899999782443047,-0.019500000402331352
1682994401609467400,7.71246728515625,-0.011500000022351742,0.010199999436736107,0.00559999980032444
1682994401629467400,7.73246728515625,-0.05069999769330025,0.011799999512732029,0.0058999997563660145
1682994401649467400,7.75246728515625,-0.021299999207258224,0.008100000210106373,0.010599999688565731
1682994401669467400,7.77246728515625,-0.011399999260902405,-0.000699999975040555,0.0005999999702908099
1682994401689467400,7.79246728515625,-0.0210999995470047,-0.013499999418854713,-0.006199999712407589
1682994401709467400,7.81246728515625,-0.020999999716877937,-0.008999999612569809,-0.010499999858438969
1682994401729467400,7.83246728515625,-0.030700000002980232,-0.013700000010430813,-0.014499999582767487
1682994401749467400,7.85246728515625,-0.021299999207258224,0.017400000244379044,-0.0032999999821186066
1682994401769467400,7.87246728515625,-0.0016999999061226845,-0.0008999999845400453,-0.006399999838322401
1682994401789467400,7.89246728515625,-0.0016999999061226845,0.004999999888241291,0.0071000000461936
1682994401809467400,7.91246728515625,-0.011299999430775642,-0.009399999864399433,0.010900000110268593
1682994401829467400,7.93246728515625,-0.030799999833106995,0.0004999999655410647,0.008100000210106373
1682994401849467400,7.95246728515625,-0.030799999833106995,0.0005999999702908099,-0.031300000846385956
1682994401869467400,7.97246728515625,-0.00139999995008111,0.010400000028312206,0.01719999872148037
1682994401889467400,7.99246728515625,-0.01119999960064888,0.010799999348819256,-0.0026000000070780516
1682994401909467400,8.01246728515625,-0.020999999716877937,0.010799999348819256,-0.002099999925121665
1682994401929467400,8.03246728515625,-0.020999999716877937,0.0005999999702908099,-0.011599999852478504
1682994401949467400,8.05246728515625,-0.01119999960064888,0.010300000198185444,-0.002199999988079071
1682994401969467400,8.07246728515625,-0.01119999960064888,0.0008999999845400453,-0.0023999998811632395
1682994401989467400,8.09246728515625,-0.011099999770522118,-0.008499999530613422,-0.0023999998811632395
1682994402009467400,8.11246728515625,-0.011099999770522118,0.0011999999405816197,-0.0024999999441206455
1682994402029467400,8.13246728515625,-0.020999999716877937,0.02070000022649765,-0.002699999837204814
1682994402049467400,8.15246728515625,-0.011099999770522118,0.0010999999940395355,-0.002899999963119626
1682994402069467400,8.17246728515625,-0.020999999716877937,0.010699999518692493,-0.0031999999191612005
1682994402089467400,8.19246728515625,-0.020899999886751175,0.000699999975040555,0.006000000052154064
1682994402109467400,8.21246728515625,-0.011099999770522118,0.02019999921321869,0.005699999630451202
1682994402129467400,8.23246728515625,-0.011099999770522118,0.0007999999797903001,-0.00419999985024333
1682994402149467400,8.25246728515625,-0.020899999886751175,0.0008999999845400453,-0.014099999330937862
1682994402169467400,8.27246728515625,-0.020899999886751175,-0.008700000122189522,0.0050999997183680534
1682994402189467400,8.29246728515625,-0.011099999770522118,0.0009999999310821295,-0.0050999997183680534
1682994402209467400,8.31246728515625,-0.011099999770522118,0.0009999999310821295,-0.0052999998442828655
1682994402229467400,8.33246728515625,-0.011099999770522118,0.0009999999310821295,0.00419999985024333
1682994402249467400,8.35246728515625,-0.011099999770522118,0.020499998703598976,0.003999999724328518
1682994402269467400,8.37246728515625,-0.011099999770522118,0.010599999688565731,0.013599999248981476
1682994402289467400,8.39246728515625,-0.030700000002980232,-0.01860000006854534,-0.006000000052154064
1682994402309467400,8.41246728515625,-0.020899999886751175,-0.008700000122189522,-0.006099999882280827
1682994402329467400,8.43246728515625,-0.020899999886751175,-0.01850000023841858,-0.006300000008195639
1682994402349467400,8.45246728515625,-0.030700000002980232,0.0011999999405816197,0.013199999928474426
1682994402369467400,8.47246728515625,-0.011099999770522118,0.02070000022649765,0.013100000098347664
1682994402389467400,8.49246728515625,-0.030700000002980232,0.0009999999310821295,-0.006199999712407589
1682994402409467400,8.51246728515625,-0.030700000002980232,-0.008700000122189522,-0.025499999523162842
1682994402429467400,8.53246728515625,-0.020899999886751175,0.0009999999310821295,-0.015099999494850636
1682994402449467400,8.55246728515625,-0.030700000002980232,0.02070000022649765,-0.004900000058114529
1682994402469467400,8.57246728515625,-0.0502999983727932,0.0010999999940395355,0.014399999752640724
1682994402489467400,8.59246728515625,-0.04050000011920929,-0.008799999952316284,0.0044999998062849045
1682994402509467400,8.61246728515625,-0.020899999886751175,0.010599999688565731,0.014099999330937862
1682994402529467400,8.63246728515625,-0.020899999886751175,0.010999999940395355,-0.04360000044107437
1682994402549467400,8.65246728515625,-0.04050000011920929,0.00139999995008111,-0.012899999506771564
1682994402569467400,8.67246728515625,-0.05040000006556511,0.020999999716877937,-0.0010999999940395355
1682994402589467400,8.69246728515625,-0.06019999831914902,0.020899999886751175,0.019600000232458115
1682994402609467400,8.71246728515625,-0.0405999980866909,0.0008999999845400453,0.0007999999797903001
1682994402629467400,8.73246728515625,-0.05049999803304672,0.0009999999310821295,-0.008100000210106373
1682994402649467400,8.75246728515625,-0.040699999779462814,-0.008299999870359898,-0.016999999061226845
1682994402669467400,8.77246728515625,-0.040699999779462814,0.011500000022351742,-0.01599999889731407
1682994402689467400,8.79246728515625,-0.040699999779462814,0.011299999430775642,-0.015799999237060547
1682994402709467400,8.81246728515625,-0.030899999663233757,-0.008299999870359898,-0.025200000032782555
1682994402729467400,8.83246728515625,-0.0210999995470047,0.001500000013038516,-0.005499999970197678
1682994402749467400,8.85246728515625,-0.030899999663233757,0.011399999260902405,-0.005699999630451202
1682994402769467400,8.87246728515625,-0.05049999803304672,0.0015999999595806003,0.0037999998312443495
1682994402789467400,8.89246728515625,-0.05049999803304672,0.0015999999595806003,-0.006199999712407589
1682994402809467400,8.91246728515625,-0.05049999803304672,-0.007999999448657036,-0.006399999838322401
1682994402829467400,8.93246728515625,-0.040699999779462814,0.0017999999690800905,0.012999999336898327
1682994402849467400,8.95246728515625,-0.030899999663233757,0.011599999852478504,0.013499999418854713
1682994402869467400,8.97246728515625,-0.030899999663233757,0.0018999999156221747,-0.0052999998442828655
1682994402889467400,8.99246728515625,-0.05049999803304672,-0.007799999788403511,-0.03370000049471855
1682994402909467400,9.01246728515625,-0.05049999803304672,0.002099999925121665,-0.004100000020116568
1682994402929467400,9.03246728515625,-0.030899999663233757,0.021900000050663948,-0.003999999724328518
1682994402949467400,9.05246728515625,-0.0210999995470047,0.012000000104308128,-0.013399999588727951
1682994402969467400,9.07246728515625,-0.030899999663233757,0.0024999999441206455,-0.003499999875202775
1682994402989467400,9.09246728515625,-0.05049999803304672,0.0026000000070780516,-0.013100000098347664
1682994403009467400,9.11246728515625,-0.05049999803304672,0.0024999999441206455,-0.0032999999821186066
1682994403029467400,9.13246728515625,-0.0210999995470047,0.012199999764561653,-0.003399999812245369
1682994403049467400,9.15246728515625,-0.0210999995470047,-0.007199999876320362,0.0058999997563660145
1682994403069467400,9.17246728515625,-0.040699999779462814,-0.00699999975040555,-0.013599999248981476
1682994403089467400,9.19246728515625,-0.0210999995470047,-0.006899999920278788,-0.013399999588727951
1682994403109467400,9.21246728515625,-0.0210999995470047,-0.006899999920278788,-0.003499999875202775
1682994403129467400,9.23246728515625,-0.030899999663233757,0.012399999424815178,-0.0037999998312443495
1682994403149467400,9.25246728515625,-0.030899999663233757,0.00279999990016222,-0.003999999724328518
1682994403169467400,9.27246728515625,-0.0210999995470047,0.00279999990016222,-0.013700000010430813
1682994403189467400,9.29246728515625,-0.0210999995470047,0.012299999594688416,-0.003999999724328518
1682994403209467400,9.31246728515625,-0.0210999995470047,0.011899999342858791,-0.004299999680370092
1682994403229467400,9.33246728515625,-0.040699999779462814,0.0018999999156221747,-0.014099999330937862
1682994403249467400,9.35246728515625,-0.0210999995470047,0.011599999852478504,-0.004600000102072954
1682994403269467400,9.37246728515625,-0.0210999995470047,0.020999999716877937,-0.004699999932199717
1682994403289467400,9.39246728515625,-0.030899999663233757,-0.008200000040233135,-0.004699999932199717
1682994403309467400,9.41246728515625,-0.0210999995470047,0.01119999960064888,-0.014599999412894249
1682994403329467400,9.43246728515625,-0.0210999995470047,0.01119999960064888,-0.02410000003874302
1682994403349467400,9.45246728515625,-0.030899999663233757,0.0010999999940395355,-0.0044999998062849045
1682994403369467400,9.47246728515625,-0.030899999663233757,-0.008700000122189522,0.014599999412894249
1682994403389467400,9.49246728515625,-0.030899999663233757,-0.027899999171495438,-0.014800000004470348
1682994403409467400,9.51246728515625,0.008200000040233135,-0.007799999788403511,-0.03370000049471855
1682994403429467400,9.53246728515625,-0.011299999430775642,0.011500000022351742,-0.032600000500679016
1682994403449467400,9.55246728515625,-0.011299999430775642,-0.007599999662488699,-0.0024999999441206455
1682994403469467400,9.57246728515625,-0.04079999774694443,0.031099999323487282,0.008700000122189522
1682994403489467400,9.59246728515625,-0.021199999377131462,-0.008599999360740185,0.019299998879432678
1682994403509467400,9.61246728515625,-0.021199999377131462,-0.008700000122189522,0.00039999998989515007
1682994403529467400,9.63246728515625,-0.011399999260902405,0.0011999999405816197,0.000699999975040555
1682994403549467400,9.65246728515625,-0.021199999377131462,0.020899999886751175,-0.008499999530613422
1682994403569467400,9.67246728515625,-0.03099999949336052,0.010900000110268593,-0.007899999618530273
1682994403589467400,9.69246728515625,-0.021299999207258224,0.0004999999655410647,-0.02759999968111515
1682994403609467400,9.71246728515625,-0.0015999999595806003,-0.009399999864399433,-0.027499999850988388
1682994403629467400,9.73246728515625,-0.0015999999595806003,-0.01899999938905239,-0.008200000040233135
1682994403649467400,9.75246728515625,-0.011399999260902405,-0.008999999612569809,0.020499998703598976
1682994403669467400,9.77246728515625,-0.021199999377131462,-0.01899999938905239,0.019299998879432678
1682994403689467400,9.79246728515625,-0.03099999949336052,0.019899999722838402,-0.02019999921321869
1682994403709467400,9.81246728515625,-0.011399999260902405,0.00029999998514540493,-0.011299999430775642
1682994403729467400,9.83246728515625,-0.021199999377131462,0.0004999999655410647,0.007699999958276749
1682994403749467400,9.85246728515625,-0.011399999260902405,0.00039999998989515007,0.007599999662488699
1682994403769467400,9.87246728515625,-0.011399999260902405,0.019899999722838402,0.007599999662488699
1682994403789467400,9.89246728515625,-0.021199999377131462,0.019600000232458115,-0.012000000104308128
1682994403809467400,9.91246728515625,-0.03099999949336052,0.019600000232458115,-0.021900000050663948
1682994403829467400,9.93246728515625,-0.011399999260902405,-0.00969999935477972,-0.0026000000070780516
1682994403849467400,9.95246728515625,-0.011399999260902405,0.00989999994635582,0.006799999624490738
1682994403869467400,9.97246728515625,-0.011399999260902405,0.029600000008940697,-0.0031999999191612005
1682994403889467400,9.99246728515625,-0.03099999949336052,-0.00989999994635582,0.006000000052154064
1682994403909467400,10.01246728515625,-0.011399999260902405,-0.00009999999747378752,-0.004299999680370092
1682994403929467400,10.03246728515625,-0.011299999430775642,0.009499999694526196,0.0139999995008111
1682994403949467400,10.05246728515625,-0.011299999430775642,-0.00019999999494757503,-0.0058999997563660145
1682994403969467400,10.07246728515625,-0.030899999663233757,-0.00029999998514540493,0.0032999999821186066
1682994403989467400,10.09246728515625,-0.011299999430775642,0.009099999442696571,-0.0066999997943639755
1682994404009467400,10.11246728515625,-0.0210999995470047,0.009399999864399433,0.002099999925121665
1682994404029467400,10.13246728515625,-0.0210999995470047,0,-0.018400000408291817
1682994404049467400,10.15246728515625,-0.0210999995470047,0.009599999524652958,-0.008899999782443047
1682994404069467400,10.17246728515625,-0.011299999430775642,-0.00019999999494757503,-0.00930000003427267
1682994404089467400,10.19246728515625,-0.0210999995470047,0.009399999864399433,-0.01979999989271164
1682994404109467400,10.21246728515625,-0.01119999960064888,0.019099999219179153,-0.020399998873472214
1682994404129467400,10.23246728515625,-0.01119999960064888,-0.010099999606609344,0.008299999870359898
1682994404149467400,10.25246728515625,-0.01119999960064888,0.009399999864399433,-0.011699999682605267
1682994404169467400,10.27246728515625,-0.030799999833106995,0.009200000204145908,-0.0023999998811632395
1682994404189467400,10.29246728515625,-0.00139999995008111,0.028599999845027924,-0.012299999594688416
1682994404209467400,10.31246728515625,-0.030799999833106995,0.018699999898672104,-0.03199999779462814
1682994404229467400,10.33246728515625,-0.020999999716877937,-0.010499999858438969,-0.022099999710917473
1682994404249467400,10.35246728515625,-0.030799999833106995,-0.010300000198185444,-0.012199999764561653
1682994404269467400,10.37246728515625,-0.020999999716877937,-0.019600000232458115,0.025499999523162842
1682994404289467400,10.39246728515625,-0.011099999770522118,-0.009499999694526196,-0.004399999976158142
1682994404309467400,10.41246728515625,0.008299999870359898,0.009599999524652958,-0.013899999670684338
1682994404329467400,10.43246728515625,-0.00139999995008111,0.009200000204145908,0.005799999926239252
1682994404349467400,10.45246728515625,-0.0405999980866909,0.008999999612569809,-0.01249999925494194
1682994404369467400,10.47246728515625,-0.030899999663233757,0.008700000122189522,0.027799999341368675
1682994404389467400,10.49246728515625,-0.011299999430775642,-0.0017999999690800905,0.008700000122189522
1682994404409467400,10.51246728515625,-0.0210999995470047,0.017400000244379044,-0.010699999518692493
1682994404429467400,10.53246728515625,-0.011299999430775642,-0.00139999995008111,-0.010900000110268593
1682994404449467400,10.55246728515625,-0.0210999995470047,-0.0011999999405816197,-0.010799999348819256
1682994404469467400,10.57246728515625,-0.030899999663233757,-0.01119999960064888,-0.0010999999940395355
1682994404489467400,10.59246728515625,-0.011299999430775642,0.01759999990463257,-0.010699999518692493
1682994404509467400,10.61246728515625,-0.011299999430775642,0.007699999958276749,-0.010599999688565731
1682994404529467400,10.63246728515625,-0.011299999430775642,0.007899999618530273,-0.010799999348819256
1682994404549467400,10.65246728515625,-0.0210999995470047,-0.011500000022351742,-0.00139999995008111
1682994404569467400,10.67246728515625,-0.040699999779462814,-0.02159999869763851,-0.011799999512732029
1682994404589467400,10.69246728515625,-0.030899999663233757,0.007699999958276749,-0.012600000016391277
1682994404609467400,10.71246728515625,-0.01119999960064888,0.007799999788403511,0.01589999906718731
1682994404629467400,10.73246728515625,-0.020999999716877937,0.008200000040233135,-0.0037999998312443495
1682994404649467400,10.75246728515625,-0.020999999716877937,0.017999999225139618,-0.013100000098347664
1682994404669467400,10.77246728515625,-0.030899999663233757,-0.0016999999061226845,-0.0031999999191612005
1682994404689467400,10.79246728515625,-0.05049999803304672,-0.002199999988079071,-0.012999999336898327
1682994404709467400,10.81246728515625,-0.05049999803304672,-0.0023999998811632395,-0.003499999875202775
1682994404729467400,10.83246728515625,-0.040699999779462814,0.007999999448657036,0.006000000052154064
1682994404749467400,10.85246728515625,-0.030799999833106995,-0.00139999995008111,-0.0037999998312443495
1682994404769467400,10.87246728515625,-0.05040000006556511,-0.001500000013038516,-0.013700000010430813
1682994404789467400,10.89246728515625,-0.05040000006556511,0.008100000210106373,0.005799999926239252
1682994404809467400,10.91246728515625,-0.05040000006556511,-0.0016999999061226845,-0.004100000020116568
1682994404829467400,10.93246728515625,-0.05040000006556511,-0.001500000013038516,-0.004399999976158142
1682994404849467400,10.95246728515625,-0.05040000006556511,-0.00139999995008111,-0.004900000058114529
1682994404869467400,10.97246728515625,-0.05040000006556511,-0.02070000022649765,-0.005200000014156103
1682994404889467400,10.99246728515625,-0.06019999831914902,-0.010900000110268593,-0.00559999980032444
1682994404909467400,11.01246728515625,-0.06019999831914902,-0.0010999999940395355,0.003700000001117587
1682994404929467400,11.03246728515625,-0.05040000006556511,0.018199998885393143,0.0032999999821186066
1682994404949467400,11.05246728515625,-0.0405999980866909,-0.0007999999797903001,0.0031999999191612005
1682994404969467400,11.07246728515625,-0.0405999980866909,0.008799999952316284,0.00279999990016222
1682994404989467400,11.09246728515625,-0.05040000006556511,-0.0008999999845400453,-0.0072999997064471245
1682994405009467400,11.11246728515625,-0.05040000006556511,0.018299998715519905,-0.007400000002235174
1682994405029467400,11.13246728515625,-0.04050000011920929,-0.0009999999310821295,-0.007499999832361937
1682994405049467400,11.15246728515625,-0.04050000011920929,-0.010599999688565731,0.001999999862164259
1682994405069467400,11.17246728515625,-0.04050000011920929,0.008799999952316284,0.001999999862164259
1682994405089467400,11.19246728515625,-0.030700000002980232,0.008899999782443047,0.002199999988079071
1682994405109467400,11.21246728515625,-0.04050000011920929,0.009099999442696571,-0.007400000002235174
1682994405129467400,11.23246728515625,-0.030700000002980232,0.009099999442696571,-0.035999998450279236
1682994405149467400,11.25246728515625,-0.0405999980866909,0.008899999782443047,-0.016099998727440834
1682994405169467400,11.27246728515625,-0.0405999980866909,-0.010699999518692493,0.022299999371170998
1682994405189467400,11.29246728515625,-0.04050000011920929,-0.0007999999797903001,0.011699999682605267
1682994405209467400,11.31246728515625,-0.011099999770522118,-0.00039999998989515007,-0.02630000002682209
1682994405229467400,11.33246728515625,-0.020899999886751175,0.00969999935477972,-0.044599998742341995
1682994405249467400,11.35246728515625,-0.05040000006556511,0,-0.003999999724328518
1682994405269467400,11.37246728515625,-0.05040000006556511,-0.00039999998989515007,-0.002699999837204814
1682994405289467400,11.39246728515625,-0.020999999716877937,0.008700000122189522,0.007599999662488699
1682994405309467400,11.41246728515625,-0.0210999995470047,0.008599999360740185,-0.0017999999690800905
1682994405329469000,11.432468994140624,-0.0210999995470047,-0.0007999999797903001,-0.010900000110268593
1682994405349467400,11.45246728515625,-0.0210999995470047,-0.010599999688565731,-0.019700000062584877
1682994405369467400,11.47246728515625,-0.05049999803304672,0.008599999360740185,-0.019299998879432678
1682994405389467400,11.49246728515625,-0.001500000013038516,-0.0013000000035390258,-0.018799999728798866
1682994405409467400,11.51246728515625,-0.0210999995470047,0.01809999905526638,-0.01860000006854534
1682994405429467400,11.53246728515625,-0.001500000013038516,-0.0013000000035390258,-0.008700000122189522
1682994405449467400,11.55246728515625,-0.030899999663233757,-0.0013000000035390258,0.0009999999310821295
1682994405469467400,11.57246728515625,-0.030899999663233757,0.017999999225139618,0.029999999329447746
1682994405489467400,11.59246728515625,-0.030899999663233757,0.017899999395012856,0
1682994405509467400,11.61246728515625,-0.011299999430775642,-0.00139999995008111,-0.00039999998989515007
1682994405529467400,11.63246728515625,-0.011299999430775642,0.00839999970048666,-0.010099999606609344
1682994405549467400,11.65246728515625,-0.011299999430775642,0.008299999870359898,-0.00930000003427267
1682994405569467400,11.67246728515625,-0.040699999779462814,0.008100000210106373,0.0007999999797903001
1682994405589467400,11.69246728515625,-0.030899999663233757,-0.0015999999595806003,-0.008899999782443047
1682994405609467400,11.71246728515625,-0.030899999663233757,-0.010999999940395355,-0.009399999864399433
1682994405629467400,11.73246728515625,-0.0210999995470047,-0.000699999975040555,0.00009999999747378752
1682994405649467400,11.75246728515625,-0.030899999663233757,-0.010499999858438969,-0.00009999999747378752
1682994405669467400,11.77246728515625,-0.011299999430775642,-0.0007999999797903001,0.00969999935477972
1682994405689467400,11.79246728515625,-0.0210999995470047,-0.0007999999797903001,0
1682994405709467400,11.81246728515625,-0.0210999995470047,-0.010400000028312206,-0.019500000402331352
1682994405729467400,11.83246728515625,-0.030899999663233757,0.008799999952316284,-0.010199999436736107
1682994405749467400,11.85246728515625,-0.0210999995470047,0.008700000122189522,0.008799999952316284
1682994405769467400,11.87246728515625,-0.01119999960064888,-0.0007999999797903001,0.008299999870359898
1682994405789467400,11.89246728515625,-0.020999999716877937,-0.0007999999797903001,-0.011399999260902405
1682994405809467400,11.91246728515625,-0.01119999960064888,-0.0005999999702908099,-0.0016999999061226845
1682994405829467400,11.93246728515625,-0.020999999716877937,0.008899999782443047,-0.0018999999156221747
1682994405849467400,11.95246728515625,-0.01119999960064888,0.008499999530613422,0.0072999997064471245
1682994405869467400,11.97246728515625,-0.030799999833106995,-0.0011999999405816197,-0.0026000000070780516
1682994405889467400,11.99246728515625,-0.020999999716877937,0.00839999970048666,-0.002699999837204814
1682994405909467400,12.01246728515625,-0.020999999716877937,-0.0013000000035390258,-0.012199999764561653
1682994405929467400,12.03246728515625,-0.020999999716877937,-0.010799999348819256,-0.0024999999441206455
1682994405949467400,12.05246728515625,-0.020999999716877937,-0.0008999999845400453,0.0071000000461936
1682994405969467400,12.07246728515625,-0.01119999960064888,-0.010099999606609344,-0.0024999999441206455
1682994405989467400,12.09246728515625,-0.020999999716877937,0.009200000204145908,-0.0023999998811632395
1682994406009467400,12.11246728515625,-0.020999999716877937,0.018699999898672104,-0.0023999998811632395
1682994406029467400,12.13246728515625,-0.01119999960064888,0.008700000122189522,-0.021399999037384987
1682994406049467400,12.15246728515625,-0.0210999995470047,-0.0007999999797903001,-0.020800000056624413
1682994406069467400,12.17246728515625,-0.040699999779462814,-0.010499999858438969,0.017999999225139618
1682994406089467400,12.19246728515625,-0.0405999980866909,-0.000699999975040555,0.02709999866783619
1682994406109467400,12.21246728515625,-0.00139999995008111,0.008700000122189522,0.01640000008046627
1682994406129467400,12.23246728515625,0.008299999870359898,0.009200000204145908,-0.031599998474121094
1682994406149467400,12.25246728515625,-0.020999999716877937,-0.010300000198185444,-0.010900000110268593
1682994406169467400,12.27246728515625,-0.05049999803304672,-0.0007999999797903001,0.00009999999747378752
1682994406189467400,12.29246728515625,-0.0210999995470047,0.008599999360740185,0.020600000396370888
1682994406209467400,12.31246728515625,-0.011299999430775642,-0.00139999995008111,0.0013000000035390258
1682994406229467400,12.33246728515625,-0.030899999663233757,-0.0013000000035390258,-0.017999999225139618
1682994406249467400,12.35246728515625,-0.011299999430775642,-0.020399998873472214,-0.007899999618530273
1682994406269467400,12.37246728515625,-0.03099999949336052,-0.0011999999405816197,-0.026899999007582664
1682994406289467400,12.39246728515625,-0.03099999949336052,-0.011299999430775642,-0.016999999061226845
1682994406309467400,12.41246728515625,-0.011399999260902405,-0.011399999260902405,-0.026499999687075615
1682994406329467400,12.43246728515625,-0.001500000013038516,-0.010999999940395355,-0.016499999910593033
1682994406349467400,12.45246728515625,-0.011299999430775642,-0.0009999999310821295,-0.006899999920278788
1682994406369467400,12.47246728515625,-0.011299999430775642,-0.010699999518692493,0.0026000000070780516
1682994406389467400,12.49246728515625,-0.040699999779462814,0.008700000122189522,-0.007899999618530273
1682994406409467400,12.51246728515625,-0.011299999430775642,0.008700000122189522,0.0010999999940395355
1682994406429467400,12.53246728515625,-0.011299999430775642,0.008700000122189522,0.02019999921321869
1682994406449467400,12.55246728515625,-0.001500000013038516,-0.0009999999310821295,0.0008999999845400453
1682994406469467400,12.57246728515625,-0.0210999995470047,0.008599999360740185,-0.008299999870359898
1682994406489467400,12.59246728515625,-0.030899999663233757,0.027899999171495438,-0.008200000040233135
1682994406509467400,12.61246728515625,-0.0210999995470047,-0.0013000000035390258,-0.01809999905526638
1682994406529467400,12.63246728515625,-0.001500000013038516,-0.0008999999845400453,-0.008599999360740185
1682994406549467400,12.65246728515625,-0.0210999995470047,-0.02029999904334545,0.0008999999845400453
1682994406569467400,12.67246728515625,-0.030899999663233757,-0.000699999975040555,-0.028599999845027924
1682994406589467400,12.69246728515625,-0.0210999995470047,0.009099999442696571,0.000699999975040555
1682994406609467400,12.71246728515625,-0.0210999995470047,0.008999999612569809,-0.018699999898672104
1682994406629467400,12.73246728515625,-0.011299999430775642,0.008700000122189522,0.00029999998514540493
1682994406649467400,12.75246728515625,-0.011299999430775642,-0.019899999722838402,0
1682994406669467400,12.77246728515625,-0.020999999716877937,0,-0.00029999998514540493
1682994406689467400,12.79246728515625,-0.030799999833106995,0,-0.010300000198185444
1682994406709467400,12.81246728515625,-0.020999999716877937,0.019099999219179153,-0.0008999999845400453
1682994406729467400,12.83246728515625,-0.01119999960064888,-0.00039999998989515007,-0.0009999999310821295
1682994406749467400,12.85246728515625,-0.01119999960064888,-0.0004999999655410647,-0.0010999999940395355
1682994406769467400,12.87246728515625,-0.020999999716877937,-0.00039999998989515007,-0.0011999999405816197
1682994406789467400,12.89246728515625,-0.020999999716877937,-0.009999999776482582,-0.0013000000035390258
1682994406809467400,12.91246728515625,-0.01119999960064888,0.009200000204145908,-0.0011999999405816197
1682994406829470500,12.932470458984374,-0.0210999995470047,0.009099999442696571,-0.010799999348819256
1682994406849467400,12.95246728515625,-0.01119999960064888,0.019600000232458115,-0.01119999960064888
1682994406869467400,12.97246728515625,-0.01119999960064888,0.00009999999747378752,0.008200000040233135
1682994406889467400,12.99246728515625,-0.020999999716877937,0,0.008499999530613422
1682994406909467400,13.01246728515625,-0.030799999833106995,-0.009800000116229057,-0.010699999518692493
1682994406929470500,13.032470458984376,-0.030799999833106995,0.019500000402331352,-0.000699999975040555
1682994406949467400,13.05246728515625,-0.030799999833106995,0.00009999999747378752,-0.03949999809265137
1682994406969469000,13.072468994140625,-0.030899999663233757,0.00019999999494757503,-0.009599999524652958
1682994406989467400,13.09246728515625,-0.06030000001192093,-0.009599999524652958,0.01979999989271164
1682994407009467400,13.11246728515625,-0.05049999803304672,-0.009599999524652958,0.009999999776482582
1682994407029467400,13.13246728515625,-0.020999999716877937,0.00009999999747378752,-0.009499999694526196
1682994407049467400,13.15246728515625,-0.030899999663233757,-0.009399999864399433,-0.018400000408291817
1682994407069467400,13.17246728515625,-0.05049999803304672,0.00039999998989515007,0.0023999998811632395
1682994407089467400,13.19246728515625,-0.07009999454021454,0.010199999436736107,0.003999999724328518
1682994407109467400,13.21246728515625,-0.04079999774694443,0.009800000116229057,0.015099999494850636
1682994407129467400,13.23246728515625,-0.03099999949336052,-0.00029999998514540493,0.0064999996684491634
1682994407149467400,13.25246728515625,-0.04079999774694443,-0.00029999998514540493,-0.021800000220537186
1682994407169467400,13.27246728515625,-0.04079999774694443,-0.00019999999494757503,-0.04039999842643738
1682994407189467400,13.29246728515625,-0.04089999943971634,0.009599999524652958,-0.020099999383091927
1682994407209467400,13.31246728515625,-0.031099999323487282,0.009200000204145908,-0.00989999994635582
1682994407229467400,13.33246728515625,-0.021299999207258224,0.009099999442696571,-0.02879999950528145
1682994407249467400,13.35246728515625,-0.04089999943971634,-0.0004999999655410647,-0.008799999952316284
1682994407269467400,13.37246728515625,-0.04089999943971634,-0.00019999999494757503,-0.008799999952316284
1682994407289467400,13.39246728515625,-0.05069999769330025,0.009599999524652958,0.000699999975040555
1682994407309467400,13.41246728515625,-0.05069999769330025,-0.019500000402331352,0.0004999999655410647
1682994407329467400,13.43246728515625,-0.03099999949336052,-0.01939999870955944,-0.009499999694526196
1682994407349467400,13.45246728515625,-0.021199999377131462,0.00009999999747378752,0.00019999999494757503
1682994407369467400,13.47246728515625,-0.021299999207258224,0.00009999999747378752,0.010499999858438969
1682994407389467400,13.49246728515625,-0.04089999943971634,0.00019999999494757503,-0.008299999870359898
1682994407409467400,13.51246728515625,-0.031099999323487282,-0.009599999524652958,-0.017500000074505806
1682994407429467400,13.53246728515625,-0.031099999323487282,0.00009999999747378752,-0.02719999849796295
1682994407449467400,13.55246728515625,-0.04089999943971634,0.00019999999494757503,0.002199999988079071
1682994407469467400,13.57246728515625,-0.031099999323487282,0.00029999998514540493,0.011699999682605267
1682994407489467400,13.59246728515625,-0.031099999323487282,0.039400000125169754,-0.007899999618530273
1682994407509467400,13.61246728515625,-0.031099999323487282,0.029600000008940697,-0.017400000244379044
1682994407529467400,13.63246728515625,-0.031099999323487282,-0.009499999694526196,-0.007599999662488699
1682994407549467400,13.65246728515625,-0.031099999323487282,-0.009499999694526196,-0.007499999832361937
1682994407569467400,13.67246728515625,-0.021299999207258224,-0.009399999864399433,-0.007400000002235174
1682994407589467400,13.69246728515625,-0.031099999323487282,-0.009099999442696571,0.002099999925121665
1682994407609467400,13.71246728515625,-0.021199999377131462,-0.018299998715519905,-0.007400000002235174
1682994407629467400,13.73246728515625,-0.021199999377131462,-0.02719999849796295,-0.0072999997064471245
1682994407649467400,13.75246728515625,-0.03099999949336052,-0.007400000002235174,-0.0072999997064471245
1682994407669467400,13.77246728515625,-0.021199999377131462,-0.0071000000461936,0.002300000051036477
1682994407689467400,13.79246728515625,-0.021199999377131462,-0.006799999624490738,-0.007199999876320362
1682994407709467400,13.81246728515625,-0.021199999377131462,-0.006599999964237213,-0.0071000000461936
1682994407729467400,13.83246728515625,-0.03099999949336052,0.002899999963119626,-0.016699999570846558
1682994407749467400,13.85246728515625,-0.011399999260902405,0.002699999837204814,-0.0066999997943639755
1682994407769467400,13.87246728515625,-0.021199999377131462,0.021900000050663948,-0.0066999997943639755
1682994407789467400,13.89246728515625,-0.011399999260902405,0.002199999988079071,-0.006599999964237213
1682994407809467400,13.91246728515625,-0.021199999377131462,0.011599999852478504,-0.016300000250339508
1682994407829467400,13.93246728515625,-0.021299999207258224,0.020999999716877937,-0.016300000250339508
1682994407849467400,13.95246728515625,-0.021299999207258224,0.010900000110268593,-0.01599999889731407
1682994407869467400,13.97246728515625,-0.031099999323487282,-0.008499999530613422,0.022499999031424522
1682994407889467400,13.99246728515625,-0.04089999943971634,-0.008499999530613422,0.002300000051036477
1682994407909467400,14.01246728515625,-0.011399999260902405,-0.026899999007582664,-0.007400000002235174
1682994407929467400,14.03246728515625,0.008100000210106373,-0.0066999997943639755,-0.03529999777674675
1682994407949467400,14.05246728515625,-0.011399999260902405,0.003000000026077032,-0.0050999997183680534
1682994407969467400,14.07246728515625,-0.021199999377131462,-0.0066999997943639755,0.005399999674409628
1682994407989467400,14.09246728515625,-0.05069999769330025,0.01209999993443489,0.0064999996684491634
1682994408009467400,14.11246728515625,-0.021299999207258224,-0.007999999448657036,0.0071000000461936
1682994408029467400,14.13246728515625,-0.021299999207258224,-0.017999999225139618,0.007400000002235174
1682994408049467400,14.15246728515625,-0.011500000022351742,0.0017999999690800905,0.007400000002235174
1682994408069467400,14.17246728515625,-0.021299999207258224,0.0016999999061226845,-0.002099999925121665
1682994408089467400,14.19246728515625,-0.031199999153614044,0.010900000110268593,-0.011899999342858791
1682994408109467400,14.21246728515625,-0.011500000022351742,-0.008700000122189522,-0.002199999988079071
1682994408129467400,14.23246728515625,-0.011500000022351742,0.0011999999405816197,-0.01209999993443489
1682994408149467400,14.25246728515625,-0.0016999999061226845,0.0011999999405816197,-0.0024999999441206455
1682994408169467400,14.27246728515625,-0.011500000022351742,-0.008499999530613422,-0.0031999999191612005
1682994408189469000,14.292468994140625,-0.021299999207258224,0.020899999886751175,0.005399999674409628
1682994408209467400,14.31246728515625,-0.011500000022351742,0.01119999960064888,-0.0052999998442828655
1682994408229467400,14.33246728515625,-0.011399999260902405,0.001500000013038516,0.003499999875202775
1682994408249467400,14.35246728515625,-0.021199999377131462,0.011399999260902405,0.03229999914765358
1682994408269467400,14.37246728515625,-0.021199999377131462,-0.008100000210106373,0.002899999963119626
1682994408289467400,14.39246728515625,-0.031099999323487282,0.010900000110268593,-0.016699999570846558
1682994408309467400,14.41246728515625,-0.031099999323487282,0.010499999858438969,-0.00699999975040555
1682994408329469000,14.432468994140624,-0.021299999207258224,0.000699999975040555,0.002099999925121665
1682994408349467400,14.45246728515625,-0.021199999377131462,-0.008799999952316284,0.011299999430775642
1682994408369467400,14.47246728515625,-0.011399999260902405,0.0013000000035390258,0.0008999999845400453
1682994408389467400,14.49246728515625,-0.011399999260902405,0.0013000000035390258,0.00029999998514540493
1682994408409467400,14.51246728515625,-0.021199999377131462,0.011099999770522118,-0.00009999999747378752
1682994408429467400,14.53246728515625,-0.03099999949336052,-0.008499999530613422,0.009200000204145908
1682994408449467400,14.55246728515625,-0.011299999430775642,-0.01759999990463257,-0.0007999999797903001
1682994408469467400,14.57246728515625,-0.0210999995470047,-0.035999998450279236,-0.0013000000035390258
1682994408489467400,14.59246728515625,-0.0210999995470047,-0.016099998727440834,0.007400000002235174
1682994408509467400,14.61246728515625,-0.0210999995470047,0.0031999999191612005,0.006799999624490738
1682994408529467400,14.63246728515625,-0.011299999430775642,0.012600000016391277,-0.0030999998562037945
1682994408549467400,14.65246728515625,-0.011299999430775642,0.002699999837204814,-0.003399999812245369
1682994408569467400,14.67246728515625,-0.011299999430775642,0.0026000000070780516,-0.012999999336898327
1682994408589467400,14.69246728515625,-0.001500000013038516,0.002300000051036477,0.005799999926239252
1682994408609467400,14.71246728515625,-0.0210999995470047,0.011799999512732029,-0.004100000020116568
1682994408629470500,14.732470458984375,-0.011299999430775642,0.011500000022351742,-0.0044999998062849045
1682994408649467400,14.75246728515625,-0.030899999663233757,0.020899999886751175,0.0139999995008111
1682994408669467400,14.77246728515625,-0.0210999995470047,0.020399998873472214,-0.00559999980032444
1682994408689467400,14.79246728515625,-0.011299999430775642,0.019999999552965164,0.003999999724328518
1682994408709467400,14.81246728515625,-0.0210999995470047,0.00039999998989515007,0.0038999998942017555
1682994408729467400,14.83246728515625,-0.0210999995470047,0.009800000116229057,0.003499999875202775
1682994408749467400,14.85246728515625,-0.001500000013038516,0.00009999999747378752,-0.015199999324977398
1682994408769467400,14.87246728515625,-0.030899999663233757,-0.02889999933540821,-0.01529999915510416
1682994408789467400,14.89246728515625,-0.040699999779462814,-0.019299998879432678,0.032499998807907104
1682994408809467400,14.91246728515625,-0.0210999995470047,0,0.012399999424815178
1682994408829469000,14.932468994140624,0.008299999870359898,-0.008999999612569809,0.002199999988079071
1682994408849467400,14.95246728515625,-0.011299999430775642,0.010799999348819256,-0.01640000008046627
1682994408869467400,14.97246728515625,-0.011299999430775642,0.000699999975040555,-0.00559999980032444
1682994408889467400,14.99246728515625,-0.06039999797940254,0.00029999998514540493,-0.013799999840557575
1682994408909467400,15.01246728515625,-0.03099999949336052,-0.019899999722838402,0.006399999838322401
1682994408929467400,15.03246728515625,-0.0015999999595806003,0.009099999442696571,-0.0031999999191612005
1682994408949467400,15.05246728515625,0.008100000210106373,0.009499999694526196,-0.002899999963119626
1682994408969469000,15.072468994140625,-0.021199999377131462,-0.009399999864399433,-0.01209999993443489
1682994408989467400,15.09246728515625,-0.021199999377131462,-0.00969999935477972,-0.02159999869763851
1682994409009467400,15.11246728515625,-0.03099999949336052,-0.00989999994635582,-0.011899999342858791
1682994409029467400,15.13246728515625,-0.011399999260902405,0.00989999994635582,-0.002199999988079071
1682994409049467400,15.15246728515625,0.008200000040233135,-0.008799999952316284,-0.002199999988079071
1682994409069467400,15.17246728515625,-0.001500000013038516,0.0009999999310821295,0.016899999231100082
1682994409089467400,15.19246728515625,-0.050599999725818634,-0.008799999952316284,0.0066999997943639755
1682994409109467400,15.21246728515625,-0.04079999774694443,-0.008899999782443047,-0.003700000001117587
1682994409129467400,15.23246728515625,-0.040699999779462814,0.010499999858438969,-0.004100000020116568
1682994409149467400,15.25246728515625,-0.040699999779462814,-0.018400000408291817,-0.0044999998062849045
1682994409169467400,15.27246728515625,-0.030899999663233757,0.0011999999405816197,-0.00419999985024333
1682994409189470500,15.292470458984376,-0.030899999663233757,0.0008999999845400453,0.005699999630451202
1682994409209467400,15.31246728515625,-0.050599999725818634,0.0005999999702908099,-0.0038999998942017555
1682994409229467400,15.33246728515625,-0.030899999663233757,0.000699999975040555,-0.00419999985024333
1682994409249467400,15.35246728515625,-0.040699999779462814,-0.01809999905526638,0.0052999998442828655
1682994409269467400,15.37246728515625,-0.030899999663233757,-0.017799999564886093,-0.014399999752640724
1682994409289467400,15.39246728515625,-0.040699999779462814,-0.007999999448657036,-0.014599999412894249
1682994409309467400,15.41246728515625,-0.06030000001192093,0.0015999999595806003,-0.004699999932199717
1682994409329467400,15.43246728515625,-0.040699999779462814,0.0015999999595806003,-0.004900000058114529
1682994409349467400,15.45246728515625,-0.030899999663233757,0.01119999960064888,0.0044999998062849045
1682994409369467400,15.47246728515625,-0.06030000001192093,-0.008100000210106373,0.013899999670684338
1682994409389467400,15.49246728515625,-0.06030000001192093,-0.008100000210106373,-0.0058999997563660145
1682994409409467400,15.51246728515625,-0.040699999779462814,0.001500000013038516,0.013499999418854713
1682994409429467400,15.53246728515625,-0.05049999803304672,0.01119999960064888,0.013199999928474426
1682994409449467400,15.55246728515625,-0.030899999663233757,0.020600000396370888,0.012799999676644802
1682994409469469000,15.572468994140625,-0.040699999779462814,0.0009999999310821295,0.012199999764561653
1682994409489467400,15.59246728515625,-0.05049999803304672,0.0009999999310821295,0.002199999988079071
1682994409509467400,15.61246728515625,-0.040699999779462814,-0.008499999530613422,-0.007599999662488699
1682994409529467400,15.63246728515625,-0.030899999663233757,0.0010999999940395355,-0.01719999872148037
1682994409549467400,15.65246728515625,-0.040699999779462814,-0.008599999360740185,0.0017999999690800905
1682994409569467400,15.67246728515625,-0.040699999779462814,-0.01809999905526638,-0.007799999788403511
1682994409589467400,15.69246728515625,-0.020999999716877937,-0.008299999870359898,0.0016999999061226845
1682994409609467400,15.71246728515625,-0.030799999833106995,0.00139999995008111,0.011099999770522118
1682994409629467400,15.73246728515625,-0.0405999980866909,0.0010999999940395355,0.010799999348819256
1682994409649467400,15.75246728515625,-0.030799999833106995,0.0009999999310821295,0.0011999999405816197
1682994409669467400,15.77246728515625,-0.030899999663233757,0.010699999518692493,-0.008299999870359898
1682994409689469000,15.792468994140625,-0.0210999995470047,0.0009999999310821295,-0.02719999849796295
1682994409709467400,15.81246728515625,-0.030899999663233757,0.0007999999797903001,-0.02669999934732914
1682994409729467400,15.83246728515625,-0.040699999779462814,0.000699999975040555,-0.0071000000461936
1682994409749467400,15.85246728515625,-0.05049999803304672,0.000699999975040555,0.012000000104308128
1682994409769467400,15.87246728515625,-0.0210999995470047,0.0007999999797903001,0.001999999862164259
1682994409789467400,15.89246728515625,-0.011299999430775642,0.0009999999310821295,-0.026099998503923416
1682994409809467400,15.91246728515625,-0.001500000013038516,0.0008999999845400453,-0.024799998849630356
1682994409829469000,15.932468994140624,-0.06039999797940254,0.0007999999797903001,-0.023599999025464058
1682994409849467400,15.95246728515625,-0.050599999725818634,-0.009399999864399433,0.016599999740719795
1682994409869467400,15.97246728515625,-0.011399999260902405,0,0.027300000190734863
1682994409889467400,15.99246728515625,-0.0015999999595806003,-0.009999999776482582,0.008200000040233135
1682994409909467400,16.01246728515625,-0.021199999377131462,0.009800000116229057,-0.030499998480081558
1682994409929467400,16.03246728515625,-0.031099999323487282,-0.010099999606609344,-0.02979999966919422
1682994409949467400,16.05246728515625,-0.031099999323487282,-0.010499999858438969,-0.019700000062584877
1682994409969469000,16.072468994140625,-0.021299999207258224,-0.0007999999797903001,-0.00969999935477972
1682994409989467400,16.09246728515625,-0.011500000022351742,-0.000699999975040555,-0.029099998995661736
1682994410009467400,16.11246728515625,-0.031099999323487282,-0.0005999999702908099,-0.01939999870955944
1682994410029467400,16.13246728515625,-0.021299999207258224,-0.000699999975040555,0.00989999994635582
1682994410049467400,16.15246728515625,-0.04089999943971634,0.008999999612569809,-0.00019999999494757503
1682994410069467400,16.17246728515625,-0.031099999323487282,-0.010499999858438969,-0.010599999688565731
1682994410089467400,16.19246728515625,-0.021199999377131462,-0.02029999904334545,0.018400000408291817
1682994410109467400,16.21246728515625,-0.021199999377131462,-0.000699999975040555,-0.010900000110268593
1682994410129467400,16.23246728515625,-0.031099999323487282,0.008999999612569809,-0.02019999921321869
1682994410149467400,16.25246728515625,-0.011500000022351742,0.008799999952316284,-0.009800000116229057
1682994410169467400,16.27246728515625,-0.021299999207258224,0.008499999530613422,-0.009599999524652958
1682994410189467400,16.29246728515625,-0.011500000022351742,0.00839999970048666,0
1682994410209467400,16.31246728515625,-0.021299999207258224,-0.010499999858438969,-0.00039999998989515007
1682994410229467400,16.33246728515625,-0.021299999207258224,-0.0005999999702908099,-0.0004999999655410647
1682994410249467400,16.35246728515625,-0.011500000022351742,-0.0007999999797903001,-0.000699999975040555
1682994410269467400,16.37246728515625,-0.021199999377131462,-0.010400000028312206,0.008599999360740185
1682994410289467400,16.39246728515625,-0.021199999377131462,-0.000699999975040555,0.007799999788403511
1682994410309467400,16.41246728515625,-0.04079999774694443,-0.0005999999702908099,-0.0023999998811632395
1682994410329467400,16.43246728515625,-0.011399999260902405,-0.00029999998514540493,-0.0024999999441206455
1682994410349467400,16.45246728515625,-0.011399999260902405,-0.019500000402331352,-0.021800000220537186
1682994410369467400,16.47246728515625,-0.021199999377131462,-0.028699999675154686,0.007199999876320362
1682994410389467400,16.49246728515625,-0.021199999377131462,-0.008899999782443047,0.0066999997943639755
1682994410409467400,16.51246728515625,-0.011299999430775642,-0.017999999225139618,-0.0032999999821186066
1682994410429467400,16.53246728515625,-0.011299999430775642,-0.007999999448657036,-0.013199999928474426
1682994410449467400,16.55246728515625,-0.011299999430775642,-0.007799999788403511,-0.003399999812245369
1682994410469467400,16.57246728515625,-0.0210999995470047,0.0015999999595806003,-0.012999999336898327
1682994410489467400,16.59246728515625,-0.011299999430775642,0.001500000013038516,-0.0032999999821186066
1682994410509467400,16.61246728515625,-0.011299999430775642,0.0015999999595806003,-0.013199999928474426
1682994410529467400,16.63246728515625,-0.011299999430775642,0.010999999940395355,0.0058999997563660145
1682994410549467400,16.65246728515625,-0.0210999995470047,0.010699999518692493,-0.0038999998942017555
1682994410569467400,16.67246728515625,-0.0210999995470047,0.010599999688565731,0.00559999980032444
1682994410589467400,16.69246728515625,-0.030899999663233757,-0.008899999782443047,-0.013799999840557575
1682994410609467400,16.71246728515625,-0.011299999430775642,-0.00839999970048666,-0.013399999588727951
1682994410629467400,16.73246728515625,-0.0210999995470047,0.01119999960064888,-0.022699998691678047
1682994410649467400,16.75246728515625,-0.0210999995470047,-0.007999999448657036,-0.02239999920129776
1682994410669467400,16.77246728515625,-0.011299999430775642,0.0015999999595806003,-0.02159999869763851
1682994410689467400,16.79246728515625,-0.0210999995470047,-0.007899999618530273,0.007400000002235174
1682994410709467400,16.81246728515625,-0.030899999663233757,-0.017500000074505806,0.01640000008046627
1682994410729467400,16.83246728515625,-0.030899999663233757,-0.027499999850988388,0.005499999970197678
1682994410749467400,16.85246728515625,0.008200000040233135,-0.02719999849796295,-0.0142000000923872
1682994410769467400,16.87246728515625,0.008200000040233135,0.011899999342858791,-0.023000000044703484
1682994410789467400,16.89246728515625,-0.0210999995470047,0.001999999862164259,-0.012600000016391277
1682994410809467400,16.91246728515625,-0.050599999725818634,0.00139999995008111,-0.012000000104308128
1682994410829467400,16.93246728515625,-0.011299999430775642,0.02070000022649765,0.026999998837709427
1682994410849467400,16.95246728515625,0.008200000040233135,0.0011999999405816197,0.007499999832361937
1682994410869467400,16.97246728515625,-0.030899999663233757,0.0015999999595806003,-0.0023999998811632395
1682994410889467400,16.99246728515625,-0.0210999995470047,-0.008100000210106373,-0.01209999993443489
1682994410909467400,17.01246728515625,-0.0210999995470047,0.01119999960064888,-0.01249999925494194
1682994410929467400,17.03246728515625,-0.0210999995470047,0.00139999995008111,-0.012999999336898327
1682994410949467400,17.05246728515625,-0.001500000013038516,-0.008100000210106373,-0.02279999852180481
1682994410969467400,17.07246728515625,-0.011299999430775642,0.011500000022351742,-0.023099999874830246
1682994410989467400,17.09246728515625,-0.011299999430775642,-0.007899999618530273,-0.023599999025464058
1682994411009467400,17.11246728515625,-0.040699999779462814,0.011599999852478504,-0.0142000000923872
1682994411029467400,17.13246728515625,-0.0210999995470047,-0.007699999958276749,-0.004900000058114529
1682994411049467400,17.15246728515625,-0.0210999995470047,0.002099999925121665,-0.005200000014156103
1682994411069467400,17.17246728515625,-0.020999999716877937,0.002199999988079071,0.0038999998942017555
1682994411089467400,17.19246728515625,-0.011299999430775642,0.011599999852478504,-0.014800000004470348
1682994411109467400,17.21246728515625,-0.011299999430775642,0.0017999999690800905,-0.023399999365210533
1682994411129467400,17.23246728515625,-0.0210999995470047,-0.017400000244379044,-0.012799999676644802
1682994411149467400,17.25246728515625,-0.030899999663233757,-0.007400000002235174,-0.031700000166893005
1682994411169467400,17.27246728515625,-0.030899999663233757,0.002300000051036477,-0.01209999993443489
1682994411189467400,17.29246728515625,-0.030899999663233757,-0.006799999624490738,0.0071000000461936
1682994411209467400,17.31246728515625,-0.00139999995008111,-0.006300000008195639,0.006799999624490738
1682994411229467400,17.33246728515625,-0.011299999430775642,0.0032999999821186066,-0.0024999999441206455
1682994411249467400,17.35246728515625,-0.011299999430775642,0.012799999676644802,-0.011699999682605267
1682994411269467400,17.37246728515625,-0.011299999430775642,0.00279999990016222,-0.0018999999156221747
1682994411289467400,17.39246728515625,-0.0210999995470047,-0.016200000420212746,-0.0018999999156221747
1682994411309467400,17.41246728515625,-0.0210999995470047,0.013100000098347664,-0.0018999999156221747
1682994411329467400,17.43246728515625,-0.0210999995470047,-0.01589999906718731,-0.001999999862164259
1682994411349467400,17.45246728515625,-0.0210999995470047,0.003499999875202775,-0.0018999999156221747
1682994411369467400,17.47246728515625,-0.030899999663233757,0.003599999938160181,0.007699999958276749
1682994411389467400,17.49246728515625,-0.040699999779462814,0.003700000001117587,-0.0018999999156221747
1682994411409467400,17.51246728515625,-0.030899999663233757,0.003700000001117587,-0.011299999430775642
1682994411429467400,17.53246728515625,-0.030899999663233757,0.003700000001117587,-0.011099999770522118
1682994411449467400,17.55246728515625,-0.0210999995470047,-0.0058999997563660145,-0.010499999858438969
1682994411469467400,17.57246728515625,-0.06030000001192093,-0.005799999926239252,-0.010199999436736107
1682994411489467400,17.59246728515625,-0.040699999779462814,0.0037999998312443495,-0.00019999999494757503
1682994411509467400,17.61246728515625,-0.040699999779462814,0.003999999724328518,-0.019299998879432678
1682994411529467400,17.63246728515625,-0.05049999803304672,0.013799999840557575,-0.009399999864399433
1682994411549467400,17.65246728515625,-0.05049999803304672,0.0038999998942017555,0.00039999998989515007
1682994411569467400,17.67246728515625,-0.05049999803304672,-0.005699999630451202,-0.00930000003427267
1682994411589467400,17.69246728515625,-0.040699999779462814,0.013700000010430813,0.0005999999702908099
1682994411609467400,17.71246728515625,-0.040699999779462814,-0.005699999630451202,-0.008599999360740185
1682994411629467400,17.73246728515625,-0.040699999779462814,-0.005399999674409628,-0.017799999564886093
1682994411649467400,17.75246728515625,-0.030899999663233757,-0.005200000014156103,0.0018999999156221747
1682994411669467400,17.77246728515625,-0.040699999779462814,0.004600000102072954,-0.016999999061226845
1682994411689467400,17.79246728515625,-0.06030000001192093,-0.004900000058114529,-0.016699999570846558
1682994411709467400,17.81246728515625,-0.05049999803304672,-0.004799999762326479,0.002899999963119626
1682994411729467400,17.83246728515625,-0.030899999663233757,-0.004799999762326479,0.012600000016391277
1682994411749467400,17.85246728515625,-0.011299999430775642,0.0050999997183680534,-0.02539999969303608
1682994411769467400,17.87246728515625,-0.04079999774694443,0.005399999674409628,-0.014499999582767487
1682994411789467400,17.89246728515625,-0.04079999774694443,0.00559999980032444,0.006599999964237213
1682994411809467400,17.91246728515625,-0.07999999821186066,0.02499999850988388,0.018199998885393143
1682994411829467400,17.93246728515625,-0.04089999943971634,0.004999999888241291,0.00969999935477972
1682994411849467400,17.95246728515625,-0.031099999323487282,0.004699999932199717,-0.008499999530613422
1682994411869467400,17.97246728515625,-0.05069999769330025,-0.00419999985024333,-0.01730000041425228
1682994411889467400,17.99246728515625,-0.031099999323487282,0.01529999915510416,-0.016300000250339508
1682994411909467400,18.01246728515625,-0.04089999943971634,0.015099999494850636,-0.01599999889731407
1682994411929467400,18.03246728515625,-0.04089999943971634,0.015099999494850636,-0.03539999946951866
1682994411949467400,18.05246728515625,-0.011500000022351742,0.00559999980032444,-0.015199999324977398
1682994411969467400,18.07246728515625,-0.021299999207258224,-0.0037999998312443495,0.004299999680370092
1682994411989467400,18.09246728515625,-0.031099999323487282,-0.02290000021457672,0.013899999670684338
1682994412009467400,18.11246728515625,-0.05069999769330025,-0.02290000021457672,0.02329999953508377
1682994412029467400,18.13246728515625,-0.04089999943971634,0.006199999712407589,-0.016300000250339508
1682994412049467400,18.15246728515625,-0.011399999260902405,-0.013100000098347664,0.0026000000070780516
1682994412069467400,18.17246728515625,-0.011399999260902405,0.0066999997943639755,0.0023999998811632395
1682994412089467400,18.19246728515625,-0.011399999260902405,-0.003000000026077032,-0.01679999940097332
1682994412109467400,18.21246728515625,-0.021299999207258224,-0.0032999999821186066,-0.02589999884366989
1682994412129467400,18.23246728515625,-0.031099999323487282,0.006099999882280827,-0.015799999237060547
1682994412149467400,18.25246728515625,-0.031099999323487282,-0.003499999875202775,0.0030999998562037945
1682994412169467400,18.27246728515625,-0.011399999260902405,0.006199999712407589,-0.0071000000461936
1682994412189467400,18.29246728515625,-0.021199999377131462,-0.0032999999821186066,-0.01679999940097332
1682994412209467400,18.31246728515625,-0.021199999377131462,0.006199999712407589,-0.00699999975040555
1682994412229467400,18.33246728515625,-0.03099999949336052,-0.003399999812245369,0.0024999999441206455
1682994412249467400,18.35246728515625,-0.031099999323487282,0.006199999712407589,-0.016899999231100082
1682994412269467400,18.37246728515625,-0.011399999260902405,-0.022299999371170998,-0.0072999997064471245
1682994412289467400,18.39246728515625,-0.021199999377131462,-0.012299999594688416,-0.007699999958276749
1682994412309467400,18.41246728515625,-0.011399999260902405,-0.012000000104308128,-0.01719999872148037
1682994412329467400,18.43246728515625,-0.04079999774694443,-0.002199999988079071,0.011500000022351742
1682994412349467400,18.45246728515625,-0.021199999377131462,-0.011899999342858791,-0.008499999530613422
1682994412369467400,18.47246728515625,-0.011299999430775642,0.007499999832361937,0.010099999606609344
1682994412389467400,18.49246728515625,-0.030899999663233757,-0.002099999925121665,-0.00019999999494757503
1682994412409467400,18.51246728515625,-0.021199999377131462,0.016999999061226845,-0.010199999436736107
1682994412429467400,18.53246728515625,-0.021199999377131462,0.01640000008046627,-0.010099999606609344
1682994412449467400,18.55246728515625,-0.0015999999595806003,0.01589999906718731,-0.009999999776482582
1682994412469467400,18.57246728515625,-0.011399999260902405,0.015599999576807022,-0.0005999999702908099
1682994412489467400,18.59246728515625,-0.021199999377131462,-0.0038999998942017555,-0.0009999999310821295
1682994412509467400,18.61246728515625,-0.021199999377131462,-0.003999999724328518,0.007899999618530273
1682994412529467400,18.63246728515625,-0.021199999377131462,0.00559999980032444,-0.0018999999156221747
1682994412549467400,18.65246728515625,-0.03099999949336052,0.005799999926239252,0.007599999662488699
1682994412569467400,18.67246728515625,-0.011399999260902405,0.015399999916553497,-0.002199999988079071
1682994412589467400,18.69246728515625,-0.0015999999595806003,0.005799999926239252,-0.02070000022649765
1682994412609467400,18.71246728515625,-0.021199999377131462,-0.023000000044703484,-0.010799999348819256
1682994412629467400,18.73246728515625,-0.03099999949336052,-0.023099999874830246,0.027300000190734863
1682994412649467400,18.75246728515625,-0.011299999430775642,-0.032999999821186066,-0.0024999999441206455
1682994412669467400,18.77246728515625,0.008200000040233135,-0.003399999812245369,-0.01249999925494194
1682994412689467400,18.79246728515625,-0.0210999995470047,0.016200000420212746,-0.0024999999441206455
1682994412709467400,18.81246728515625,-0.021199999377131462,0.006199999712407589,0.007899999618530273
1682994412729467400,18.83246728515625,-0.04079999774694443,0.00559999980032444,0.019099999219179153
1682994412749467400,18.85246728515625,-0.021199999377131462,-0.014599999412894249,0.03920000046491623
1682994412769467400,18.87246728515625,-0.021199999377131462,-0.014599999412894249,0.00989999994635582
1682994412789467400,18.89246728515625,-0.021199999377131462,0.004900000058114529,-0.00009999999747378752
1682994412809467400,18.91246728515625,-0.011399999260902405,0.005200000014156103,-0.00989999994635582
1682994412829467400,18.93246728515625,-0.021199999377131462,-0.0044999998062849045,-0.019600000232458115
1682994412849467400,18.95246728515625,-0.011399999260902405,0.0050999997183680534,-0.00019999999494757503
1682994412869467400,18.97246728515625,-0.0015999999595806003,0.014699999243021011,-0.00989999994635582
1682994412889467400,18.99246728515625,-0.011399999260902405,0.005200000014156103,-0.00039999998989515007
1682994412909467400,19.01246728515625,-0.021199999377131462,0.01529999915510416,-0.000699999975040555
1682994412929467400,19.03246728515625,-0.03099999949336052,-0.014099999330937862,0.01850000023841858
1682994412949467400,19.05246728515625,-0.04079999774694443,0.0052999998442828655,0.01769999973475933
1682994412969467400,19.07246728515625,-0.021199999377131462,-0.004100000020116568,0.007199999876320362
1682994412989467400,19.09246728515625,-0.001500000013038516,-0.0037999998312443495,0.016599999740719795
1682994413009467400,19.11246728515625,-0.021199999377131462,-0.023399999365210533,-0.00279999990016222
1682994413029467400,19.13246728515625,-0.0015999999595806003,-0.0038999998942017555,-0.02199999988079071
1682994413049467400,19.15246728515625,-0.011399999260902405,0.00559999980032444,-0.002199999988079071
1682994413069467400,19.17246728515625,-0.011399999260902405,-0.004100000020116568,-0.012199999764561653
1682994413089467400,19.19246728515625,-0.011399999260902405,-0.0038999998942017555,0.006899999920278788
1682994413109467400,19.21246728515625,-0.011299999430775642,-0.003599999938160181,0.026200000196695328
1682994413129467400,19.23246728515625,-0.001500000013038516,0.015699999406933784,0.0064999996684491634
1682994413149467400,19.25246728515625,-0.011399999260902405,0.00559999980032444,-0.0031999999191612005
1682994413169467400,19.27246728515625,-0.021199999377131462,0.01549999974668026,0.006399999838322401
1682994413189467400,19.29246728515625,-0.011399999260902405,0.005399999674409628,0.006099999882280827
1682994413209467400,19.31246728515625,-0.0210999995470047,-0.00419999985024333,0.005399999674409628
1682994413229467400,19.33246728515625,-0.0210999995470047,0.005399999674409628,0.02410000003874302
1682994413249467400,19.35246728515625,-0.0210999995470047,0.005200000014156103,0.013599999248981476
1682994413269467400,19.37246728515625,-0.0210999995470047,-0.004299999680370092,0.012899999506771564
1682994413289467400,19.39246728515625,-0.011299999430775642,0.005399999674409628,0.012399999424815178
1682994413309467400,19.41246728515625,-0.011299999430775642,-0.004299999680370092,0.011899999342858791
1682994413329467400,19.43246728515625,-0.0210999995470047,0.0052999998442828655,-0.007400000002235174
1682994413349467400,19.45246728515625,-0.011299999430775642,0.014399999752640724,0.030499998480081558
1682994413369467400,19.47246728515625,-0.0210999995470047,0.0142000000923872,0.010599999688565731
1682994413389467400,19.49246728515625,-0.0210999995470047,0.004399999976158142,0.0007999999797903001
1682994413409467400,19.51246728515625,-0.0210999995470047,-0.005200000014156103,0.020099999383091927
1682994413429467400,19.53246728515625,-0.011299999430775642,0.0044999998062849045,0.0004999999655410647
1682994413449467400,19.55246728515625,-0.011299999430775642,-0.0050999997183680534,0.00039999998989515007
1682994413469467400,19.57246728515625,-0.001500000013038516,0.004399999976158142,0.009800000116229057
1682994413489467400,19.59246728515625,-0.0210999995470047,0.013899999670684338,0.00009999999747378752
1682994413509467400,19.61246728515625,-0.011299999430775642,0.00419999985024333,0.00009999999747378752
1682994413529467400,19.63246728515625,-0.0210999995470047,-0.005499999970197678,-0.009399999864399433
1682994413549467400,19.65246728515625,-0.001500000013038516,-0.005200000014156103,-0.008799999952316284
1682994413569467400,19.67246728515625,-0.011299999430775642,0.004399999976158142,-0.00839999970048666
1682994413589467400,19.69246728515625,-0.05049999803304672,-0.0052999998442828655,0.020600000396370888
1682994413609467400,19.71246728515625,-0.05049999803304672,-0.014999999664723873,0.02019999921321869
1682994413629467400,19.73246728515625,-0.011299999430775642,-0.004999999888241291,0.00039999998989515007
1682994413649467400,19.75246728515625,-0.0210999995470047,0.004699999932199717,-0.017999999225139618
1682994413669467400,19.77246728515625,-0.0210999995470047,-0.004799999762326479,0.00279999990016222
1682994413689467400,19.79246728515625,-0.08980000019073486,0.0044999998062849045,-0.014599999412894249
1682994413709467400,19.81246728515625,-0.07019999623298645,-0.005799999926239252,0.006099999882280827
1682994413729467400,19.83246728515625,-0.05069999769330025,-0.006399999838322401,-0.00279999990016222
1682994413749467400,19.85246728515625,-0.05069999769330025,-0.025999998673796654,-0.002199999988079071
1682994413769467400,19.87246728515625,-0.04089999943971634,-0.01589999906718731,0.018199998885393143
1682994413789467400,19.89246728515625,-0.04089999943971634,-0.01599999889731407,-0.010300000198185444
1682994413809467400,19.91246728515625,-0.04089999943971634,0.0030999998562037945,0.009499999694526196
1682994413829467400,19.93246728515625,-0.021299999207258224,0.002699999837204814,0.009999999776482582
1682994413849467400,19.95246728515625,-0.031099999323487282,-0.01679999940097332,-0.009200000204145908
1682994413869467400,19.97246728515625,-0.031099999323487282,-0.016300000250339508,-0.009200000204145908
1682994413889467400,19.99246728515625,-0.07029999792575836,0.003399999812245369,0.0004999999655410647
1682994413909467400,20.01246728515625,-0.08009999990463257,0.003399999812245369,0.00009999999747378752
1682994413929467400,20.03246728515625,-0.04089999943971634,-0.006399999838322401,0.009599999524652958
1682994413949467400,20.05246728515625,-0.0016999999061226845,0.023499999195337296,0.01889999955892563
1682994413969467400,20.07246728515625,-0.05069999769330025,-0.005399999674409628,0.01889999955892563
1682994413989467400,20.09246728515625,-0.060499999672174454,-0.015199999324977398,0.019299998879432678
1682994414009467400,20.11246728515625,-0.04089999943971634,0.003700000001117587,0.00009999999747378752
1682994414029467400,20.13246728515625,-0.04089999943971634,-0.01589999906718731,-0.009399999864399433
1682994414049467400,20.15246728515625,-0.04089999943971634,-0.015199999324977398,0.0004999999655410647
1682994414069467400,20.17246728515625,-0.021299999207258224,-0.01489999983459711,0.0005999999702908099
1682994414089467400,20.19246728515625,-0.031099999323487282,0.004299999680370092,0.0005999999702908099
1682994414109467400,20.21246728515625,-0.04089999943971634,0.00419999985024333,0.000699999975040555
1682994414129467400,20.23246728515625,-0.031099999323487282,0.013799999840557575,0.000699999975040555
1682994414149467400,20.25246728515625,-0.021299999207258224,-0.005699999630451202,-0.009099999442696571
1682994414169467400,20.27246728515625,-0.031099999323487282,0.003999999724328518,0.010099999606609344
1682994414189467400,20.29246728515625,-0.031099999323487282,0.0037999998312443495,0.00009999999747378752
1682994414209467400,20.31246728515625,-0.04089999943971634,0.003700000001117587,0.009599999524652958
1682994414229467400,20.33246728515625,-0.031099999323487282,-0.006300000008195639,0.009399999864399433
1682994414249467400,20.35246728515625,-0.031099999323487282,0.002899999963119626,0.00930000003427267
1682994414269467400,20.37246728515625,-0.031099999323487282,-0.0066999997943639755,-0.00039999998989515007
1682994414289467400,20.39246728515625,-0.021299999207258224,0.012600000016391277,-0.0005999999702908099
1682994414309467400,20.41246728515625,-0.021299999207258224,0.0026000000070780516,-0.00029999998514540493
1682994414329467400,20.43246728515625,-0.021299999207258224,0.0024999999441206455,0
1682994414349467400,20.45246728515625,-0.021299999207258224,-0.00699999975040555,0
1682994414369467400,20.47246728515625,-0.031099999323487282,-0.006899999920278788,0
1682994414389467400,20.49246728515625,-0.04089999943971634,0.002699999837204814,0.009399999864399433
1682994414409467400,20.51246728515625,-0.031099999323487282,0.012399999424815178,0.01889999955892563
1682994414429467400,20.53246728515625,-0.011500000022351742,-0.016499999910593033,-0.0007999999797903001
1682994414449467400,20.55246728515625,-0.031099999323487282,0.02239999920129776,-0.0008999999845400453
1682994414469467400,20.57246728515625,-0.031099999323487282,-0.006799999624490738,-0.0005999999702908099
1682994414489467400,20.59246728515625,-0.031099999323487282,-0.006399999838322401,-0.009999999776482582
1682994414509467400,20.61246728515625,-0.021299999207258224,0.012799999676644802,-0.009800000116229057
1682994414529467400,20.63246728515625,-0.021299999207258224,-0.0066999997943639755,-0.009599999524652958
1682994414549467400,20.65246728515625,-0.031099999323487282,0.003000000026077032,0.009800000116229057
1682994414569467400,20.67246728515625,-0.05069999769330025,-0.026099998503923416,0.02889999933540821
1682994414589467400,20.69246728515625,-0.031099999323487282,0.012799999676644802,0.018299998715519905
1682994414609467400,20.71246728515625,-0.0016999999061226845,0.003000000026077032,-0.010599999688565731
1682994414629467400,20.73246728515625,-0.011500000022351742,0.01269999984651804,-0.019299998879432678
1682994414649467400,20.75246728515625,-0.021299999207258224,-0.00699999975040555,-0.008700000122189522
1682994414669467400,20.77246728515625,-0.05079999938607216,0.002199999988079071,0.002300000051036477
1682994414689467400,20.79246728515625,-0.031199999153614044,0.0016999999061226845,0.022599998861551285
1682994414709467400,20.81246728515625,-0.0017999999690800905,0.0011999999405816197,0.003599999938160181
1682994414729467400,20.83246728515625,-0.0017999999690800905,0.011099999770522118,0.003999999724328518
1682994414749467400,20.85246728515625,-0.041099999099969864,0.0013000000035390258,-0.014999999664723873
1682994414769467400,20.87246728515625,-0.011699999682605267,-0.008700000122189522,-0.004699999932199717
1682994414789467400,20.89246728515625,-0.02149999886751175,0.0005999999702908099,-0.004799999762326479
1682994414809467400,20.91246728515625,-0.011699999682605267,0.010300000198185444,0.004999999888241291
1682994414829467400,20.93246728515625,-0.0018999999156221747,-0.009099999442696571,0.004900000058114529
1682994414849467400,20.95246728515625,-0.011699999682605267,-0.018299998715519905,-0.004999999888241291
1682994414869467400,20.97246728515625,-0.041099999099969864,0.001500000013038516,0.023899998515844345
1682994414889467400,20.99246728515625,-0.031199999153614044,0.021199999377131462,0.013199999928474426
1682994414909467400,21.01246728515625,-0.021399999037384987,0.011399999260902405,0.0026000000070780516
1682994414929467400,21.03246728515625,-0.011599999852478504,0.021199999377131462,-0.007400000002235174
1682994414949467400,21.05246728515625,-0.04099999740719795,0.001500000013038516,-0.026599999517202377
1682994414969467400,21.07246728515625,-0.021399999037384987,0.00139999995008111,-0.007199999876320362
1682994414989467400,21.09246728515625,-0.021399999037384987,0.020899999886751175,-0.007400000002235174
1682994415009467400,21.11246728515625,-0.0017999999690800905,0.010999999940395355,0.0017999999690800905
1682994415029467400,21.13246728515625,-0.031199999153614044,0.0013000000035390258,0.010900000110268593
1682994415049467400,21.15246728515625,-0.021399999037384987,0.0013000000035390258,0.00989999994635582
1682994415069467400,21.17246728515625,-0.031199999153614044,0.020800000056624413,-0.00039999998989515007
1682994415089467400,21.19246728515625,-0.0016999999061226845,-0.00839999970048666,-0.0009999999310821295
1682994415109467400,21.21246728515625,-0.011500000022351742,0.0013000000035390258,0.02709999866783619
1682994415129467400,21.23246728515625,-0.021299999207258224,0.011099999770522118,0.016499999910593033
1682994415149467400,21.25246728515625,-0.021299999207258224,-0.008100000210106373,-0.0037999998312443495
1682994415169467400,21.27246728515625,-0.031099999323487282,0.0015999999595806003,-0.004399999976158142
1682994415189467400,21.29246728515625,-0.021299999207258224,-0.01759999990463257,-0.004900000058114529
1682994415209467400,21.31246728515625,-0.021199999377131462,-0.01759999990463257,0.023499999195337296
1682994415229467400,21.33246728515625,-0.011399999260902405,-0.007699999958276749,0.012899999506771564
1682994415249467400,21.35246728515625,-0.0015999999595806003,-0.026999998837709427,0.01249999925494194
1682994415269467400,21.37246728515625,-0.021199999377131462,-0.017099998891353607,0.0024999999441206455
1682994415289467400,21.39246728515625,-0.03099999949336052,-0.0071000000461936,-0.007400000002235174
1682994415309467400,21.41246728515625,-0.011399999260902405,0.0026000000070780516,-0.007499999832361937
1682994415329467400,21.43246728515625,0.008100000210106373,0.012299999594688416,-0.007499999832361937
1682994415349467400,21.45246728515625,-0.021199999377131462,0.022199999541044235,-0.007599999662488699
1682994415369467400,21.47246728515625,-0.021199999377131462,0.002300000051036477,0.011799999512732029
1682994415389467400,21.49246728515625,-0.011399999260902405,-0.007400000002235174,-0.007799999788403511
1682994415409467400,21.51246728515625,-0.021199999377131462,0.002199999988079071,0.011599999852478504
1682994415429467400,21.53246728515625,-0.011399999260902405,0.011799999512732029,0.001999999862164259
1682994415449467400,21.55246728515625,-0.021199999377131462,0.002199999988079071,-0.0071000000461936
1682994415469467400,21.57246728515625,-0.021199999377131462,-0.016599999740719795,-0.0064999996684491634
1682994415489467400,21.59246728515625,-0.021199999377131462,0.021900000050663948,-0.01549999974668026
1682994415509467400,21.61246728515625,-0.021199999377131462,-0.01679999940097332,-0.005399999674409628
1682994415529467400,21.63246728515625,-0.021199999377131462,-0.016499999910593033,0.013700000010430813
1682994415549467400,21.65246728515625,-0.011399999260902405,-0.0064999996684491634,0.022699998691678047
1682994415569467400,21.67246728515625,-0.011399999260902405,-0.006000000052154064,-0.015599999576807022
1682994415589467400,21.69246728515625,-0.0015999999595806003,0.013599999248981476,-0.014800000004470348
1682994415609467400,21.71246728515625,-0.0015999999595806003,0.013399999588727951,0.00559999980032444
1682994415629467400,21.73246728515625,-0.05069999769330025,0.003499999875202775,0.017099998891353607
1682994415649467400,21.75246728515625,-0.011500000022351742,-0.0066999997943639755,0.01850000023841858
1682994415669467400,21.77246728515625,-0.0016999999061226845,-0.026499999687075615,0
1682994415689469000,21.792468994140624,-0.031099999323487282,0.012799999676644802,-0.008899999782443047
1682994415709467400,21.81246728515625,-0.011500000022351742,0.003000000026077032,-0.00839999970048666
1682994415729467400,21.83246728515625,-0.011500000022351742,0.002899999963119626,-0.007899999618530273
1682994415749467400,21.85246728515625,-0.021399999037384987,0.002699999837204814,-0.007699999958276749
1682994415769467400,21.87246728515625,-0.021399999037384987,-0.0071000000461936,-0.01730000041425228
1682994415789467400,21.89246728515625,-0.011599999852478504,0.012600000016391277,-0.007499999832361937
1682994415809467400,21.91246728515625,-0.031199999153614044,-0.006899999920278788,-0.007499999832361937
1682994415829469000,21.932468994140624,-0.021399999037384987,0.002699999837204814,0.011799999512732029
1682994415849467400,21.95246728515625,-0.04099999740719795,0.002699999837204814,-0.008200000040233135
1682994415869467400,21.97246728515625,-0.011500000022351742,0.012399999424815178,-0.008599999360740185
1682994415889467400,21.99246728515625,-0.05079999938607216,0.002699999837204814,0.0011999999405816197
1682994415909467400,22.01246728515625,-0.04099999740719795,0.002699999837204814,-0.008100000210106373
1682994415929467400,22.03246728515625,-0.05079999938607216,0.0024999999441206455,-0.016999999061226845
1682994415949467400,22.05246728515625,-0.06059999763965607,-0.017099998891353607,-0.0066999997943639755
1682994415969467400,22.07246728515625,-0.05079999938607216,0.012199999764561653,-0.01640000008046627
1682994415989467400,22.09246728515625,-0.05079999938607216,-0.017099998891353607,-0.006799999624490738
1682994416009467400,22.11246728515625,-0.04099999740719795,0.002699999837204814,0.002699999837204814
1682994416029467400,22.13246728515625,-0.05079999938607216,-0.006899999920278788,0.012399999424815178
1682994416049467400,22.15246728515625,-0.04099999740719795,0.002699999837204814,-0.016699999570846558
1682994416069467400,22.17246728515625,-0.05079999938607216,0.00279999990016222,-0.01679999940097332
1682994416089467400,22.19246728515625,-0.05079999938607216,-0.00699999975040555,-0.016899999231100082
1682994416109467400,22.21246728515625,-0.04099999740719795,-0.016499999910593033,-0.0072999997064471245
1682994416129467400,22.23246728515625,-0.031199999153614044,0.0030999998562037945,0.01209999993443489
1682994416149467400,22.25246728515625,-0.04099999740719795,-0.006300000008195639,-0.0072999997064471245
1682994416169467400,22.27246728515625,-0.04089999943971634,-0.006199999712407589,-0.0072999997064471245
1682994416189467400,22.29246728515625,-0.04089999943971634,-0.015599999576807022,-0.02669999934732914
1682994416209467400,22.31246728515625,-0.04089999943971634,0.003700000001117587,-0.016899999231100082
1682994416229467400,22.33246728515625,-0.04089999943971634,0.003700000001117587,-0.007400000002235174
1682994416249467400,22.35246728515625,-0.031199999153614044,0.032499998807907104,-0.007899999618530273
1682994416269467400,22.37246728515625,-0.060499999672174454,0.013399999588727951,0.010599999688565731
1682994416289467400,22.39246728515625,-0.031099999323487282,-0.006000000052154064,-0.009399999864399433
1682994416309467400,22.41246728515625,-0.021299999207258224,0.003700000001117587,0.009599999524652958
1682994416329469000,22.432468994140624,-0.05069999769330025,-0.015799999237060547,-0.00029999998514540493
1682994416349467400,22.45246728515625,-0.021299999207258224,-0.015799999237060547,0.00930000003427267
1682994416369467400,22.47246728515625,-0.021299999207258224,-0.015699999406933784,-0.0008999999845400453
1682994416389467400,22.49246728515625,-0.011500000022351742,0.013599999248981476,-0.03019999898970127
1682994416409467400,22.51246728515625,-0.021299999207258224,-0.005799999926239252,-0.010599999688565731
1682994416429467400,22.53246728515625,-0.04089999943971634,-0.005799999926239252,-0.0008999999845400453
1682994416449467400,22.55246728515625,-0.04089999943971634,-0.01589999906718731,0.018199998885393143
1682994416469467400,22.57246728515625,-0.021299999207258224,-0.006099999882280827,-0.011399999260902405
1682994416489467400,22.59246728515625,-0.021299999207258224,-0.015199999324977398,-0.020399998873472214
1682994416509467400,22.61246728515625,-0.021199999377131462,0.004399999976158142,0.01850000023841858
1682994416529467400,22.63246728515625,-0.05069999769330025,0.014099999330937862,0
1682994416549467400,22.65246728515625,-0.05069999769330025,0.003700000001117587,0.010599999688565731
1682994416569467400,22.67246728515625,-0.021299999207258224,-0.01640000008046627,-0.008299999870359898
1682994416589467400,22.69246728515625,-0.021299999207258224,0.012799999676644802,-0.007999999448657036
1682994416609467400,22.71246728515625,-0.021299999207258224,-0.0066999997943639755,-0.008100000210106373
1682994416629467400,22.73246728515625,-0.021299999207258224,0.01269999984651804,-0.017899999395012856
1682994416649467400,22.75246728515625,-0.031199999153614044,0.01249999925494194,0.0010999999940395355
1682994416669467400,22.77246728515625,-0.031199999153614044,0.012399999424815178,0.0009999999310821295
1682994416689469000,22.792468994140624,-0.011500000022351742,0.012399999424815178,-0.008799999952316284
1682994416709467400,22.81246728515625,-0.011500000022351742,0.0026000000070780516,0.0005999999702908099
1682994416729467400,22.83246728515625,-0.021299999207258224,-0.00699999975040555,0.009800000116229057
1682994416749467400,22.85246728515625,-0.031099999323487282,-0.016899999231100082,-0.02029999904334545
1682994416769467400,22.87246728515625,-0.021299999207258224,-0.00699999975040555,-0.021199999377131462
1682994416789467400,22.89246728515625,-0.0016999999061226845,0.012600000016391277,-0.0026000000070780516
1682994416809467400,22.91246728515625,-0.021299999207258224,-0.0066999997943639755,0.0066999997943639755
1682994416829469000,22.932468994140624,-0.04089999943971634,-0.006799999624490738,0.0066999997943639755
1682994416849467400,22.95246728515625,-0.031099999323487282,-0.01679999940097332,0.006599999964237213
1682994416869467400,22.97246728515625,-0.031099999323487282,-0.0071000000461936,-0.003499999875202775
1682994416889467400,22.99246728515625,-0.021199999377131462,0.002899999963119626,0.005799999926239252
1682994416909467400,23.01246728515625,-0.03099999949336052,0.012999999336898327,-0.00419999985024333
1682994416929467400,23.03246728515625,-0.021199999377131462,0.0032999999821186066,-0.004399999976158142
1682994416949467400,23.05246728515625,-0.03099999949336052,0.012899999506771564,-0.02410000003874302
1682994416969467400,23.07246728515625,-0.021199999377131462,0.022499999031424522,0.004699999932199717
1682994416989467400,23.09246728515625,-0.0015999999595806003,0.002899999963119626,0.0038999998942017555
1682994417009467400,23.11246728515625,-0.03099999949336052,-0.016300000250339508,-0.006300000008195639
1682994417029467400,23.13246728515625,-0.011399999260902405,-0.006300000008195639,0.011899999342858791
1682994417049467400,23.15246728515625,-0.0210999995470047,-0.006199999712407589,0.010999999940395355
1682994417069467400,23.17246728515625,-0.0210999995470047,0.003399999812245369,-0.008799999952316284
1682994417089467400,23.19246728515625,-0.0210999995470047,-0.0058999997563660145,-0.008999999612569809
1682994417109467400,23.21246728515625,-0.0210999995470047,0.0037999998312443495,0.00989999994635582
1682994417129467400,23.23246728515625,-0.0210999995470047,0.003599999938160181,-0.009800000116229057
1682994417149467400,23.25246728515625,-0.011299999430775642,0.012899999506771564,-0.009800000116229057
1682994417169467400,23.27246728515625,-0.011299999430775642,0.003000000026077032,-0.00989999994635582
1682994417189467400,23.29246728515625,-0.030899999663233757,0.003000000026077032,0.008899999782443047
1682994417209467400,23.31246728515625,-0.011299999430775642,0.00279999990016222,0.008200000040233135
1682994417229467400,23.33246728515625,-0.0210999995470047,0.0026000000070780516,0.007599999662488699
1682994417249467400,23.35246728515625,-0.011299999430775642,0.00279999990016222,-0.002199999988079071
1682994417269470500,23.372470458984374,-0.0210999995470047,-0.0066999997943639755,-0.002199999988079071
1682994417289467400,23.39246728515625,-0.0210999995470047,0.003000000026077032,0.007199999876320362
1682994417309467400,23.41246728515625,-0.011299999430775642,0.00279999990016222,-0.011799999512732029
1682994417329469000,23.432468994140624,-0.0210999995470047,-0.01640000008046627,-0.002099999925121665
1682994417349467400,23.45246728515625,-0.030899999663233757,-0.0064999996684491634,0.026200000196695328
1682994417369467400,23.47246728515625,-0.01119999960064888,-0.015599999576807022,0.015199999324977398
1682994417389467400,23.49246728515625,0.008299999870359898,0.013199999928474426,-0.013599999248981476
1682994417409467400,23.51246728515625,0.008299999870359898,0.02329999953508377,-0.022499999031424522
1682994417429467400,23.53246728515625,-0.030899999663233757,0.013399999588727951,-0.0017999999690800905
1682994417449467400,23.55246728515625,-0.040699999779462814,-0.016099998727440834,-0.00019999999494757503
1682994417469467400,23.57246728515625,-0.011299999430775642,0.002899999963119626,0.010199999436736107
