time,seconds_elapsed,z,y,x
1682999359265056500,0.037056396484375,0.3734999895095825,-0.33319997787475586,1.4924999475479126
1682999359285059600,0.0570595703125,0.3734999895095825,-0.33319997787475586,1.4924999475479126
1682999359305062700,0.077062744140625,0.3734999895095825,-0.33319997787475586,1.4924999475479126
1682999359325056500,0.097056396484375,0.0674000009894371,-0.019500000402331352,0.26579999923706055
1682999359345058000,0.11705810546875,0.17350000143051147,-0.03879999741911888,0.2662999927997589
1682999359365058000,0.13705810546875,0.22540000081062317,0.03579999879002571,0.06430000066757202
1682999359385058000,0.15705810546875,0.1867000013589859,0.21379999816417694,-0.14589999616146088
1682999359405058000,0.17705810546875,0.3050999939441681,-0.13429999351501465,0.33719998598098755
1682999359425056500,0.197056396484375,0.06039999797940254,-0.052799999713897705,0.249099999666214
1682999359445058000,0.21705810546875,-0.005399999674409628,0.10729999840259552,-0.0052999998442828655
1682999359465056500,0.237056396484375,-0.09070000052452087,0.11599999666213989,-0.058799996972084045
1682999359485058000,0.25705810546875,-0.10339999943971634,0.050599999725818634,0.08159999549388885
1682999359505058000,0.27705810546875,-0.11599999666213989,0.06749999523162842,0.25999999046325684
1682999359525056500,0.297056396484375,-0.1233999952673912,0.1598999947309494,0.15279999375343323
1682999359545058000,0.31705810546875,-0.24009999632835388,0.1875,-0.10949999839067459
1682999359565058000,0.33705810546875,-0.32029998302459717,0.1459999978542328,-0.3017999827861786
1682999359585058000,0.35705810546875,-0.2818000018596649,0.21069999039173126,-0.4470999836921692
1682999359605056500,0.377056396484375,-0.29839998483657837,0.23709999024868011,-0.0851999968290329
1682999359625058000,0.39705810546875,-0.19409999251365662,0.4430999755859375,0.25209999084472656
1682999359645058000,0.41705810546875,-0.20340000092983246,0.3950999975204468,0.3321000039577484
1682999359665056500,0.437056396484375,-0.0026000000070780516,0.3228999972343445,0.4593999981880188
1682999359685058000,0.45705810546875,0.25929999351501465,0.2247999906539917,0.7738999724388123
1682999359705056500,0.477056396484375,0.4081999957561493,0.07360000163316727,1.097599983215332
1682999359725056500,0.497056396484375,0.5954999923706055,0.045899998396635056,0.9136999845504761
1682999359745056500,0.517056396484375,0.7450999617576599,0.18199999630451202,0.5292999744415283
1682999359765058000,0.53705810546875,0.47439998388290405,0.41609999537467957,-0.04739999771118164
1682999359785058000,0.55705810546875,0.4728999733924866,-0.028099998831748962,-0.3780999779701233
1682999359805058000,0.57705810546875,0.06260000169277191,-0.07559999823570251,-0.6011999845504761
1682999359825056500,0.597056396484375,-0.08229999989271164,0.09019999951124191,-1.0104999542236328
1682999359845058000,0.61705810546875,0.017999999225139618,0.08999999612569809,-0.8693999648094177
1682999359865058000,0.63705810546875,0.12099999934434891,0.3467999994754791,-0.621399998664856
1682999359885058000,0.65705810546875,0.2538999915122986,0.35519999265670776,-0.32499998807907104
1682999359905058000,0.67705810546875,0.28859999775886536,0.3628000020980835,-0.19739998877048492
1682999359925059600,0.6970595703125,0.3434000015258789,0.4211999773979187,-0.050200000405311584
1682999359945058000,0.71705810546875,0.33480000495910645,0.3261999785900116,0.1762000024318695
1682999359965056500,0.737056396484375,0.2653999924659729,0.3025999963283539,0.2759000062942505
1682999359985058000,0.75705810546875,0.12289999425411224,0.3328000009059906,0.17080000042915344
1682999360005058000,0.77705810546875,-0.03619999811053276,0.22509999573230743,0.1340000033378601
1682999360025056500,0.797056396484375,-0.18549999594688416,0.18320000171661377,-0.03019999898970127
1682999360045058000,0.81705810546875,-0.1816999912261963,0.3249000012874603,-0.32109999656677246
1682999360065058000,0.83705810546875,-0.1639999896287918,0.3018999993801117,-0.3361999988555908
1682999360085056500,0.857056396484375,-0.210099995136261,0.3352999985218048,-0.0778999999165535
1682999360105058000,0.87705810546875,-0.22119998931884766,0.4749999940395355,0.25759997963905334
1682999360125058000,0.89705810546875,-0.06539999693632126,0.5539999604225159,0.6987999677658081
1682999360145058000,0.91705810546875,0.0828000009059906,0.5891000032424927,1.090499997138977
1682999360165056500,0.937056396484375,0.1711999922990799,0.5638999938964844,1.7100999355316162
1682999360185058000,0.95705810546875,0.3068999946117401,0.41769999265670776,2.3694000244140625
1682999360205058000,0.97705810546875,0.6290000081062317,0.2441999912261963,2.5971999168395996
1682999360225056500,0.997056396484375,0.9077000021934509,-0.202799990773201,2.9261999130249023
1682999360245056500,1.017056396484375,1.101199984550476,-0.734499990940094,3.6447999477386475
1682999360265058000,1.03705810546875,1.3871999979019165,-1.2588999271392822,3.8973000049591064
1682999360285058000,1.05705810546875,1.5827000141143799,-1.2459999322891235,3.0715999603271484
1682999360305058000,1.07705810546875,1.4706000089645386,-1.1103999614715576,2.1507999897003174
1682999360325056500,1.097056396484375,1.0864999294281006,-1.059399962425232,1.4082999229431152
1682999360345058000,1.11705810546875,0.4017999768257141,-0.8655999898910522,0.5376999974250793
1682999360365058000,1.13705810546875,-0.2890999913215637,-0.6685999631881714,-0.23549999296665192
1682999360385058000,1.15705810546875,-0.7834999561309814,-0.7277999520301819,-0.7714999914169312
1682999360405058000,1.17705810546875,-0.8761000037193298,-0.49869999289512634,-1.0403000116348267
1682999360425058000,1.19705810546875,-0.7114999890327454,-0.32829999923706055,-0.7522000074386597
1682999360445058000,1.21705810546875,-0.5123999714851379,-0.19669999182224274,-0.30979999899864197
1682999360465058000,1.23705810546875,-0.4542999863624573,-0.24129998683929443,-0.18239998817443848
1682999360485058000,1.25705810546875,-0.2822999954223633,-0.2815999984741211,-0.48639997839927673
1682999360505058000,1.27705810546875,-0.18959999084472656,-0.3441999852657318,-0.8870999813079834
1682999360525056500,1.297056396484375,-0.08969999849796295,-0.34579998254776,-1.3169000148773193
1682999360545058000,1.31705810546875,-0.08209999650716782,-0.4131999909877777,-1.3947999477386475
1682999360565058000,1.33705810546875,-0.09359999746084213,-0.4059000015258789,-1.4528999328613281
1682999360585058000,1.35705810546875,-0.03319999948143959,-0.2847000062465668,-1.4134999513626099
1682999360605058000,1.37705810546875,-0.008799999952316284,-0.20260000228881836,-1.0723999738693237
1682999360625058000,1.39705810546875,-0.0037999998312443495,-0.15760000050067902,-0.851099967956543
1682999360645058000,1.41705810546875,0.22789999842643738,-0.024399999529123306,-1.049899935722351
1682999360665058000,1.43705810546875,0.38199999928474426,-0.1021999940276146,-1.011699914932251
1682999360685058000,1.45705810546875,0.4285999834537506,-0.2556000053882599,-0.7771999835968018
1682999360705058000,1.47705810546875,0.35029998421669006,-0.21779999136924744,-0.4553000032901764
1682999360725056500,1.497056396484375,0.4448999762535095,-0.12239999324083328,-0.31949999928474426
1682999360745056500,1.517056396484375,0.6040999889373779,0.03229999914765358,-0.5440999865531921
1682999360765058000,1.53705810546875,0.6421999931335449,0.02410000003874302,-0.5622999668121338
1682999360785058000,1.55705810546875,0.2142999917268753,0.2069999873638153,-0.22859999537467957
1682999360805058000,1.57705810546875,0.048899997025728226,0.026200000196695328,-0.18150000274181366
1682999360825056500,1.597056396484375,0.08529999852180481,-0.13220000267028809,0.08249999582767487
1682999360845058000,1.61705810546875,0.5547999739646912,-0.35670000314712524,0.7295999526977539
1682999360865058000,1.63705810546875,0.7091999650001526,-0.4123999774456024,0.901699960231781
1682999360885058000,1.65705810546875,0.8730999827384949,-0.15699999034404755,1.029099941253662
1682999360905058000,1.67705810546875,0.526199996471405,-0.27230000495910645,1.9318000078201294
1682999360925058000,1.69705810546875,0.8578999638557434,-0.19929999113082886,3.1312999725341797
1682999360945058000,1.71705810546875,1.00409996509552,-1.8234999179840088,4.413300037384033
1682999360965058000,1.73705810546875,1.6776999235153198,-1.660099983215332,4.041399955749512
1682999360985058000,1.75705810546875,1.614300012588501,-1.0893999338150024,2.4896998405456543
1682999361005058000,1.77705810546875,0.9599999785423279,-0.6459999680519104,0.5457000136375427
1682999361025056500,1.797056396484375,0.27320000529289246,-0.8116999864578247,-1.0476999282836914
1682999361045058000,1.81705810546875,-0.25619998574256897,-0.6839999556541443,-0.9524999856948853
1682999361065058000,1.83705810546875,-0.41849997639656067,-0.6660999655723572,-0.035499997437000275
1682999361085058000,1.85705810546875,-0.5580999851226807,-0.621999979019165,1.0597000122070312
1682999361105058000,1.87705810546875,-0.6108999848365784,-0.3813000023365021,1.2014999389648438
1682999361125058000,1.89705810546875,-0.3173999786376953,-0.2053999900817871,0.554099977016449
1682999361145058000,1.91705810546875,0.12019999325275421,-0.3050999939441681,0.10659999400377274
1682999361165058000,1.93705810546875,0.24049998819828033,-0.3791999816894531,-0.2806999981403351
1682999361185058000,1.95705810546875,-0.05949999764561653,-0.5381999611854553,-0.4509999752044678
1682999361205058000,1.97705810546875,-0.4562999904155731,-0.37849998474121094,-1.0331000089645386
1682999361225056500,1.997056396484375,-0.7394999861717224,-0.5227000117301941,-1.3869999647140503
1682999361245056500,2.017056396484375,-0.9911999702453613,-0.4666999876499176,-1.972999930381775
1682999361265058000,2.03705810546875,-1.125599980354309,-0.21229998767375946,-2.1568000316619873
1682999361285058000,2.05705810546875,-1.235700011253357,0.07739999890327454,-1.8717999458312988
1682999361305058000,2.07705810546875,-1.4134999513626099,0.30239999294281006,-1.5981999635696411
1682999361325056500,2.097056396484375,-1.6136000156402588,0.4156000018119812,-1.4829999208450317
1682999361345058000,2.11705810546875,-1.4800999164581299,0.3896999955177307,-1.6450999975204468
1682999361365058000,2.13705810546875,-0.935699999332428,0.25939998030662537,-1.5931999683380127
1682999361385058000,2.15705810546875,-0.10339999943971634,0.26429998874664307,-1.3061999082565308
1682999361405058000,2.17705810546875,0.3418000042438507,0.07029999792575836,-0.8644999861717224
1682999361425058000,2.19705810546875,0.6209999918937683,0.0142000000923872,-0.3050000071525574
1682999361445058000,2.21705810546875,0.7698999643325806,0.2777000069618225,0.1665000021457672
1682999361465058000,2.23705810546875,0.7726999521255493,0.5672999620437622,0.6004999876022339
1682999361485058000,2.25705810546875,0.39389997720718384,0.4747999906539917,1.3708000183105469
1682999361505058000,2.27705810546875,0.2797999978065491,0.5565999746322632,0.9929999709129333
1682999361525056500,2.297056396484375,0.0794999971985817,0.47429999709129333,0.5282999873161316
1682999361545058000,2.31705810546875,0.24819999933242798,0.08969999849796295,0.4388999938964844
1682999361565058000,2.33705810546875,0.6134999990463257,-0.18809999525547028,0.9005999565124512
1682999361585058000,2.35705810546875,1.1618999242782593,-0.5040000081062317,2.9012999534606934
1682999361605058000,2.37705810546875,1.4048999547958374,-0.19869999587535858,4.757499694824219
1682999361625058000,2.39705810546875,1.5932999849319458,-0.13159999251365662,5.287999629974365
1682999361645058000,2.41705810546875,1.6439999341964722,-0.275299996137619,3.4749999046325684
1682999361665058000,2.43705810546875,1.0638999938964844,-0.5604999661445618,1.3238999843597412
1682999361685056500,2.457056396484375,0.615399956703186,-0.9025999903678894,-0.3227999806404114
1682999361705058000,2.47705810546875,-0.004600000102072954,-1.3012999296188354,-0.871399998664856
1682999361725056500,2.497056396484375,-0.4318999946117401,-1.4817999601364136,-0.482699990272522
1682999361745056500,2.517056396484375,-0.4381999969482422,-1.1876999139785767,0.33879998326301575
1682999361765058000,2.53705810546875,-0.31189998984336853,-0.8499000072479248,0.7440999746322632
1682999361785058000,2.55705810546875,-0.058799996972084045,-0.7411999702453613,0.659500002861023
1682999361805058000,2.57705810546875,0.3249000012874603,-0.8417999744415283,0.0803999975323677
1682999361825056500,2.597056396484375,0.2272000014781952,-0.8491999506950378,-0.3089999854564667
1682999361845058000,2.61705810546875,0.14180000126361847,-0.8316999673843384,-1.011099934577942
1682999361865058000,2.63705810546875,0.04809999838471413,-0.7752999663352966,-1.6642999649047852
1682999361885058000,2.65705810546875,-0.07449999451637268,-0.656499981880188,-1.7419999837875366
1682999361905058000,2.67705810546875,-0.20309999585151672,-0.6261999607086182,-1.9478999376296997
1682999361925058000,2.69705810546875,-0.26499998569488525,-0.3755999803543091,-2.2482998371124268
1682999361945058000,2.71705810546875,-0.16569998860359192,-0.5101000070571899,-2.449699878692627
1682999361965056500,2.737056396484375,-0.1006999984383583,-0.398499995470047,-2.4670000076293945
1682999361985058000,2.75705810546875,0.06119999662041664,-0.17149999737739563,-1.7811999320983887
1682999362005058000,2.77705810546875,-0.10700000077486038,0.12619999051094055,-1.0973999500274658
1682999362025058000,2.79705810546875,-0.19779999554157257,0.24849998950958252,-0.5862999558448792
1682999362045058000,2.81705810546875,-0.18869999051094055,0.40699997544288635,-0.38589999079704285
1682999362065058000,2.83705810546875,-0.18649999797344208,0.2336999922990799,0.14389999210834503
1682999362085058000,2.85705810546875,-0.13859999179840088,0.14869999885559082,0.4545999765396118
1682999362105058000,2.87705810546875,0.15539999306201935,-0.00559999980032444,0.7275999784469604
1682999362125058000,2.89705810546875,0.23119999468326569,-0.033799998462200165,0.8557999730110168
1682999362145058000,2.91705810546875,0.4838999807834625,0.10529999434947968,1.1375999450683594
1682999362165058000,2.93705810546875,0.6919999718666077,0.2683999836444855,1.8781999349594116
1682999362185056500,2.957056396484375,0.9438999891281128,0.33869999647140503,2.537899971008301
1682999362205058000,2.97705810546875,0.9458999633789062,0.3612000048160553,2.9433999061584473
1682999362225056500,2.997056396484375,0.8136000037193298,0.2689000070095062,3.349900007247925
1682999362245056500,3.017056396484375,0.8422999978065491,-0.311599999666214,4.139699935913086
1682999362265058000,3.03705810546875,0.9593999981880188,-0.5686999559402466,4.996399879455566
1682999362285058000,3.05705810546875,0.9514999985694885,-0.5218999981880188,4.242300033569336
1682999362305058000,3.07705810546875,0.6890000104904175,-0.35169997811317444,1.8770999908447266
1682999362325056500,3.097056396484375,0.25450000166893005,-0.5120999813079834,-0.2660999894142151
1682999362345058000,3.11705810546875,-0.2945999801158905,-0.7184999585151672,-0.8769999742507935
1682999362365058000,3.13705810546875,-0.9314999580383301,-0.6111999750137329,-0.9035999774932861
1682999362385058000,3.15705810546875,-1.3605999946594238,-0.6836999654769897,-1.0233999490737915
1682999362405058000,3.17705810546875,-1.3178999423980713,-0.7519999742507935,-1.1349999904632568
1682999362425058000,3.19705810546875,-0.7961999773979187,-0.5931999683380127,-1.059999942779541
1682999362445058000,3.21705810546875,-0.3276999890804291,-0.25519999861717224,-1.0708999633789062
1682999362465056500,3.237056396484375,-0.32829999923706055,-0.08749999850988388,-1.4436999559402466
1682999362485058000,3.25705810546875,-0.5740999579429626,-0.22049999237060547,-1.9244999885559082
1682999362505058000,3.27705810546875,-0.7498999834060669,-0.2525999844074249,-2.6115000247955322
1682999362525058000,3.29705810546875,-0.774899959564209,-0.405599981546402,-2.9639999866485596
1682999362545058000,3.31705810546875,-0.5422999858856201,-0.43449997901916504,-2.825000047683716
1682999362565058000,3.33705810546875,-0.37549999356269836,-0.2581999897956848,-2.3541998863220215
1682999362585058000,3.35705810546875,-0.23249998688697815,0.05779999867081642,-1.739799976348877
1682999362605058000,3.37705810546875,-0.07449999451637268,0.1931999921798706,-0.9309999942779541
1682999362625058000,3.39705810546875,0.18789999186992645,0.35569998621940613,-0.2994000017642975
1682999362645058000,3.41705810546875,0.26600000262260437,0.3506999909877777,-0.4008999764919281
1682999362665058000,3.43705810546875,0.1460999995470047,0.2924000024795532,-0.5870000123977661
1682999362685056500,3.457056396484375,-0.037699997425079346,0.18279999494552612,-0.6337999701499939
1682999362705058000,3.47705810546875,-0.262800008058548,0.14100000262260437,-0.53329998254776
1682999362725056500,3.497056396484375,-0.4202999770641327,0.08449999988079071,-0.5712999701499939
1682999362745056500,3.517056396484375,-0.38259997963905334,0.0810999944806099,-0.2572999894618988
1682999362765058000,3.53705810546875,-0.17489999532699585,0.2523999810218811,-0.012299999594688416
1682999362785058000,3.55705810546875,-0.007599999662488699,0.41999998688697815,0.29170000553131104
1682999362805058000,3.57705810546875,-0.06669999659061432,0.4611999988555908,0.38019999861717224
1682999362825056500,3.597056396484375,-0.00930000003427267,0.4174000024795532,0.5092999935150146
1682999362845058000,3.61705810546875,0.19039998948574066,0.4651999771595001,1.1489999294281006
1682999362865056500,3.637056396484375,0.25209999084472656,0.633899986743927,1.8562999963760376
1682999362885058000,3.65705810546875,0.22929999232292175,0.7723999619483948,1.9677999019622803
1682999362905058000,3.67705810546875,0.16929998993873596,0.7732999920845032,1.625100016593933
1682999362925058000,3.69705810546875,0.4731999933719635,0.4152999818325043,2.287799835205078
1682999362945058000,3.71705810546875,0.7732999920845032,0.4558999836444855,3.5327999591827393
1682999362965058000,3.73705810546875,0.9014999866485596,0.28209999203681946,4.307799816131592
1682999362985058000,3.75705810546875,0.9215999841690063,-0.055799998342990875,4.361400127410889
1682999363005058000,3.77705810546875,1.1883000135421753,-0.3206999897956848,3.3748998641967773
1682999363025058000,3.79705810546875,1.0092999935150146,-0.24819999933242798,1.747999906539917
1682999363045058000,3.81705810546875,0.7095999717712402,-0.20789998769760132,0.18850000202655792
1682999363065058000,3.83705810546875,0.015699999406933784,-0.4462999999523163,-0.36820000410079956
1682999363085058000,3.85705810546875,-0.7272999882698059,-0.607699990272522,-0.46859997510910034
1682999363105058000,3.87705810546875,-0.9365999698638916,-0.5442000031471252,0.002099999925121665
1682999363125058000,3.89705810546875,-0.5971999764442444,-0.5152999758720398,0.07569999992847443
1682999363145058000,3.91705810546875,-0.22450000047683716,-0.7651999592781067,-0.22829999029636383
1682999363165058000,3.93705810546875,0.3456999957561493,-0.8184999823570251,-0.23669999837875366
1682999363185058000,3.95705810546875,0.6015999913215637,-0.8833999633789062,-0.6584999561309814
1682999363205058000,3.97705810546875,0.45569998025894165,-0.968999981880188,-1.5491999387741089
1682999363225056500,3.997056396484375,0.30320000648498535,-0.9993000030517578,-2.2916998863220215
1682999363245056500,4.017056396484375,0.21599999070167542,-1.0454999208450317,-2.7393999099731445
1682999363265058000,4.03705810546875,0.11309999972581863,-0.8485999703407288,-2.7939999103546143
1682999363285058000,4.05705810546875,-0.3342999815940857,-0.4860999882221222,-2.5772998332977295
1682999363305058000,4.07705810546875,-0.5910999774932861,-0.22630000114440918,-2.4629998207092285
1682999363325056500,4.097056396484375,-0.6395999789237976,-0.2586999833583832,-2.3015999794006348
1682999363345058000,4.11705810546875,-0.3285999894142151,-0.3391000032424927,-2.0611000061035156
1682999363365058000,4.13705810546875,0.2134999930858612,-0.34759998321533203,-1.337499976158142
1682999363385058000,4.15705810546875,0.5982999801635742,-0.12619999051094055,-0.7804999947547913
1682999363405058000,4.17705810546875,0.5593999624252319,-0.026200000196695328,-0.38979998230934143
1682999363425058000,4.19705810546875,0.37449997663497925,-0.11800000071525574,-0.24289999902248383
1682999363445058000,4.21705810546875,0.15760000050067902,-0.2888000011444092,-0.026999998837709427
1682999363465058000,4.23705810546875,0.3571999967098236,-0.22709999978542328,0.11129999905824661
1682999363485058000,4.25705810546875,0.5072999596595764,-0.038599997758865356,0.2498999983072281
1682999363505058000,4.27705810546875,0.14980000257492065,-0.16749998927116394,0.11349999904632568
1682999363525056500,4.297056396484375,0.2238999903202057,0.24609999358654022,0.3579999804496765
1682999363545058000,4.31705810546875,0.06579999625682831,0.3276999890804291,0.9354999661445618
1682999363565058000,4.33705810546875,-0.11309999972581863,0.35819998383522034,1.619399905204773
1682999363585058000,4.35705810546875,0.06149999797344208,0.3479999899864197,2.831199884414673
1682999363605058000,4.37705810546875,0.3197000026702881,0.03909999877214432,4.179500102996826
1682999363625058000,4.39705810546875,0.6380000114440918,-0.31459999084472656,5.704099655151367
1682999363645058000,4.41705810546875,1.0049999952316284,-0.40689998865127563,6.451200008392334
1682999363665058000,4.43705810546875,1.257699966430664,-0.4754999876022339,5.915099620819092
1682999363685058000,4.45705810546875,1.1679999828338623,-0.34619998931884766,3.5882999897003174
1682999363705058000,4.47705810546875,0.6850000023841858,-0.3578999936580658,1.4043999910354614
1682999363725056500,4.497056396484375,-0.13289999961853027,-0.45739999413490295,-0.5521000027656555
1682999363745056500,4.517056396484375,-0.9774999618530273,-0.7234999537467957,-2.1953999996185303
1682999363765058000,4.53705810546875,-1.233199954032898,-0.8987999558448792,-2.535799980163574
1682999363785058000,4.55705810546875,-0.9271999597549438,-0.6929999589920044,-1.8398998975753784
1682999363805058000,4.57705810546875,-0.6234999895095825,-0.41429999470710754,-0.7947999835014343
1682999363825056500,4.597056396484375,-0.34619998931884766,-0.28529998660087585,-0.17329999804496765
1682999363845058000,4.61705810546875,-0.23029999434947968,-0.23189999163150787,-0.295199990272522
1682999363865056500,4.637056396484375,-0.27719998359680176,-0.2613999843597412,-0.63919997215271
1682999363885058000,4.65705810546875,-0.2742999792098999,-0.20729999244213104,-1.166700005531311
1682999363905058000,4.67705810546875,-0.23839999735355377,-0.20909999310970306,-1.6441999673843384
1682999363925058000,4.69705810546875,-0.24459999799728394,-0.22849999368190765,-1.9754999876022339
1682999363945058000,4.71705810546875,-0.349700003862381,-0.12770000100135803,-2.2197999954223633
1682999363965058000,4.73705810546875,-0.633899986743927,0.034699998795986176,-2.2969000339508057
1682999363985058000,4.75705810546875,-0.790399968624115,0.16699999570846558,-1.9341999292373657
1682999364005058000,4.77705810546875,-0.6678999662399292,0.36089998483657837,-1.4362999200820923
1682999364025056500,4.797056396484375,-0.5525000095367432,0.3879999816417694,-0.7833999991416931
1682999364045058000,4.81705810546875,-0.40059998631477356,0.37129998207092285,-0.2590000033378601
1682999364065058000,4.83705810546875,-0.149399995803833,0.1631999909877777,-0.42809998989105225
1682999364085058000,4.85705810546875,0.23639999330043793,0.043800000101327896,-0.6444999575614929
1682999364105058000,4.87705810546875,0.5862999558448792,-0.021299999207258224,-0.6650999784469604
1682999364125058000,4.89705810546875,0.5888999700546265,0.05199999734759331,-0.5478000044822693
1682999364145056500,4.917056396484375,0.3188999891281128,0.20319999754428864,-0.3228999972343445
1682999364165056500,4.937056396484375,-0.020600000396370888,0.3075000047683716,-0.31360000371932983
1682999364185056500,4.957056396484375,-0.2689000070095062,0.2557999789714813,-0.3130999803543091
1682999364205056500,4.977056396484375,-0.25540000200271606,0.41519999504089355,-0.14549998939037323
1682999364225056500,4.997056396484375,-0.08669999986886978,0.5425999760627747,0.42309999465942383
1682999364245056500,5.017056396484375,0.02449999935925007,0.5814999938011169,1.1582999229431152
1682999364265056500,5.037056396484375,0.23729999363422394,0.6017999649047852,1.7374999523162842
1682999364285056500,5.057056396484375,0.4997999966144562,0.382099986076355,2.3964998722076416
1682999364305056500,5.077056396484375,0.7610999941825867,0.25619998574256897,3.7518999576568604
1682999364325056500,5.097056396484375,0.7892000079154968,0.29789999127388,4.448699951171875
1682999364345056500,5.117056396484375,0.6049000024795532,0.02070000022649765,4.373199939727783
1682999364365056500,5.137056396484375,0.3127000033855438,-0.23749999701976776,3.4916999340057373
1682999364385056500,5.157056396484375,0.34540000557899475,-0.7130999565124512,2.336699962615967
1682999364405056500,5.177056396484375,0.32409998774528503,-0.8180999755859375,1.2020999193191528
1682999364425056500,5.197056396484375,0.19820000231266022,-0.7301999926567078,-0.1354999989271164
1682999364445056500,5.217056396484375,-0.13109999895095825,-0.6855999827384949,-1.1971999406814575
1682999364465056500,5.237056396484375,-0.12199999392032623,-0.7224000096321106,-1.125100016593933
1682999364485056500,5.257056396484375,0.1509999930858612,-0.6599000096321106,-0.46889999508857727
1682999364505056500,5.277056396484375,0.30719998478889465,-0.554099977016449,0.18400000035762787
1682999364525056500,5.297056396484375,0.18809999525547028,-0.5701000094413757,0.5331000089645386
1682999364545056500,5.317056396484375,0.033799998462200165,-0.6758999824523926,0.27649998664855957
1682999364565056500,5.337056396484375,0.0625,-0.8003000020980835,-0.321399986743927
1682999364585056500,5.357056396484375,0.24449999630451202,-0.7548999786376953,-1.044700026512146
1682999364605056500,5.377056396484375,0.3122999966144562,-0.559499979019165,-1.511699914932251
1682999364625056500,5.397056396484375,0.1096000000834465,-0.30309998989105225,-1.7041999101638794
1682999364645056500,5.417056396484375,-0.26659998297691345,-0.11099999397993088,-1.9082999229431152
1682999364665056500,5.437056396484375,-0.5680999755859375,-0.029600000008940697,-2.240999937057495
1682999364685056500,5.457056396484375,-0.47599998116493225,0.14949999749660492,-2.5344998836517334
1682999364705056500,5.477056396484375,-0.3310000002384186,0.2865000069141388,-2.5028998851776123
1682999364725056500,5.497056396484375,-0.40539997816085815,0.43389999866485596,-2.2156999111175537
1682999364745056500,5.517056396484375,-0.588699996471405,0.43149998784065247,-1.7827999591827393
1682999364765056500,5.537056396484375,-0.6467999815940857,0.48259997367858887,-1.2922999858856201
1682999364785056500,5.557056396484375,-0.48079997301101685,0.4415999948978424,-0.5875999927520752
1682999364805056500,5.577056396484375,-0.08020000159740448,0.48539999127388,-0.1476999968290329
1682999364825056500,5.597056396484375,0.33329999446868896,0.3546999990940094,0.2044999897480011
1682999364845056500,5.617056396484375,0.5916999578475952,0.21729999780654907,0.6247999668121338
1682999364865056500,5.637056396484375,0.7066999673843384,0.13249999284744263,0.8675999641418457
1682999364885056500,5.657056396484375,0.6121000051498413,-0.01769999973475933,0.826200008392334
1682999364905056500,5.677056396484375,0.6184999942779541,-0.09950000047683716,0.8543999791145325
1682999364925056500,5.697056396484375,0.6804999709129333,-0.08609999716281891,1.0698999166488647
1682999364945056500,5.717056396484375,0.7328999638557434,0.06159999966621399,1.4721999168395996
1682999364965056500,5.737056396484375,0.6923999786376953,0.26829999685287476,2.217599868774414
1682999364985056500,5.757056396484375,0.6256999969482422,0.03139999881386757,3.5416998863220215
1682999365005056500,5.777056396484375,0.795799970626831,-0.20109999179840088,5.4116997718811035
1682999365025056500,5.797056396484375,1.0813000202178955,-0.18379999697208405,6.032899856567383
1682999365045061000,5.81706103515625,1.164099931716919,0.045399997383356094,4.961299896240234
1682999365065058000,5.83705810546875,0.9987999796867371,0.17669999599456787,3.3838000297546387
1682999365085058000,5.85705810546875,0.5169000029563904,0.18320000171661377,1.5138999223709106
1682999365105058000,5.87705810546875,-0.2037999927997589,0.0340999998152256,-0.3958999812602997
1682999365125058000,5.89705810546875,-0.7547000050544739,-0.41349998116493225,-2.0996999740600586
1682999365145058000,5.91705810546875,-0.5217999815940857,-0.664900004863739,-2.4105000495910645
1682999365165058000,5.93705810546875,0.08079999685287476,-0.5127999782562256,-1.2730000019073486
1682999365185058000,5.95705810546875,0.20989999175071716,-0.20669999718666077,-0.10009999573230743
1682999365205058000,5.97705810546875,-0.14899998903274536,-0.07559999823570251,0.38269999623298645
1682999365225056500,5.997056396484375,-0.3919000029563904,-0.06030000001192093,0.002699999837204814
1682999365245056500,6.017056396484375,-0.5232999920845032,-0.2199999988079071,-0.6098999977111816
1682999365265058000,6.03705810546875,-0.4632999897003174,-0.19900000095367432,-1.306399941444397
1682999365285058000,6.05705810546875,-0.6215999722480774,-0.17149999737739563,-1.706299901008606
1682999365305058000,6.07705810546875,-0.9106000065803528,-0.25220000743865967,-2.07889986038208
1682999365325058000,6.09705810546875,-1.0073999166488647,-0.36550000309944153,-2.355599880218506
1682999365345058000,6.11705810546875,-0.8219999670982361,-0.31029999256134033,-2.5528998374938965
1682999365365058000,6.13705810546875,-0.6173999905586243,-0.10979999601840973,-2.5434999465942383
1682999365385058000,6.15705810546875,-0.5442000031471252,0.13379999995231628,-2.279399871826172
1682999365405058000,6.17705810546875,-0.566100001335144,0.23659999668598175,-1.7618999481201172
1682999365425059600,6.1970595703125,-0.51910001039505,0.2872999906539917,-1.2263000011444092
1682999365445058000,6.21705810546875,-0.33059999346733093,0.1469999998807907,-0.7109000086784363
1682999365465058000,6.23705810546875,0.0689999982714653,0.1922999918460846,-0.36159998178482056
1682999365485058000,6.25705810546875,0.3700999915599823,0.2789999842643738,-0.3050000071525574
1682999365505058000,6.27705810546875,0.4016999900341034,0.262800008058548,-0.46239998936653137
1682999365525058000,6.29705810546875,0.2053999900817871,0.0949999988079071,-0.598800003528595
1682999365545058000,6.31705810546875,0,0.09640000015497208,-0.675000011920929
1682999365565058000,6.33705810546875,-0.18389999866485596,0.1875,-0.6137999892234802
1682999365585058000,6.35705810546875,-0.3905999958515167,0.22739998996257782,-0.20009998977184296
1682999365605058000,6.37705810546875,-0.5212000012397766,0.25369998812675476,0.642799973487854
1682999365625058000,6.39705810546875,-0.36820000410079956,0.26600000262260437,1.3573999404907227
1682999365645058000,6.41705810546875,0.12629999220371246,0.2303999960422516,1.7009999752044678
1682999365665058000,6.43705810546875,0.7871999740600586,-0.18769998848438263,2.272899866104126
1682999365685061000,6.45706103515625,1.058899998664856,-0.1143999993801117,3.6191999912261963
1682999365705058000,6.47705810546875,0.9977999925613403,0.08709999918937683,4.298299789428711
1682999365725058000,6.49705810546875,0.7493000030517578,0.10769999772310257,4.645400047302246
1682999365745058000,6.51705810546875,0.7152999639511108,0.1394999921321869,4.488999843597412
1682999365765058000,6.53705810546875,0.8280999660491943,0.02290000021457672,3.2181999683380127
1682999365785058000,6.55705810546875,0.8712999820709229,-0.008999999612569809,1.3423999547958374
1682999365805058000,6.57705810546875,0.7468999624252319,-0.1735999882221222,-0.31290000677108765
1682999365825056500,6.597056396484375,0.18609999120235443,-0.39139997959136963,-1.3686999082565308
1682999365845058000,6.61705810546875,-0.39899998903274536,-0.5938000082969666,-1.2114999294281006
1682999365865058000,6.63705810546875,-0.6570999622344971,-0.49390000104904175,-0.4050999879837036
1682999365885058000,6.65705810546875,-0.6604999899864197,-0.3384000062942505,0.3561999797821045
1682999365905058000,6.67705810546875,-0.7967000007629395,-0.39259999990463257,0.7114999890327454
1682999365925058000,6.69705810546875,-0.41499999165534973,-0.49300000071525574,0.6354999542236328
1682999365945058000,6.71705810546875,0.21439999341964722,-0.6646999716758728,0.04399999976158142
1682999365965056500,6.737056396484375,0.5817999839782715,-0.7026000022888184,-0.8194999694824219
1682999365985061000,6.75706103515625,0.44919997453689575,-0.7865999937057495,-1.4279999732971191
1682999366005058000,6.77705810546875,0.2639999985694885,-0.6389999985694885,-2.0764000415802
1682999366025058000,6.79705810546875,-0.005499999970197678,-0.459199994802475,-2.4205000400543213
1682999366045058000,6.81705810546875,-0.11509999632835388,-0.18490000069141388,-2.54830002784729
1682999366065058000,6.83705810546875,-0.13079999387264252,0.05989999696612358,-2.4587998390197754
1682999366085058000,6.85705810546875,-0.0802999958395958,0.31869998574256897,-2.3389999866485596
1682999366105058000,6.87705810546875,0.09229999780654907,0.5087000131607056,-1.9646999835968018
1682999366125058000,6.89705810546875,0.18289999663829803,0.5971999764442444,-1.4537999629974365
1682999366145058000,6.91705810546875,0.27309998869895935,0.6444000005722046,-0.9927999973297119
1682999366165058000,6.93705810546875,0.46859997510910034,0.583299994468689,-0.42419999837875366
1682999366185058000,6.95705810546875,0.8636999726295471,0.4958999752998352,0.20349998772144318
1682999366205059600,6.9770595703125,1.2448999881744385,0.46619999408721924,0.9101999998092651
1682999366225059600,6.9970595703125,1.3070999383926392,0.3132999837398529,1.313099980354309
1682999366245059600,7.0170595703125,1.1826000213623047,0.17629998922348022,1.2651000022888184
1682999366265059600,7.0370595703125,1.0958999395370483,0.13759998977184296,1.2970999479293823
1682999366285058000,7.05705810546875,0.824400007724762,0.28119999170303345,1.3503999710083008
1682999366305058000,7.07705810546875,0.44039997458457947,0.36010000109672546,1.7761999368667603
1682999366325058000,7.09705810546875,0.17899999022483826,0.27320000529289246,2.5234999656677246
1682999366345058000,7.11705810546875,0.08449999988079071,0.10639999806880951,3.738600015640259
1682999366365058000,7.13705810546875,0.2970999777317047,-0.10679999738931656,5.2154998779296875
1682999366385058000,7.15705810546875,0.6890999674797058,0.008100000210106373,5.6419997215271
1682999366405058000,7.17705810546875,0.9904999732971191,0.24399998784065247,4.352299690246582
1682999366425058000,7.19705810546875,0.6064000129699707,0.053199999034404755,2.6322999000549316
1682999366445058000,7.21705810546875,0.12389999628067017,0.19280000030994415,0.47259998321533203
1682999366465056500,7.237056396484375,-0.6125999689102173,-0.0731000006198883,-1.0884000062942505
1682999366485059600,7.2570595703125,-1.143399953842163,-0.44609999656677246,-1.7594999074935913
1682999366505059600,7.2770595703125,-1.141700029373169,-0.5640000104904175,-1.9707999229431152
1682999366525059600,7.2970595703125,-0.9083999991416931,-0.6089999675750732,-1.6823999881744385
1682999366545058000,7.31705810546875,-0.5504999756813049,-0.6284999847412109,-1.3464000225067139
1682999366565058000,7.33705810546875,-0.20409999787807465,-0.6837999820709229,-1.059899926185608
1682999366585058000,7.35705810546875,0.02979999966919422,-0.7150999903678894,-1.017300009727478
1682999366605058000,7.37705810546875,0.3343999981880188,-0.567799985408783,-1.2167999744415283
1682999366625058000,7.39705810546875,0.39100000262260437,-0.3766999840736389,-1.7177999019622803
1682999366645058000,7.41705810546875,0.2929999828338623,-0.24779999256134033,-2.2677998542785645
1682999366665058000,7.43705810546875,-0.06390000134706497,-0.09259999543428421,-2.6024999618530273
1682999366685056500,7.457056396484375,-0.18959999084472656,0.13589999079704285,-2.505699872970581
1682999366705058000,7.47705810546875,-0.18850000202655792,0.36879998445510864,-2.193699836730957
1682999366725056500,7.497056396484375,-0.07339999824762344,0.569599986076355,-2.019199848175049
1682999366745059600,7.5170595703125,-0.07169999927282333,0.635699987411499,-1.784999966621399
1682999366765058000,7.53705810546875,0.037699997425079346,0.6918999552726746,-1.3643999099731445
1682999366785058000,7.55705810546875,0.210099995136261,0.761199951171875,-0.865399956703186
1682999366805058000,7.57705810546875,0.5040000081062317,0.7355999946594238,-0.5331999659538269
1682999366825056500,7.597056396484375,0.6962999701499939,0.8161999583244324,-0.3868999779224396
1682999366845058000,7.61705810546875,0.6286999583244324,0.7990999817848206,-0.2692999839782715
1682999366865058000,7.63705810546875,0.40860000252723694,0.7753999829292297,-0.5525000095367432
1682999366885058000,7.65705810546875,0.17509999871253967,0.6976999640464783,-0.6090999841690063
1682999366905058000,7.67705810546875,-0.029600000008940697,0.6498000025749207,-0.46939998865127563
1682999366925058000,7.69705810546875,-0.2150999903678894,0.6204999685287476,-0.37869998812675476
1682999366945056500,7.717056396484375,-0.29009997844696045,0.6604999899864197,-0.19020000100135803
1682999366965058000,7.73705810546875,-0.1598999947309494,0.7030999660491943,0.057499997317790985
1682999366985059600,7.7570595703125,-0.037299998104572296,0.7342000007629395,0.4912000000476837
1682999367005059600,7.7770595703125,0.13409999012947083,0.8299999833106995,1.3569999933242798
1682999367025059600,7.7970595703125,0.19280000030994415,1.1546999216079712,1.6832998991012573
1682999367045058000,7.81705810546875,0.47849997878074646,1.5657999515533447,1.5680999755859375
1682999367065058000,7.83705810546875,0.5799999833106995,1.812399983406067,2.5904998779296875
1682999367085058000,7.85705810546875,-0.07569999992847443,1.699199914932251,3.152599811553955
1682999367105058000,7.87705810546875,-0.5171999931335449,1.3732999563217163,3.537899971008301
1682999367125058000,7.89705810546875,0.032099999487400055,1.2045999765396118,4.716399669647217
1682999367145058000,7.91705810546875,1.067099928855896,1.2552999258041382,5.443699836730957
1682999367165058000,7.93705810546875,1.8461999893188477,1.2674000263214111,5.188699722290039
1682999367185058000,7.95705810546875,2.3661999702453613,0.95169997215271,4.246099948883057
1682999367205058000,7.97705810546875,2.5077998638153076,0.5837000012397766,1.9315999746322632
1682999367225056500,7.997056396484375,2.306999921798706,0.11959999799728394,-1.1160999536514282
1682999367245059600,8.0170595703125,2.063999891281128,-0.5735999941825867,-2.641199827194214
1682999367265059600,8.0370595703125,1.7531999349594116,-1.046199917793274,-2.3339998722076416
1682999367285058000,8.05705810546875,1.376099944114685,-0.9775999784469604,-1.6079999208450317
1682999367305058000,8.07705810546875,1.0888999700546265,-0.9175999760627747,-1.000999927520752
1682999367325058000,8.09705810546875,1.1342999935150146,-0.9200999736785889,-0.7002999782562256
1682999367345058000,8.11705810546875,1.5587999820709229,-0.9620999693870544,-0.7226999998092651
1682999367365056500,8.137056396484375,1.7488999366760254,-1.0157999992370605,-1.055899977684021
1682999367385056500,8.157056396484375,1.6334999799728394,-1.0211999416351318,-1.642899990081787
1682999367405058000,8.17705810546875,1.3666999340057373,-0.95169997215271,-2.0915000438690186
1682999367425058000,8.19705810546875,1.1827999353408813,-0.8420999646186829,-2.127500057220459
1682999367445058000,8.21705810546875,1.032099962234497,-0.6101999878883362,-2.044800043106079
1682999367465059600,8.2370595703125,0.7996000051498413,-0.27809998393058777,-2.058199882507324
1682999367485059600,8.2570595703125,0.5498999953269958,-0.11739999800920486,-1.8260999917984009
1682999367505058000,8.27705810546875,0.2303999960422516,0.02279999852180481,-1.4477999210357666
1682999367525056500,8.297056396484376,0.06589999794960022,0.1973000019788742,-1.129699945449829
1682999367545058000,8.31705810546875,0.11059999465942383,0.3082999885082245,-0.9398999810218811
1682999367565058000,8.33705810546875,0.22089999914169312,0.45350000262260437,-0.7699999809265137
1682999367585058000,8.35705810546875,0.2052999883890152,0.5126000046730042,-0.7089999914169312
1682999367605058000,8.37705810546875,0.4569000005722046,0.4325999915599823,-0.8066999912261963
1682999367625058000,8.39705810546875,0.7621999979019165,0.39489999413490295,-0.9353999495506287
1682999367645058000,8.41705810546875,0.8730999827384949,0.4668999910354614,-1.0638999938964844
1682999367665058000,8.43705810546875,0.8551999926567078,0.561199963092804,-1.0841000080108643
1682999367685059600,8.4570595703125,0.9156000018119812,0.6297000050544739,-0.8890999555587769
1682999367705061000,8.47706103515625,0.9359999895095825,0.8287999629974365,-0.4592999815940857
1682999367725058000,8.49705810546875,0.953499972820282,1.0198999643325806,-0.019999999552965164
1682999367745058000,8.51705810546875,0.8865000009536743,1.1887999773025513,0.13419999182224274
1682999367765058000,8.53705810546875,0.8640999794006348,1.2003999948501587,0.17970000207424164
1682999367785058000,8.55705810546875,0.9805999994277954,0.9948999881744385,0.6355999708175659
1682999367805058000,8.57705810546875,1.250100016593933,0.7213999629020691,1.3743000030517578
1682999367825056500,8.597056396484374,1.3457999229431152,0.5300999879837036,1.7983999252319336
1682999367845058000,8.61705810546875,1.4000999927520752,0.5699999928474426,1.6543999910354614
1682999367865058000,8.63705810546875,1.784999966621399,0.616100013256073,1.0509999990463257
1682999367885058000,8.65705810546875,2.2303998470306396,0.2953999936580658,1.4089999198913574
1682999367905058000,8.67705810546875,2.5027999877929688,0.30399999022483826,2.0804998874664307
1682999367925059600,8.6970595703125,2.0864999294281006,0.40299999713897705,1.9193999767303467
1682999367945058000,8.71705810546875,1.2954999208450317,0.38599997758865356,1.7192000150680542
1682999367965058000,8.73705810546875,0.8557999730110168,0.3635999858379364,1.2537999153137207
1682999367985058000,8.75705810546875,0.5579999685287476,0.15230000019073486,-0.15240000188350677
1682999368005058000,8.77705810546875,0.7583999633789062,-0.40549999475479126,-0.7548999786376953
1682999368025058000,8.79705810546875,1.2524999380111694,-0.8308999538421631,-0.18129999935626984
1682999368045056500,8.817056396484375,1.4010999202728271,-1.0993000268936157,0.41269999742507935
1682999368065058000,8.83705810546875,1.0358999967575073,-1.3348000049591064,0.6735000014305115
1682999368085058000,8.85705810546875,0.685699999332428,-1.4759999513626099,0.5221999883651733
1682999368105058000,8.87705810546875,0.4926999807357788,-1.4404000043869019,0.01899999938905239
1682999368125059600,8.8970595703125,0.36789998412132263,-1.3488999605178833,-0.6284999847412109
1682999368145058000,8.91705810546875,0.08179999887943268,-1.4459999799728394,-1.1276999711990356
1682999368165058000,8.93705810546875,-0.11079999804496765,-1.3287999629974365,-1.6559998989105225
1682999368185056500,8.957056396484376,-0.19629999995231628,-1.038699984550476,-1.792799949645996
1682999368205058000,8.97705810546875,-0.06589999794960022,-0.8410999774932861,-1.5679999589920044
1682999368225056500,8.997056396484375,0.19489999115467072,-0.621399998664856,-1.4017000198364258
1682999368245056500,9.017056396484374,0.37119999527931213,-0.4332999885082245,-1.2932000160217285
1682999368265058000,9.03705810546875,0.3489999771118164,-0.31949999928474426,-1.1547999382019043
1682999368285058000,9.05705810546875,0.16759999096393585,-0.3027999997138977,-1.1927000284194946
1682999368305058000,9.07705810546875,0.13349999487400055,-0.20430000126361847,-1.2596999406814575
1682999368325058000,9.09705810546875,0.1508999913930893,-0.1559000015258789,-0.9635999798774719
1682999368345058000,9.11705810546875,0.10029999911785126,0.07039999961853027,-0.5490999817848206
1682999368365058000,9.13705810546875,0.10920000076293945,0.2595999836921692,-0.06579999625682831
1682999368385058000,9.15705810546875,0.2671999931335449,0.7391999959945679,0.16300000250339508
1682999368405058000,9.17705810546875,0.3601999878883362,1.0961999893188477,0.10689999908208847
1682999368425058000,9.19705810546875,0.2717999815940857,1.1937999725341797,-0.00839999970048666
1682999368445058000,9.21705810546875,0.15969999134540558,1.3309999704360962,0.0729999989271164
1682999368465056500,9.237056396484375,-0.0005999999702908099,1.4660999774932861,0.08659999817609787
1682999368485058000,9.25705810546875,0.0026000000070780516,1.4283000230789185,0.5600000023841858
1682999368505059600,9.2770595703125,0.2012999951839447,1.5448999404907227,1.1194000244140625
1682999368525056500,9.297056396484376,0.40939998626708984,1.6395999193191528,1.5109999179840088
1682999368545059600,9.3170595703125,0.7168999910354614,1.4311000108718872,1.392799973487854
1682999368565059600,9.3370595703125,1.2759000062942505,0.8306999802589417,1.3544999361038208
1682999368585058000,9.35705810546875,1.3514999151229858,0.6021999716758728,2.1915998458862305
1682999368605058000,9.37705810546875,1.1532999277114868,0.5748999714851379,3.315199851989746
1682999368625058000,9.39705810546875,0.9729999899864197,0.7096999883651733,3.868499994277954
1682999368645058000,9.41705810546875,0.6018999814987183,0.48169997334480286,3.249199867248535
1682999368665058000,9.43705810546875,0.5864999890327454,-0.0071000000461936,1.3736000061035156
1682999368685058000,9.45705810546875,0.8646000027656555,-0.7286999821662903,-0.0786999985575676
1682999368705058000,9.47705810546875,1.1098999977111816,-1.4132000207901,-0.47839999198913574
1682999368725056500,9.497056396484375,0.9739999771118164,-1.7081999778747559,0.1395999938249588
1682999368745072000,9.517072021484376,0.8077999949455261,-1.7012999057769775,0.5081999897956848
1682999368765058000,9.53705810546875,0.42980000376701355,-1.7695999145507812,-0.2043999880552292
1682999368785058000,9.55705810546875,0.4739999771118164,-1.886099934577942,-1.2975000143051147
1682999368805058000,9.57705810546875,1.013800024986267,-2.092099905014038,-1.5241999626159668
1682999368825056500,9.597056396484374,1.5312999486923218,-1.992799997329712,-1.3583999872207642
1682999368845058000,9.61705810546875,1.6649999618530273,-1.7440999746322632,-1.271799921989441
1682999368865058000,9.63705810546875,1.5479999780654907,-1.4074000120162964,-1.431399941444397
1682999368885059600,9.6570595703125,1.2864999771118164,-1.1847000122070312,-1.8150999546051025
1682999368905058000,9.67705810546875,1.173200011253357,-0.9380999803543091,-1.7746999263763428
1682999368925058000,9.69705810546875,0.9396999478340149,-0.5504999756813049,-1.3503999710083008
1682999368945059600,9.7170595703125,0.6067000031471252,-0.2969000041484833,-0.7792999744415283
1682999368965058000,9.73705810546875,0.557200014591217,-0.13840000331401825,-0.32690000534057617
1682999368985058000,9.75705810546875,0.983199954032898,-0.01549999974668026,-0.29600000381469727
1682999369005058000,9.77705810546875,1.5364999771118164,0.18209999799728394,-0.5475999712944031
1682999369025056500,9.797056396484376,1.6715999841690063,0.30949997901916504,-0.7200999855995178
1682999369045058000,9.81705810546875,1.3561999797821045,0.3245999813079834,-0.6478999853134155
1682999369065058000,9.83705810546875,1.003000020980835,0.37880000472068787,-0.3206000030040741
1682999369085058000,9.85705810546875,0.8886999487876892,0.7028999924659729,-0.03229999914765358
1682999369105058000,9.87705810546875,0.6606000065803528,1.0872999429702759,0.020600000396370888
1682999369125058000,9.89705810546875,0.3431999981403351,1.1308000087738037,-0.1046999990940094
1682999369145058000,9.91705810546875,0.19579999148845673,1.1366000175476074,-0.006899999920278788
1682999369165058000,9.93705810546875,0.3046000003814697,1.1340999603271484,0.3349999785423279
1682999369185056500,9.957056396484376,0.5315999984741211,1.1241999864578247,0.5680999755859375
1682999369205058000,9.97705810546875,0.8944000005722046,0.9858999848365784,0.740399956703186
1682999369225056500,9.997056396484375,1.1908999681472778,0.8032000064849854,0.7748000025749207
1682999369245059600,10.0170595703125,1.4092999696731567,0.6992999911308289,0.8876999616622925
1682999369265059600,10.0370595703125,1.5012999773025513,0.612500011920929,1.3446999788284302
1682999369285058000,10.05705810546875,1.4125999212265015,0.41419997811317444,2.125499963760376
1682999369305058000,10.07705810546875,1.477199912071228,0.2028999924659729,2.9941999912261963
1682999369325058000,10.09705810546875,2.0560998916625977,-0.08509999513626099,3.8040997982025146
1682999369345058000,10.11705810546875,2.547999858856201,-0.10029999911785126,3.3488998413085938
1682999369365058000,10.13705810546875,2.1572999954223633,-0.052299998700618744,-0.24249999225139618
1682999369385058000,10.15705810546875,1.6696999073028564,-0.8262999653816223,-3.174299955368042
1682999369405059600,10.1770595703125,1.291100025177002,-1.8655999898910522,-3.2390999794006348
1682999369425059600,10.1970595703125,0.6444000005722046,-2.115000009536743,-0.9501999616622925
1682999369445058000,10.21705810546875,0.10300000011920929,-1.675399899482727,1.452299952507019
1682999369465056500,10.237056396484375,0.037699997425079346,-1.0067999362945557,2.8027000427246094
1682999369485058000,10.25705810546875,0.701200008392334,-0.6545000076293945,2.406899929046631
1682999369505058000,10.27705810546875,1.8148999214172363,-0.5702999830245972,0.34709998965263367
1682999369525056500,10.297056396484376,2.1579999923706055,-0.8125999569892883,-0.8449999690055847
1682999369545058000,10.31705810546875,1.712499976158142,-0.9095999598503113,-1.4182000160217285
1682999369565058000,10.33705810546875,0.7035999894142151,-0.9052000045776367,-1.5515999794006348
1682999369585059600,10.3570595703125,0.2547999918460846,-0.6029999852180481,-1.0686999559402466
1682999369605059600,10.3770595703125,0.19179999828338623,-0.3246999979019165,-0.3902999758720398
1682999369625058000,10.39705810546875,0.32729998230934143,-0.26759999990463257,-0.07459999620914459
1682999369645058000,10.41705810546875,0.7640999555587769,-0.3798999786376953,0.11259999871253967
1682999369665059600,10.4370595703125,1.2833999395370483,-0.5579000115394592,0.33809998631477356
1682999369685058000,10.45705810546875,1.354099988937378,-0.611799955368042,0.05299999937415123
1682999369705058000,10.47705810546875,1.1212999820709229,-0.6798999905586243,-0.24129998683929443
1682999369725056500,10.497056396484375,0.7472999691963196,-0.8623999953269958,-0.2809999883174896
1682999369745058000,10.51705810546875,0.5202999711036682,-1.0521999597549438,-0.6154999732971191
1682999369765061000,10.53706103515625,0.3951999843120575,-1.2006999254226685,-0.9882999658584595
1682999369785058000,10.55705810546875,0.3319000005722046,-1.2064999341964722,-1.2530999183654785
1682999369805058000,10.57705810546875,0.3199999928474426,-1.184399962425232,-1.389799952507019
1682999369825056500,10.597056396484374,0.4786999821662903,-1.114799976348877,-1.3104000091552734
1682999369845058000,10.61705810546875,0.6118999719619751,-0.9426999688148499,-0.7888999581336975
1682999369865058000,10.63705810546875,0.6972000002861023,-0.7239999771118164,-0.022599998861551285
1682999369885058000,10.65705810546875,0.6043999791145325,-0.5361999869346619,0.4778999984264374
1682999369905058000,10.67705810546875,0.5302000045776367,-0.5241000056266785,0.4296000003814697
1682999369925058000,10.69705810546875,0.6123999953269958,-0.5137999653816223,0.029199998825788498
1682999369945058000,10.71705810546875,0.8387999534606934,-0.40609997510910034,-0.27070000767707825
1682999369965058000,10.73705810546875,1.0191999673843384,-0.17170000076293945,-0.09809999912977219
1682999369985058000,10.75705810546875,1.2889000177383423,-0.035599999129772186,0.6920999884605408
1682999370005058000,10.77705810546875,1.4643999338150024,-0.05419999733567238,1.7556999921798706
1682999370025056500,10.797056396484376,1.4227999448776245,0.016099998727440834,2.8969998359680176
1682999370045056500,10.817056396484375,1.239300012588501,0.10939999669790268,3.4507999420166016
1682999370065058000,10.83705810546875,1.2207999229431152,0.05179999768733978,4.00570011138916
1682999370085056500,10.857056396484374,1.468500018119812,-0.03879999741911888,4.815099716186523
1682999370105058000,10.87705810546875,1.6434999704360962,-0.023899998515844345,5.105199813842773
1682999370125058000,10.89705810546875,1.4132999181747437,0.0794999971985817,3.9263999462127686
1682999370145058000,10.91705810546875,0.760699987411499,0.12150000035762787,1.3389999866485596
1682999370165058000,10.93705810546875,0.21319998800754547,-0.25540000200271606,-0.7634999752044678
1682999370185058000,10.95705810546875,-0.08100000023841858,-0.8438999652862549,-1.0716999769210815
1682999370205058000,10.97705810546875,-0.22419999539852142,-0.7852999567985535,-0.21889999508857727
1682999370225056500,10.997056396484375,-0.5169999599456787,-0.4943999946117401,0.7361999750137329
1682999370245058000,11.01705810546875,-1.1658999919891357,-0.4292999804019928,0.7146999835968018
1682999370265058000,11.03705810546875,-1.2648999691009521,-0.7691999673843384,-0.3869999945163727
1682999370285058000,11.05705810546875,-0.7361999750137329,-1.1186000108718872,-1.413699984550476
1682999370305058000,11.07705810546875,-0.47049999237060547,-1.255199909210205,-1.8396999835968018
1682999370325056500,11.097056396484374,-0.6543999910354614,-1.3983999490737915,-2.102400064468384
1682999370345058000,11.11705810546875,-0.6827999949455261,-1.5209999084472656,-2.476300001144409
1682999370365058000,11.13705810546875,-0.08060000091791153,-1.3877999782562256,-2.566499948501587
1682999370385058000,11.15705810546875,0.5254999995231628,-0.945099949836731,-2.21589994430542
1682999370405058000,11.17705810546875,0.6358999609947205,-0.6541999578475952,-1.8569999933242798
1682999370425058000,11.19705810546875,0.46959999203681946,-0.44349998235702515,-1.8336999416351318
1682999370445058000,11.21705810546875,0.2069000005722046,-0.43140000104904175,-1.7151999473571777
1682999370465058000,11.23705810546875,0.12559999525547028,-0.39249998331069946,-1.6644999980926514
1682999370485058000,11.25705810546875,0.22450000047683716,-0.23279999196529388,-1.5321999788284302
1682999370505058000,11.27705810546875,0.29600000381469727,-0.029600000008940697,-0.9976999759674072
1682999370525056500,11.297056396484376,0.39309999346733093,-0.12680000066757202,-0.48409998416900635
1682999370545056500,11.317056396484375,0.4959999918937683,-0.03059999831020832,-0.09989999979734421
1682999370565058000,11.33705810546875,0.5490999817848206,0.11539999395608902,0.14880000054836273
1682999370585058000,11.35705810546875,0.4311999976634979,0.13339999318122864,0.3312000036239624
1682999370605058000,11.37705810546875,0.28689998388290405,0.1265999972820282,0.1136000007390976
1682999370625058000,11.39705810546875,0.19249999523162842,0.11999999731779099,-0.16200000047683716
1682999370645058000,11.41705810546875,0.3165999948978424,0.26319998502731323,0.19789999723434448
1682999370665058000,11.43705810546875,0.43309998512268066,0.42089998722076416,1.027999997138977
1682999370685056500,11.457056396484376,0.6078999638557434,0.4779999852180481,2.0548999309539795
1682999370705058000,11.47705810546875,0.5009999871253967,0.26999998092651367,3.022599935531616
1682999370725056500,11.497056396484375,0.636900007724762,0.125900000333786,3.932799816131592
1682999370745056500,11.517056396484374,1.1216999292373657,-0.35899999737739563,5.4126996994018555
1682999370765058000,11.53705810546875,1.3765000104904175,-0.8064999580383301,5.950900077819824
1682999370785058000,11.55705810546875,1.3695999383926392,-0.9666999578475952,4.204699993133545
1682999370805058000,11.57705810546875,1.0576000213623047,-0.9497999548912048,3.088399887084961
1682999370825056500,11.597056396484374,0.25029999017715454,-0.7252999544143677,2.363100051879883
1682999370845058000,11.61705810546875,-1.0887999534606934,-0.5275999903678894,0.5181999802589417
1682999370865056500,11.637056396484375,-2.120800018310547,-0.7694000005722046,-1.6994999647140503
1682999370885058000,11.65705810546875,-2.0339999198913574,-1.0958999395370483,-2.7402000427246094
1682999370905058000,11.67705810546875,-1.0727999210357666,-0.9918999671936035,-2.1434998512268066
1682999370925058000,11.69705810546875,-0.3243999779224396,-0.4649999737739563,-0.8616999983787537
1682999370945058000,11.71705810546875,-0.257999986410141,-0.22019998729228973,0.20109999179840088
1682999370965058000,11.73705810546875,-0.3634999990463257,-0.32179999351501465,0.3206999897956848
1682999370985058000,11.75705810546875,-0.11349999904632568,-0.4822999835014343,-0.4578000009059906
1682999371005058000,11.77705810546875,0.024399999529123306,-0.6043999791145325,-1.132599949836731
1682999371025058000,11.79705810546875,0.002699999837204814,-0.4283999800682068,-1.4614999294281006
1682999371045058000,11.81705810546875,-0.4578999876976013,-0.2987000048160553,-1.5755000114440918
1682999371065058000,11.83705810546875,-0.8427000045776367,-0.21409998834133148,-1.4365999698638916
1682999371085058000,11.85705810546875,-1.007699966430664,-0.004699999932199717,-1.0052000284194946
1682999371105058000,11.87705810546875,-1.0729999542236328,0.2937999963760376,-0.7204999923706055
1682999371125058000,11.89705810546875,-1.1212999820709229,0.46469998359680176,-0.876800000667572
1682999371145058000,11.91705810546875,-1.0758999586105347,0.4081999957561493,-1.5331999063491821
1682999371165058000,11.93705810546875,-0.8833000063896179,0.32429999113082886,-2.219399929046631
1682999371185056500,11.957056396484376,-0.6121999621391296,0.38670000433921814,-2.2774999141693115
1682999371205058000,11.97705810546875,-0.47049999237060547,0.5515999794006348,-1.992799997329712
1682999371225056500,11.997056396484375,-0.3625999987125397,0.7116999626159668,-1.473099946975708
1682999371245056500,12.017056396484374,-0.22519999742507935,0.7953000068664551,-0.9055999517440796
1682999371265058000,12.03705810546875,-0.06239999830722809,0.8170999884605408,-0.368399977684021
1682999371285058000,12.05705810546875,0.14299999177455902,0.9273999929428101,0.06189999729394913
1682999371305058000,12.07705810546875,0.47119998931884766,1.0302000045776367,0.2092999964952469
1682999371325056500,12.097056396484374,0.5426999926567078,0.8371999859809875,0.12359999865293503
1682999371345058000,12.11705810546875,0.42829999327659607,0.7917999625205994,0.03920000046491623
1682999371365058000,12.13705810546875,0.20649999380111694,0.9193999767303467,0.3082999885082245
1682999371385058000,12.15705810546875,-0.1410999894142151,0.9301999807357788,0.7817999720573425
1682999371405058000,12.17705810546875,-0.3154999911785126,0.8928999900817871,0.9889999628067017
1682999371425058000,12.19705810546875,-0.44099998474121094,0.8353999853134155,1.2760999202728271
1682999371445056500,12.217056396484375,-0.2922999858856201,0.7519999742507935,2.485299825668335
1682999371465058000,12.23705810546875,-0.1662999987602234,0.8289999961853027,3.702199935913086
1682999371485058000,12.25705810546875,0.09619999676942825,0.5099999904632568,4.466300010681152
1682999371505058000,12.27705810546875,0.5733000040054321,0.06700000166893005,4.631199836730957
1682999371525058000,12.29705810546875,1.0432000160217285,-0.24969999492168427,3.8550000190734863
1682999371545058000,12.31705810546875,1.1572999954223633,-0.39469999074935913,2.1335999965667725
1682999371565058000,12.33705810546875,0.8495000004768372,-0.35899999737739563,0.46639999747276306
1682999371585058000,12.35705810546875,0.19020000100135803,-0.5027999877929688,-0.8255999684333801
1682999371605058000,12.37705810546875,-0.5406000018119812,-0.5047000050544739,-1.324199914932251
1682999371625058000,12.39705810546875,-0.8574000000953674,-0.5180000066757202,-0.9545999765396118
1682999371645058000,12.41705810546875,-0.7019999623298645,-0.42239999771118164,-0.29569998383522034
1682999371665058000,12.43705810546875,-0.21119999885559082,-0.3610999882221222,0.29089999198913574
1682999371685058000,12.45705810546875,0.052299998700618744,-0.3434999883174896,0.9230999946594238
1682999371705058000,12.47705810546875,0.11409999430179596,-0.4148999750614166,0.6143999695777893
1682999371725058000,12.49705810546875,0.07079999893903732,-0.4739999771118164,0.14149999618530273
1682999371745056500,12.517056396484374,0.07689999788999557,-0.43449997901916504,-0.4488999843597412
1682999371765058000,12.53705810546875,0.10669999569654465,-0.4407999813556671,-0.949999988079071
1682999371785058000,12.55705810546875,0.2069000005722046,-0.44209998846054077,-1.333400011062622
1682999371805058000,12.57705810546875,0.37880000472068787,-0.3418999910354614,-1.7563999891281128
1682999371825056500,12.597056396484374,0.4269999861717224,-0.21289999783039093,-1.893399953842163
1682999371845058000,12.61705810546875,0.4162999987602234,-0.09600000083446503,-1.7750999927520752
1682999371865058000,12.63705810546875,0.4140999913215637,-0.04619999974966049,-1.7071999311447144
1682999371885058000,12.65705810546875,0.4836999773979187,-0.018299998715519905,-1.6595999002456665
1682999371905058000,12.67705810546875,0.2985999882221222,-0.10269999504089355,-1.7888000011444092
1682999371925058000,12.69705810546875,0.08879999816417694,-0.09989999979734421,-1.8680999279022217
1682999371945058000,12.71705810546875,-0.02319999970495701,-0.07249999791383743,-1.6626999378204346
1682999371965058000,12.73705810546875,-0.05179999768733978,-0.003399999812245369,-1.1654000282287598
1682999371985058000,12.75705810546875,-0.07859999686479568,0.09259999543428421,-0.7288999557495117
1682999372005058000,12.77705810546875,-0.15230000019073486,0.11180000007152557,-0.26159998774528503
1682999372025058000,12.79705810546875,0.06549999862909317,-0.06069999933242798,-0.11459999531507492
1682999372045058000,12.81705810546875,0.31209999322891235,-0.05299999937415123,-0.09319999814033508
1682999372065058000,12.83705810546875,0.5938999652862549,0.21699999272823334,0.23160000145435333
1682999372085058000,12.85705810546875,0.712399959564209,0.5389999747276306,0.967199981212616
1682999372105058000,12.87705810546875,0.6150000095367432,0.786899983882904,1.6132999658584595
1682999372125058000,12.89705810546875,0.38999998569488525,0.8032999634742737,1.768799901008606
1682999372145058000,12.91705810546875,0.5375999808311462,0.7730000019073486,1.9057999849319458
1682999372165058000,12.93705810546875,0.991599977016449,0.6110999584197998,2.6606998443603516
1682999372185058000,12.95705810546875,1.271399974822998,0.47099998593330383,4.15939998626709
1682999372205058000,12.97705810546875,1.0160999298095703,0.47269999980926514,5.01609992980957
1682999372225056500,12.997056396484375,0.4869000017642975,0.21079999208450317,4.177299976348877
1682999372245056500,13.017056396484374,0.4738999903202057,-0.1160999983549118,3.351799964904785
1682999372265058000,13.03705810546875,0.6496999859809875,-0.02759999968111515,3.0264999866485596
1682999372285058000,13.05705810546875,0.06239999830722809,0.05819999799132347,1.7583999633789062
1682999372305058000,13.07705810546875,-0.3685999810695648,-0.017099998891353607,-0.350600004196167
1682999372325056500,13.097056396484374,-0.7827999591827393,-0.2621999979019165,-1.9484999179840088
1682999372345058000,13.11705810546875,-0.6273999810218811,-0.47529998421669006,-2.085700035095215
1682999372365058000,13.13705810546875,-0.3100999891757965,-0.3626999855041504,-1.1466000080108643
1682999372385058000,13.15705810546875,-0.243599995970726,-0.1882999986410141,-0.298799991607666
1682999372405058000,13.17705810546875,-0.3868999779224396,-0.15109999477863312,0.08810000121593475
1682999372425058000,13.19705810546875,-0.5562999844551086,-0.3504999876022339,0.0038999998942017555
1682999372445058000,13.21705810546875,-0.48339998722076416,-0.5024999976158142,-0.2833999991416931
1682999372465058000,13.23705810546875,-0.49399998784065247,-0.41519999504089355,-0.7238999605178833
1682999372485058000,13.25705810546875,-0.7583999633789062,-0.3994999825954437,-1.1231999397277832
1682999372505058000,13.27705810546875,-0.9793999791145325,-0.42969998717308044,-1.4733999967575073
1682999372525058000,13.29705810546875,-1.0382999181747437,-0.40209999680519104,-1.5505999326705933
1682999372545058000,13.31705810546875,-1.0088999271392822,-0.3208000063896179,-1.3931999206542969
1682999372565058000,13.33705810546875,-0.8960999846458435,-0.0965999960899353,-1.353600025177002
1682999372585058000,13.35705810546875,-0.8920999765396118,0.13529999554157257,-1.2071999311447144
1682999372605058000,13.37705810546875,-0.9478999972343445,0.1816999912261963,-1.1404999494552612
1682999372625058000,13.39705810546875,-1.0435999631881714,0.09600000083446503,-1.3483999967575073
1682999372645058000,13.41705810546875,-0.9073999524116516,-0.009099999442696571,-1.3007999658584595
1682999372665058000,13.43705810546875,-0.6190999746322632,-0.10740000009536743,-1.2340999841690063
1682999372685058000,13.45705810546875,-0.43719998002052307,-0.2037999927997589,-1.1675000190734863
1682999372705058000,13.47705810546875,-0.2443999946117401,-0.14469999074935913,-1.0125999450683594
1682999372725056500,13.497056396484375,-0.16599999368190765,0.12239999324083328,-0.632099986076355
1682999372745056500,13.517056396484374,-0.19669999182224274,0.29999998211860657,-0.4569999873638153
1682999372765058000,13.53705810546875,-0.13930000364780426,0.3828999996185303,-0.5351999998092651
1682999372785058000,13.55705810546875,-0.07419999688863754,0.5706999897956848,-0.29899999499320984
1682999372805056500,13.577056396484375,-0.05999999865889549,0.8315999507904053,0.054099999368190765
1682999372825056500,13.597056396484374,-0.07339999824762344,1.052799940109253,0.6721000075340271
1682999372845058000,13.61705810546875,-0.0786999985575676,1.1927999258041382,1.3394999504089355
1682999372865058000,13.63705810546875,0.02719999849796295,1.2465999126434326,1.8111999034881592
1682999372885058000,13.65705810546875,0.3125,0.7866999506950378,2.5576000213623047
1682999372905058000,13.67705810546875,0.6498000025749207,0.6662999987602234,3.695199966430664
1682999372925058000,13.69705810546875,0.7272999882698059,0.7818999886512756,3.567699909210205
1682999372945058000,13.71705810546875,0.8805999755859375,0.545799970626831,3.178999900817871
1682999372965056500,13.737056396484375,0.95169997215271,0.14509999752044678,3.3362998962402344
1682999372985058000,13.75705810546875,1.1549999713897705,-0.1680999994277954,2.9057998657226562
1682999373005058000,13.77705810546875,1.145900011062622,-0.1087999939918518,2.0851998329162598
1682999373025058000,13.79705810546875,0.9695000052452087,-0.03539999946951866,0.7465999722480774
1682999373045056500,13.817056396484375,0.882599949836731,-0.0746999979019165,-0.540399968624115
1682999373065058000,13.83705810546875,0.3969999849796295,-0.33869999647140503,-1.1101999282836914
1682999373085058000,13.85705810546875,-0.012999999336898327,-0.5982999801635742,-1.0707999467849731
1682999373105058000,13.87705810546875,-0.5704999566078186,-0.5077999830245972,-0.31939998269081116
1682999373125058000,13.89705810546875,-1.11489999294281,-0.22289998829364777,0.49219998717308044
1682999373145058000,13.91705810546875,-1.1963999271392822,-0.3028999865055084,0.7324999570846558
1682999373165058000,13.93705810546875,-0.6832999587059021,-0.6811000108718872,0.11270000040531158
1682999373185058000,13.95705810546875,-0.008999999612569809,-0.9186999797821045,-0.6897000074386597
1682999373205058000,13.97705810546875,0.43629997968673706,-0.9758999943733215,-1.0787999629974365
1682999373225056500,13.997056396484375,0.4616999924182892,-0.7963999509811401,-1.0882999897003174
1682999373245056500,14.017056396484374,0.2854999899864197,-0.5564000010490417,-0.8935999870300293
1682999373265058000,14.03705810546875,0.1517999917268753,-0.28790000081062317,-0.5812000036239624
1682999373285058000,14.05705810546875,0.08419999480247498,-0.15119999647140503,-0.611299991607666
1682999373305058000,14.07705810546875,0.10529999434947968,-0.0965999960899353,-0.9538999795913696
1682999373325056500,14.097056396484374,0.004399999976158142,0.024000000208616257,-1.2960000038146973
1682999373345058000,14.11705810546875,-0.18539999425411224,0.125,-1.274999976158142
1682999373365058000,14.13705810546875,-0.5189999938011169,0.2636999785900116,-1.1664999723434448
1682999373385058000,14.15705810546875,-0.6604999899864197,0.3012000024318695,-1.2338999509811401
1682999373405058000,14.17705810546875,-0.5252000093460083,0.27539998292922974,-1.4098999500274658
1682999373425058000,14.19705810546875,-0.30820000171661377,0.18979999423027039,-1.5275999307632446
1682999373445058000,14.21705810546875,-0.09059999883174896,0.16699999570846558,-1.4392999410629272
1682999373465058000,14.23705810546875,-0.019999999552965164,0.289000004529953,-0.9302999973297119
1682999373485058000,14.25705810546875,0.07939999550580978,0.47360000014305115,-0.44200000166893005
1682999373505058000,14.27705810546875,0.11349999904632568,0.5170999765396118,0.035599999129772186
1682999373525058000,14.29705810546875,0.421099990606308,0.4772999882698059,0.3464999794960022
1682999373545058000,14.31705810546875,0.6608999967575073,0.49390000104904175,0.43309998512268066
1682999373565058000,14.33705810546875,0.6477999687194824,0.569599986076355,0.8445000052452087
1682999373585058000,14.35705810546875,0.4439999759197235,0.6502000093460083,1.3528000116348267
1682999373605058000,14.37705810546875,0.289000004529953,0.4975999891757965,1.7135999202728271
1682999373625058000,14.39705810546875,0.5217999815940857,0.23279999196529388,2.300299882888794
1682999373645058000,14.41705810546875,1.0663999319076538,0.029600000008940697,3.5135998725891113
1682999373665058000,14.43705810546875,1.4234999418258667,0.03319999948143959,4.774199962615967
1682999373685058000,14.45705810546875,1.511799931526184,-0.08669999986886978,5.308700084686279
1682999373705058000,14.47705810546875,1.3550000190734863,-0.14630000293254852,4.903899669647217
1682999373725056500,14.497056396484375,0.9878999590873718,-0.17419999837875366,3.64739990234375
1682999373745056500,14.517056396484374,0.49239999055862427,-0.04149999842047691,1.7458999156951904
1682999373765058000,14.53705810546875,0.1021999940276146,-0.04690000042319298,-0.28129997849464417
1682999373785058000,14.55705810546875,-0.28119999170303345,-0.09439999610185623,-2.130199909210205
1682999373805058000,14.57705810546875,-0.6212999820709229,-0.375900000333786,-2.292799949645996
1682999373825056500,14.597056396484374,-0.6574999690055847,-0.021800000220537186,-1.3517999649047852
1682999373845058000,14.61705810546875,-0.7288999557495117,0.26600000262260437,-0.23819999396800995
1682999373865058000,14.63705810546875,-1.051900029182434,0.24799999594688416,0.10740000009536743
1682999373885058000,14.65705810546875,-1.027400016784668,-0.06859999895095825,-0.3102000057697296
1682999373905058000,14.67705810546875,-0.5834999680519104,-0.3552999794483185,-0.9205999970436096
1682999373925058000,14.69705810546875,-0.27149999141693115,-0.48589998483657837,-1.3032000064849854
1682999373945058000,14.71705810546875,-0.24479998648166656,-0.41099998354911804,-1.614799976348877
1682999373965058000,14.73705810546875,-0.39100000262260437,-0.3885999917984009,-1.545199990272522
1682999373985058000,14.75705810546875,-0.6191999912261963,-0.4170999825000763,-1.4675999879837036
1682999374005058000,14.77705810546875,-0.6293999552726746,-0.42719998955726624,-1.5468999147415161
1682999374025058000,14.79705810546875,-0.5116999745368958,-0.3862999975681305,-1.5180000066757202
1682999374045058000,14.81705810546875,-0.5607999563217163,-0.36010000109672546,-1.3708999156951904
1682999374065058000,14.83705810546875,-0.6924999952316284,-0.23770000040531158,-1.3603999614715576
1682999374085058000,14.85705810546875,-0.8944999575614929,-0.14249999821186066,-1.1842999458312988
1682999374105058000,14.87705810546875,-0.9451999664306641,-0.1370999962091446,-0.9904999732971191
1682999374125058000,14.89705810546875,-0.7491999864578247,-0.13109999895095825,-0.8655999898910522
1682999374145058000,14.91705810546875,-0.4404999911785126,-0.16859999299049377,-0.8377999663352966
1682999374165058000,14.93705810546875,-0.14149999618530273,-0.12229999899864197,-0.8967999815940857
1682999374185058000,14.95705810546875,-0.029399998486042023,-0.09359999746084213,-0.7888999581336975
1682999374205058000,14.97705810546875,-0.07180000096559525,0.0279999990016222,-0.5928999781608582
1682999374225058000,14.99705810546875,-0.171999990940094,0.25360000133514404,-0.10249999910593033
1682999374245058000,15.01705810546875,-0.24929998815059662,0.4554999768733978,0.2797999978065491
1682999374265058000,15.03705810546875,-0.3172999918460846,0.6057999730110168,0.49559998512268066
1682999374285058000,15.05705810546875,-0.2639999985694885,0.7638999819755554,0.5160999894142151
1682999374305058000,15.07705810546875,-0.23510000109672546,0.8436999917030334,0.6549999713897705
1682999374325056500,15.097056396484374,-0.1581999957561493,0.7453999519348145,1.1274999380111694
1682999374345058000,15.11705810546875,-0.12029999494552612,0.5669000148773193,1.5606999397277832
1682999374365056500,15.137056396484375,0.4633999764919281,0.3693999946117401,2.4842000007629395
1682999374385058000,15.15705810546875,0.8657999634742737,0.63919997215271,3.5937998294830322
1682999374405058000,15.17705810546875,1.0884000062942505,0.6699000000953674,4.116499900817871
1682999374425058000,15.19705810546875,1.0715999603271484,0.4941999912261963,4.374499797821045
1682999374445058000,15.21705810546875,1.0884000062942505,0.3992999792098999,4.393499851226807
1682999374465058000,15.23705810546875,1.0614999532699585,0.3357999920845032,3.6292998790740967
1682999374485058000,15.25705810546875,0.8269000053405762,0.3012999892234802,2.1995999813079834
1682999374505058000,15.27705810546875,0.3254999816417694,0.17180000245571136,0.12459999322891235
1682999374525056500,15.297056396484376,-0.1412999927997589,-0.2838999927043915,-1.5769999027252197
1682999374545056500,15.317056396484375,-0.28610000014305115,-0.8259999752044678,-1.9656999111175537
1682999374565058000,15.33705810546875,-0.22779999673366547,-0.7457999587059021,-1.0425000190734863
1682999374585058000,15.35705810546875,-0.4271000027656555,-0.3206999897956848,0.22909998893737793
1682999374605056500,15.377056396484376,-0.7328000068664551,-0.14639998972415924,0.7051999568939209
1682999374625058000,15.39705810546875,-0.663599967956543,-0.29109999537467957,0.06449999660253525
1682999374645058000,15.41705810546875,-0.2676999866962433,-0.7301999926567078,-0.7598999738693237
1682999374665058000,15.43705810546875,-0.0575999990105629,-0.8707000017166138,-1.1217999458312988
1682999374685058000,15.45705810546875,-0.20499999821186066,-0.7428999543190002,-1.493499994277954
1682999374705058000,15.47705810546875,-0.45399999618530273,-0.6158999800682068,-1.4061999320983887
1682999374725056500,15.497056396484375,-0.4528999924659729,-0.39149999618530273,-1.6033999919891357
1682999374745056500,15.517056396484374,-0.26010000705718994,-0.19370000064373016,-1.8389999866485596
1682999374765058000,15.53705810546875,-0.06229999661445618,-0.04089999943971634,-2.0541000366210938
1682999374785058000,15.55705810546875,-0.004900000058114529,0.11620000004768372,-1.954699993133545
1682999374805058000,15.57705810546875,-0.06469999998807907,0.29569998383522034,-1.5328999757766724
1682999374825056500,15.597056396484374,-0.19380000233650208,0.4921000003814697,-1.230199933052063
1682999374845058000,15.61705810546875,-0.22049999237060547,0.5338000059127808,-1.1441999673843384
1682999374865058000,15.63705810546875,-0.08469999581575394,0.5760999917984009,-1.0483999252319336
1682999374885058000,15.65705810546875,0.21310000121593475,0.4355999827384949,-0.8934999704360962
1682999374905058000,15.67705810546875,0.3434000015258789,0.3407999873161316,-0.5817999839782715
1682999374925058000,15.69705810546875,0.3082999885082245,0.3174999952316284,-0.20269998908042908
1682999374945058000,15.71705810546875,0.37599998712539673,0.42399999499320984,0.23479999601840973
1682999374965058000,15.73705810546875,0.36149999499320984,0.5421000123023987,0.2708999812602997
1682999374985058000,15.75705810546875,0.4696999788284302,0.39409998059272766,0.43629997968673706
1682999375005058000,15.77705810546875,0.6897000074386597,0.39729997515678406,0.8466999530792236
1682999375025058000,15.79705810546875,0.840999960899353,0.42659997940063477,1.40339994430542
1682999375045058000,15.81705810546875,0.9174999594688416,0.6491000056266785,2.0092999935150146
1682999375065058000,15.83705810546875,0.9050999879837036,0.6820999979972839,2.762899875640869
1682999375085058000,15.85705810546875,1.0144000053405762,0.5020999908447266,3.457899808883667
1682999375105058000,15.87705810546875,1.240299940109253,0.22450000047683716,4.701600074768066
1682999375125058000,15.89705810546875,1.166100025177002,0.05480000004172325,5.404599666595459
1682999375145058000,15.91705810546875,1.195599913597107,-0.16859999299049377,4.696599960327148
1682999375165058000,15.93705810546875,1.146899938583374,-0.46559998393058777,3.940499782562256
1682999375185058000,15.95705810546875,1.1651999950408936,-0.6040999889373779,3.1661999225616455
1682999375205058000,15.97705810546875,0.852400004863739,-0.48099997639656067,1.7941999435424805
1682999375225056500,15.997056396484375,0.09429999440908432,-0.6816999912261963,0.33390000462532043
1682999375245058000,16.01705810546875,-0.663100004196167,-0.8180999755859375,-1.6584999561309814
1682999375265058000,16.03705810546875,-0.8256999850273132,-1.0830999612808228,-2.612499952316284
1682999375285061000,16.05706103515625,-0.708899974822998,-0.8297999501228333,-2.5470998287200928
1682999375305058000,16.07705810546875,-0.5098999738693237,-0.4708999991416931,-2.412299871444702
1682999375325058000,16.09705810546875,-0.5853999853134155,-0.36649999022483826,-2.6098999977111816
1682999375345058000,16.11705810546875,-0.5863999724388123,-0.3628000020980835,-2.375499963760376
1682999375365058000,16.13705810546875,-0.49779999256134033,-0.14419999718666077,-1.9948999881744385
1682999375385058000,16.15705810546875,-0.313400000333786,0.02719999849796295,-1.5643999576568604
1682999375405058000,16.17705810546875,-0.30809998512268066,0.03500000014901161,-1.3100999593734741
1682999375425058000,16.19705810546875,-0.37709999084472656,0.08760000020265579,-1.5260999202728271
1682999375445058000,16.21705810546875,-0.5092999935150146,0.0916999951004982,-1.573799967765808
1682999375465058000,16.23705810546875,-0.7198999524116516,0.19099999964237213,-1.4631999731063843
1682999375485058000,16.25705810546875,-0.9601999521255493,0.2215999960899353,-1.1672999858856201
1682999375505058000,16.27705810546875,-1.2616000175476074,0.20109999179840088,-1.0978999137878418
1682999375525058000,16.29705810546875,-1.2615000009536743,0.20709998905658722,-0.8125999569892883
1682999375545058000,16.31705810546875,-1.0406999588012695,0.17509999871253967,-0.557200014591217
1682999375565058000,16.33705810546875,-0.8054999709129333,0.11479999870061874,-0.47759997844696045
1682999375585058000,16.35705810546875,-0.6243999600410461,0.093299999833107,-0.5358999967575073
1682999375605058000,16.37705810546875,-0.522599995136261,0.14399999380111694,-0.4185999929904938
1682999375625058000,16.39705810546875,-0.4179999828338623,0.335999995470047,-0.29170000553131104
1682999375645058000,16.41705810546875,-0.3853999972343445,0.48330000042915344,-0.17399999499320984
1682999375665058000,16.43705810546875,-0.3578999936580658,0.5609999895095825,-0.15369999408721924
1682999375685058000,16.45705810546875,-0.5232999920845032,0.6446999907493591,-0.27140000462532043
1682999375705058000,16.47705810546875,-0.5514999628067017,0.710599958896637,-0.016200000420212746
1682999375725056500,16.497056396484375,-0.3587999939918518,0.8667999505996704,0.5521000027656555
1682999375745056500,16.517056396484374,-0.15919999778270721,0.9045999646186829,1.2472999095916748
1682999375765058000,16.53705810546875,0.08879999816417694,0.842799961566925,1.7168999910354614
1682999375785058000,16.55705810546875,0.4258999824523926,0.7550999522209167,1.9714999198913574
1682999375805058000,16.57705810546875,0.4624999761581421,0.7717999815940857,2.1187000274658203
1682999375825056500,16.597056396484376,0.49939998984336853,0.6837999820709229,2.6001999378204346
1682999375845058000,16.61705810546875,0.4585999846458435,0.5803999900817871,2.8949999809265137
1682999375865058000,16.63705810546875,0.5945000052452087,0.26899999380111694,2.574199914932251
1682999375885058000,16.65705810546875,0.8223999738693237,-0.03909999877214432,3.2335000038146973
1682999375905058000,16.67705810546875,0.9740999937057495,-0.15940000116825104,3.4113998413085938
1682999375925058000,16.69705810546875,0.9182999730110168,-0.07859999686479568,3.0318000316619873
1682999375945058000,16.71705810546875,0.5094000101089478,-0.04619999974966049,2.143699884414673
1682999375965056500,16.737056396484373,0.10949999839067459,-0.07009999454021454,0.5716999769210815
1682999375985058000,16.75705810546875,-0.23629999160766602,-0.3456999957561493,-1.0371999740600586
1682999376005058000,16.77705810546875,-0.2906000018119812,-0.7312999963760376,-1.9490000009536743
1682999376025058000,16.79705810546875,-0.3847000002861023,-0.8708999752998352,-1.8150999546051025
1682999376045058000,16.81705810546875,-0.5167999863624573,-0.5388999581336975,-0.823699951171875
1682999376065058000,16.83705810546875,-0.6316999793052673,-0.29109999537467957,0.10509999841451645
1682999376085058000,16.85705810546875,-0.39069998264312744,-0.3522000014781952,0.18029999732971191
1682999376105058000,16.87705810546875,-0.04999999701976776,-0.40389999747276306,-0.2434999942779541
1682999376125058000,16.89705810546875,-0.05419999733567238,-0.4447000026702881,-0.6951999664306641
1682999376145058000,16.91705810546875,-0.322299987077713,-0.49609997868537903,-1.2351999282836914
1682999376165058000,16.93705810546875,-0.4603999853134155,-0.6460999846458435,-1.5892999172210693
1682999376185058000,16.95705810546875,-0.5156999826431274,-0.7044999599456787,-1.8555999994277954
1682999376205058000,16.97705810546875,-0.4081999957561493,-0.5888000130653381,-1.9950000047683716
1682999376225058000,16.99705810546875,-0.20669999718666077,-0.2540000081062317,-1.7618999481201172
1682999376245058000,17.01705810546875,0.05590000003576279,0.051500000059604645,-1.4793999195098877
1682999376265058000,17.03705810546875,0.22119998931884766,0.15789999067783356,-1.3145999908447266
1682999376285058000,17.05705810546875,0.2087000012397766,0.11889999359846115,-1.2969999313354492
1682999376305058000,17.07705810546875,0.3215999901294708,0.1428999900817871,-1.1614999771118164
1682999376325056500,17.097056396484376,0.5809999704360962,0.25920000672340393,-0.7313999533653259
1682999376345058000,17.11705810546875,0.8536999821662903,0.36739999055862427,-0.32979997992515564
1682999376365058000,17.13705810546875,0.8130999803543091,0.3626999855041504,0.07149999588727951
1682999376385058000,17.15705810546875,0.6521999835968018,0.36139997839927673,0.22779999673366547
1682999376405056500,17.177056396484375,0.6700999736785889,0.49779999256134033,0.6202999949455261
1682999376425058000,17.19705810546875,0.7476999759674072,0.6872000098228455,1.1797999143600464
1682999376445058000,17.21705810546875,0.6936999559402466,0.8149999976158142,1.6698999404907227
1682999376465056500,17.237056396484373,0.630299985408783,0.9454999566078186,1.747499942779541
1682999376485058000,17.25705810546875,0.589199960231781,1.000999927520752,1.7666999101638794
1682999376505058000,17.27705810546875,0.7373999953269958,0.7379999756813049,2.3355000019073486
1682999376525058000,17.29705810546875,0.9702000021934509,0.4226999878883362,3.9624998569488525
1682999376545058000,17.31705810546875,1.0566999912261963,0.31279999017715454,5.3917999267578125
1682999376565058000,17.33705810546875,0.998199999332428,0.22919999063014984,5.6143999099731445
1682999376585058000,17.35705810546875,0.9728999733924866,0.22349999845027924,4.974099636077881
1682999376605058000,17.37705810546875,0.7727999687194824,0.24729999899864197,3.4522998332977295
1682999376625058000,17.39705810546875,0.09950000047683716,0.29989999532699585,1.6378999948501587
1682999376645058000,17.41705810546875,-0.7185999751091003,0.25519999861717224,-0.568399965763092
1682999376665058000,17.43705810546875,-1.1804999113082886,-0.058799996972084045,-2.6963000297546387
1682999376685058000,17.45705810546875,-1.0016000270843506,-0.3165999948978424,-2.9905998706817627
1682999376705058000,17.47705810546875,-0.9293999671936035,-0.3994999825954437,-2.337399959564209
1682999376725058000,17.49705810546875,-0.9680999517440796,-0.38760000467300415,-1.5405999422073364
1682999376745056500,17.517056396484374,-1.2314000129699707,-0.6766999959945679,-1.108699917793274
1682999376765058000,17.53705810546875,-0.5383999943733215,-0.9240999817848206,-0.8704999685287476
1682999376785058000,17.55705810546875,0.0697999969124794,-0.9160999655723572,-0.6685000061988831
1682999376805058000,17.57705810546875,0.2287999987602234,-0.835599958896637,-0.7202999591827393
1682999376825056500,17.597056396484376,-0.03460000082850456,-0.6079999804496765,-0.9078999757766724
1682999376845058000,17.61705810546875,-0.2937999963760376,-0.4706999957561493,-1.4279999732971191
1682999376865058000,17.63705810546875,-0.47039997577667236,-0.43549999594688416,-1.7805999517440796
1682999376885058000,17.65705810546875,-0.2660999894142151,-0.5152999758720398,-2.0053000450134277
1682999376905056500,17.677056396484375,-0.05419999733567238,-0.4120999872684479,-2.111999988555908
1682999376925058000,17.69705810546875,-0.16179999709129333,0.05739999935030937,-1.9734998941421509
1682999376945058000,17.71705810546875,-0.41749998927116394,0.5633000135421753,-1.521799921989441
1682999376965058000,17.73705810546875,-0.5554999709129333,0.8894999623298645,-1.1198999881744385
1682999376985058000,17.75705810546875,-0.8978999853134155,0.9049999713897705,-1.1791999340057373
1682999377005058000,17.77705810546875,-0.9159999489784241,0.7303000092506409,-1.209399938583374
1682999377025058000,17.79705810546875,-0.47589999437332153,0.70169997215271,-1.0921999216079712
1682999377045058000,17.81705810546875,0.0681999996304512,0.6825000047683716,-0.5234000086784363
1682999377065058000,17.83705810546875,0.3723999857902527,0.6584999561309814,-0.0429999977350235
1682999377085058000,17.85705810546875,0.4763999879360199,0.5791999697685242,0.5643999576568604
1682999377105058000,17.87705810546875,0.4973999857902527,0.7841999530792236,0.34860000014305115
1682999377125058000,17.89705810546875,0.27539998292922974,0.882599949836731,0.12469999492168427
1682999377145058000,17.91705810546875,0.18490000069141388,1.0454999208450317,-0.07809999585151672
1682999377165056500,17.937056396484376,-0.11819999665021896,1.1014000177383423,0.18060000240802765
1682999377185058000,17.95705810546875,-0.4188999831676483,1.1971999406814575,0.3804999887943268
1682999377205058000,17.97705810546875,-0.7578999996185303,1.093500018119812,0.5105999708175659
1682999377225056500,17.997056396484375,-0.5277000069618225,1.1509000062942505,0.7473999857902527
1682999377245056500,18.017056396484374,0.27619999647140503,1.1995999813079834,1.8973000049591064
1682999377265058000,18.03705810546875,0.8452000021934509,1.3069000244140625,3.342099905014038
1682999377285058000,18.05705810546875,1.007200002670288,1.2594000101089478,4.7669997215271
1682999377305056500,18.077056396484377,0.7364000082015991,1.236799955368042,5.523399829864502
1682999377325056500,18.097056396484376,0.835599958896637,1.0788999795913696,4.807399749755859
1682999377345058000,18.11705810546875,1.4433999061584473,0.7540000081062317,3.3265998363494873
1682999377365058000,18.13705810546875,1.7781999111175537,0.5461999773979187,1.6114000082015991
1682999377385058000,18.15705810546875,1.4750999212265015,0.19179999828338623,0.04659999907016754
1682999377405056500,18.177056396484375,0.42569997906684875,-0.29420000314712524,-0.9783999919891357
1682999377425058000,18.19705810546875,-0.5085999965667725,-0.5012999773025513,-1.044600009918213
1682999377445058000,18.21705810546875,-0.9371999502182007,-0.4781000018119812,-0.47679999470710754
1682999377465058000,18.23705810546875,-0.9975999593734741,-0.5273999571800232,0.2549999952316284
1682999377485058000,18.25705810546875,-0.8289999961853027,-0.9514999985694885,0.5929999947547913
1682999377505058000,18.27705810546875,-0.04399999976158142,-1.3866000175476074,0.22659999132156372
1682999377525058000,18.29705810546875,0.6171000003814697,-1.7422999143600464,-0.5773000121116638
1682999377545058000,18.31705810546875,1.1088999509811401,-1.8601999282836914,-1.222499966621399
1682999377565058000,18.33705810546875,1.3898999691009521,-1.781499981880188,-1.6129999160766602
1682999377585058000,18.35705810546875,1.31659996509552,-1.7107999324798584,-1.7691999673843384
1682999377605058000,18.37705810546875,1.2000999450683594,-1.4615999460220337,-2.102799892425537
1682999377625058000,18.39705810546875,0.8974999785423279,-1.1739000082015991,-2.377699851989746
1682999377645058000,18.41705810546875,0.5236999988555908,-0.6784999966621399,-2.1826999187469482
1682999377665058000,18.43705810546875,0.3352999985218048,-0.12559999525547028,-1.6648999452590942
1682999377685058000,18.45705810546875,0.41839998960494995,0.5378999710083008,-1.1374999284744263
1682999377705058000,18.47705810546875,0.6444000005722046,1.136699914932251,-0.6589999794960022
1682999377725056500,18.497056396484375,0.9172999858856201,1.5618000030517578,-0.21899999678134918
1682999377745056500,18.517056396484374,1.0778999328613281,1.7656999826431274,-0.1216999962925911
1682999377765058000,18.53705810546875,1.225600004196167,1.6940999031066895,-0.43529999256134033
1682999377785058000,18.55705810546875,1.274899959564209,1.5001999139785767,-0.7471999526023865
1682999377805058000,18.57705810546875,1.0228999853134155,1.378499984741211,-0.8330000042915344
1682999377825056500,18.597056396484376,0.7356999516487122,1.399399995803833,-0.9977999925613403
1682999377845058000,18.61705810546875,0.420199990272522,1.3833999633789062,-0.9581999778747559
1682999377865056500,18.637056396484375,0.38279998302459717,1.3645999431610107,-0.8210999965667725
1682999377885058000,18.65705810546875,0.5841999650001526,1.1660000085830688,-0.6354999542236328
1682999377905058000,18.67705810546875,1.1476999521255493,1.0296999216079712,-0.3628000020980835
1682999377925058000,18.69705810546875,1.607100009918213,1.049899935722351,0.11409999430179596
1682999377945058000,18.71705810546875,1.8792999982833862,1.0205999612808228,0.5521999597549438
1682999377965058000,18.73705810546875,1.965399980545044,0.8060999512672424,0.8330000042915344
1682999377985058000,18.75705810546875,2.2435998916625977,0.550599992275238,0.8981999754905701
1682999378005058000,18.77705810546875,2.3613998889923096,0.3146999776363373,1.6797000169754028
1682999378025058000,18.79705810546875,2.1039998531341553,0.44599997997283936,2.17579984664917
1682999378045058000,18.81705810546875,1.7623000144958496,0.5353999733924866,2.0638999938964844
1682999378065058000,18.83705810546875,1.458299994468689,0.373199999332428,1.0619999170303345
1682999378085058000,18.85705810546875,0.9747999906539917,0.08639999479055405,0.4147999882698059
1682999378105058000,18.87705810546875,0.2441999912261963,-0.19519999623298645,0.17000000178813934
1682999378125058000,18.89705810546875,-0.28110000491142273,-0.4174000024795532,-0.2126999944448471
1682999378145058000,18.91705810546875,-0.1800999939441681,-0.7489999532699585,-0.8216999769210815
1682999378165058000,18.93705810546875,0.5091999769210815,-1.2336000204086304,-1.0770999193191528
1682999378185058000,18.95705810546875,1.1180000305175781,-1.7208999395370483,-0.7530999779701233
1682999378205058000,18.97705810546875,1.5556999444961548,-1.965999960899353,-0.14379999041557312
1682999378225056500,18.997056396484375,1.4711999893188477,-1.9544999599456787,0.18039999902248383
1682999378245058000,19.01705810546875,1.1611000299453735,-2.0295000076293945,-0.01599999889731407
1682999378265058000,19.03705810546875,1.1519999504089355,-1.9891999959945679,-0.35850000381469727
1682999378285058000,19.05705810546875,1.2547999620437622,-1.7157999277114868,-0.22939999401569366
1682999378305058000,19.07705810546875,0.9429999589920044,-1.2806999683380127,-0.2662000060081482
1682999378325056500,19.097056396484376,0.44849997758865356,-1.0752999782562256,-0.4114999771118164
1682999378345058000,19.11705810546875,0.08449999988079071,-0.890999972820282,-0.6365000009536743
1682999378365058000,19.13705810546875,0.1551000028848648,-0.7382000088691711,-0.5873000025749207
1682999378385058000,19.15705810546875,0.343999981880188,-0.43689998984336853,-0.3619000017642975
1682999378405058000,19.17705810546875,0.36550000309944153,-0.1915999948978424,-0.09809999912977219
1682999378425058000,19.19705810546875,0.30059999227523804,0.015099999494850636,-0.06079999729990959
1682999378445058000,19.21705810546875,0.41099998354911804,0.21159999072551727,-0.2976999878883362
1682999378465058000,19.23705810546875,0.5467999577522278,0.41920000314712524,-0.22999998927116394
1682999378485058000,19.25705810546875,0.42639997601509094,0.5184000134468079,-0.32850000262260437
1682999378505058000,19.27705810546875,0.14639998972415924,0.702299952507019,-0.29909998178482056
1682999378525058000,19.29705810546875,0.026399999856948853,0.9027999639511108,-0.4071999788284302
1682999378545058000,19.31705810546875,0.04010000079870224,0.9399999976158142,-0.40689998865127563
1682999378565058000,19.33705810546875,-0.035599999129772186,0.9120999574661255,-0.3084000051021576
1682999378585058000,19.35705810546875,-0.1087999939918518,0.9292999505996704,-0.17099998891353607
1682999378605058000,19.37705810546875,0.0754999965429306,1.0126999616622925,0.2994999885559082
1682999378625058000,19.39705810546875,0.2696000039577484,0.9936999678611755,0.7691999673843384
1682999378645058000,19.41705810546875,0.4140999913215637,0.9451999664306641,0.8562999963760376
1682999378665056500,19.437056396484376,0.5169999599456787,0.8445000052452087,0.7568999528884888
1682999378685058000,19.45705810546875,0.5471999645233154,0.731499969959259,0.3836999833583832
1682999378705058000,19.47705810546875,0.5167999863624573,0.5532999634742737,-0.07589999586343765
1682999378725058000,19.49705810546875,0.5084999799728394,0.3146999776363373,0.26919999718666077
1682999378745056500,19.517056396484374,0.6229000091552734,0.26159998774528503,1.20169997215271
1682999378765058000,19.53705810546875,0.9103999733924866,0.507099986076355,1.820099949836731
1682999378785058000,19.55705810546875,1.218999981880188,0.5351999998092651,1.840399980545044
1682999378805058000,19.57705810546875,1.1654000282287598,0.10649999976158142,1.4591999053955078
1682999378825056500,19.597056396484376,1.2023999691009521,-0.31619998812675476,0.8625999689102173
1682999378845058000,19.61705810546875,1.2674000263214111,-0.48019999265670776,0.7774999737739563
1682999378865058000,19.63705810546875,1.3467999696731567,-0.1184999942779541,0.34039998054504395
1682999378885058000,19.65705810546875,0.8450999855995178,-0.20069999992847443,-0.5575000047683716
1682999378905058000,19.67705810546875,0.33069998025894165,-0.6729999780654907,-1.0641999244689941
1682999378925058000,19.69705810546875,0.3068999946117401,-1.0694999694824219,-0.9846999645233154
1682999378945058000,19.71705810546875,0.5694000124931335,-1.2340999841690063,-0.54339998960495
1682999378965058000,19.73705810546875,1.0103999376296997,-1.1043000221252441,0.1996999979019165
1682999378985058000,19.75705810546875,1.3985999822616577,-0.942799985408783,0.5282999873161316
1682999379005058000,19.77705810546875,1.7532999515533447,-0.9317999482154846,0.5241000056266785
1682999379025058000,19.79705810546875,1.9350999593734741,-0.9456999897956848,0.20789998769760132
1682999379045058000,19.81705810546875,1.8840999603271484,-0.9044999480247498,-0.48909997940063477
1682999379065058000,19.83705810546875,1.80649995803833,-0.9635999798774719,-1.2335000038146973
1682999379085058000,19.85705810546875,1.692099928855896,-0.9549999833106995,-1.5356999635696411
1682999379105058000,19.87705810546875,1.4848999977111816,-0.8116999864578247,-1.3476999998092651
1682999379125058000,19.89705810546875,1.2400000095367432,-0.3935000002384186,-0.8858999609947205
1682999379145058000,19.91705810546875,1.1786999702453613,-0.06799999624490738,-0.384799987077713
1682999379165058000,19.93705810546875,1.1500999927520752,0.17870000004768372,-0.15839999914169312
1682999379185058000,19.95705810546875,1.1828999519348145,0.4156999886035919,-0.14649999141693115
1682999379205058000,19.97705810546875,1.2279999256134033,0.6137999892234802,0.05269999802112579
1682999379225056500,19.997056396484375,1.0392999649047852,0.6886999607086182,0.27160000801086426
1682999379245056500,20.017056396484374,0.694599986076355,0.8194999694824219,0.1859000027179718
1682999379265056500,20.037056396484374,0.48479998111724854,0.8886999487876892,0.18809999525547028
1682999379285058000,20.05705810546875,0.37199997901916504,0.8967999815940857,0.17989999055862427
1682999379305058000,20.07705810546875,0.26080000400543213,0.7836999893188477,-0.0340999998152256
1682999379325056500,20.097056396484376,0.4099999964237213,0.6204000115394592,-0.1404999941587448
1682999379345058000,20.11705810546875,0.5879999995231628,0.43299999833106995,-0.1696999967098236
1682999379365058000,20.13705810546875,0.6380000114440918,0.20430000126361847,-0.2687000036239624
1682999379385058000,20.15705810546875,0.7513999938964844,0.11779999732971191,-0.41689997911453247
1682999379405058000,20.17705810546875,1.0151000022888184,0.22809998691082,-0.49609997868537903
1682999379425058000,20.19705810546875,1.2991999387741089,0.2947999835014343,-0.10379999876022339
1682999379445058000,20.21705810546875,1.4893999099731445,0.23240000009536743,1.3564999103546143
1682999379465058000,20.23705810546875,1.6821999549865723,0.3861999809741974,2.69789981842041
1682999379485058000,20.25705810546875,1.993299961090088,0.6843999624252319,2.9612998962402344
1682999379505058000,20.27705810546875,2.10509991645813,0.6965000033378601,1.8436999320983887
1682999379525058000,20.29705810546875,1.7638999223709106,0.1964000016450882,0.3926999866962433
1682999379545058000,20.31705810546875,0.9734999537467957,-0.289000004529953,-1.0167999267578125
1682999379565058000,20.33705810546875,0.1039000004529953,-0.9229999780654907,-1.3659999370574951
1682999379585058000,20.35705810546875,-0.3057999908924103,-1.3352999687194824,-0.5235999822616577
1682999379605058000,20.37705810546875,-0.016599999740719795,-1.472100019454956,0.6180999875068665
1682999379625058000,20.39705810546875,0.6872000098228455,-1.5859999656677246,1.5240999460220337
1682999379645058000,20.41705810546875,1.4838999509811401,-1.5973999500274658,1.754499912261963
1682999379665058000,20.43705810546875,1.982800006866455,-1.6098999977111816,1.545199990272522
1682999379685058000,20.45705810546875,2.0520999431610107,-1.616499900817871,0.6708999872207642
1682999379705058000,20.47705810546875,1.4543999433517456,-1.7634999752044678,-0.0357000008225441
1682999379725056500,20.497056396484375,0.6435999870300293,-1.8865998983383179,-0.49609997868537903
1682999379745056500,20.517056396484374,-0.1428999900817871,-1.9479999542236328,-0.6710000038146973
1682999379765056500,20.537056396484374,-0.6011999845504761,-1.7864999771118164,-0.571399986743927
1682999379785058000,20.55705810546875,-0.8073999881744385,-1.4879000186920166,-0.3164999783039093
1682999379805058000,20.57705810546875,-0.8071999549865723,-1.1174999475479126,-0.14090000092983246
1682999379825056500,20.597056396484376,-0.4569000005722046,-0.7130999565124512,-0.11209999769926071
1682999379845058000,20.61705810546875,-0.20149999856948853,-0.45499998331069946,-0.28849998116493225
1682999379865058000,20.63705810546875,-0.24629999697208405,-0.44449999928474426,-0.4632999897003174
1682999379885058000,20.65705810546875,-0.5464999675750732,-0.5575000047683716,-0.46149998903274536
1682999379905058000,20.67705810546875,-0.8547999858856201,-0.5857999920845032,-0.7062000036239624
1682999379925058000,20.69705810546875,-0.904699981212616,-0.4812999963760376,-0.7353999614715576
1682999379945058000,20.71705810546875,-0.5813999772071838,-0.31219998002052307,-0.656499981880188
1682999379965056500,20.737056396484373,-0.2718999981880188,-0.06709999591112137,-0.7829999923706055
1682999379985058000,20.75705810546875,-0.17739999294281006,0.0008999999845400453,-0.8211999535560608
1682999380005058000,20.77705810546875,-0.20109999179840088,0.09929999709129333,-0.7218999862670898
1682999380025058000,20.79705810546875,-0.1898999959230423,0.2913999855518341,-0.41589999198913574
1682999380045058000,20.81705810546875,-0.1825999915599823,0.4513999819755554,0.0771000012755394
1682999380065058000,20.83705810546875,-0.2223999947309494,0.6987000107765198,0.5701000094413757
1682999380085058000,20.85705810546875,-0.1842999905347824,0.8734999895095825,0.8376999497413635
1682999380105058000,20.87705810546875,0.049799997359514236,0.948699951171875,0.8402000069618225
1682999380125058000,20.89705810546875,0.5504999756813049,0.7657999992370605,1.107800006866455
1682999380145058000,20.91705810546875,1.059000015258789,0.6171999573707581,2.2193000316619873
1682999380165058000,20.93705810546875,1.0999000072479248,0.6304999589920044,3.4293999671936035
1682999380185058000,20.95705810546875,0.9401999711990356,0.4465000033378601,4.423099994659424
1682999380205058000,20.97705810546875,1.05239999294281,0.10819999873638153,4.905200004577637
1682999380225056500,20.997056396484375,1.2807999849319458,-0.3384999930858612,4.552700042724609
1682999380245056500,21.017056396484374,1.2400000095367432,-0.45619997382164,2.938699960708618
1682999380265058000,21.03705810546875,0.8277999758720398,-0.5414000153541565,0.9961999654769897
1682999380285058000,21.05705810546875,0.4194999933242798,-0.6568999886512756,-0.6376999616622925
1682999380305058000,21.07705810546875,0.09049999713897705,-0.8700000047683716,-1.5058000087738037
1682999380325056500,21.097056396484376,-0.24309998750686646,-1.195099949836731,-1.2029999494552612
1682999380345058000,21.11705810546875,-0.7515999674797058,-1.0770000219345093,-0.22109998762607574
1682999380365058000,21.13705810546875,-1.0902999639511108,-0.7943999767303467,0.9259999990463257
1682999380385058000,21.15705810546875,-0.988099992275238,-0.6952999830245972,1.7506999969482422
1682999380405059600,21.1770595703125,-0.20789998769760132,-0.7312999963760376,1.545799970626831
1682999380425058000,21.19705810546875,0.5963999629020691,-0.9569999575614929,0.2911999821662903
1682999380445058000,21.21705810546875,0.9872999787330627,-1.2549999952316284,-0.8127999901771545
1682999380465056500,21.237056396484373,0.9937999844551086,-1.385699987411499,-1.8881999254226685
1682999380485056500,21.257056396484376,0.7657999992370605,-1.3281999826431274,-2.6310999393463135
1682999380505056500,21.277056396484376,0.635699987411499,-1.055899977684021,-2.7565999031066895
1682999380525056500,21.297056396484376,0.42669999599456787,-0.7245999574661255,-2.5111000537872314
1682999380545056500,21.317056396484375,0.21229998767375946,-0.3254999816417694,-2.21809983253479
1682999380565056500,21.337056396484375,-0.032899998128414154,-0.156700000166893,-1.9652999639511108
1682999380585056500,21.357056396484374,-0.08699999749660492,-0.1565999984741211,-1.5959999561309814
1682999380605056500,21.377056396484374,-0.03179999813437462,-0.08949999511241913,-1.1892999410629272
1682999380625056500,21.397056396484373,0.24139998853206635,-0.11879999935626984,-0.7450000047683716
1682999380645056500,21.417056396484377,0.67249995470047,-0.14669999480247498,-0.4861999750137329
1682999380665056500,21.437056396484376,0.8903999924659729,-0.17809998989105225,-0.5185999870300293
1682999380685056500,21.457056396484376,1.003499984741211,-0.10740000009536743,-0.21549999713897705
1682999380705056500,21.477056396484375,0.989799976348877,-0.010499999858438969,0.19550000131130219
1682999380725056500,21.497056396484375,0.7358999848365784,0.010499999858438969,0.40149998664855957
1682999380745056500,21.517056396484374,0.43299999833106995,0.12119999527931213,0.4318999946117401
1682999380765056500,21.537056396484374,0.3612000048160553,0.21229998767375946,0.47269999980926514
1682999380785056500,21.557056396484374,0.33869999647140503,0.33139997720718384,0.5133999586105347
1682999380805056500,21.577056396484377,0.4139999747276306,0.3725000023841858,0.9267999529838562
1682999380825056500,21.597056396484376,0.5108999609947205,0.3895999789237976,1.8981999158859253
1682999380845056500,21.617056396484376,0.6674000024795532,0.6858999729156494,3.15310001373291
1682999380865056500,21.637056396484375,0.28849998116493225,0.36089998483657837,4.309199810028076
1682999380885056500,21.657056396484375,-0.10889999568462372,-0.17989999055862427,4.522799968719482
1682999380905056500,21.677056396484375,0.09529999643564224,-0.5306000113487244,3.7451999187469482
1682999380925056500,21.697056396484374,0.8150999546051025,-0.5224999785423279,3.066999912261963
1682999380945056500,21.717056396484374,1.0839999914169312,-0.1485999971628189,2.5665998458862305
1682999380965056500,21.737056396484373,0.7892000079154968,0.24199999868869781,1.7635999917984009
1682999380985056500,21.757056396484376,0.0925000011920929,0.3287999927997589,0.5776999592781067
1682999381005056500,21.777056396484376,-0.5855000019073486,0.15929999947547913,-0.8445999622344971
1682999381025056500,21.797056396484376,-0.8607999682426453,-0.08989999443292618,-1.7965999841690063
1682999381045056500,21.817056396484375,-0.7786999940872192,-0.3008999824523926,-1.9945999383926392
1682999381065056500,21.837056396484375,-0.7550999522209167,-0.5227999687194824,-1.351099967956543
1682999381085056500,21.857056396484374,-0.9034000039100647,-0.6074999570846558,-0.689300000667572
1682999381105056500,21.877056396484374,-0.9763000011444092,-0.7464999556541443,-0.17520000040531158
1682999381125056500,21.897056396484373,-0.6877999901771545,-0.8955000042915344,-0.27809998393058777
1682999381145056500,21.917056396484377,-0.39259999990463257,-1.1643999814987183,-0.7127999663352966
1682999381165056500,21.937056396484376,0.19020000100135803,-1.2177000045776367,-1.233199954032898
1682999381185056500,21.957056396484376,0.5091999769210815,-1.2401000261306763,-1.4775999784469604
1682999381205056500,21.977056396484375,0.7217999696731567,-1.1615999937057495,-1.5752999782562256
1682999381225056500,21.997056396484375,-0.20899999141693115,-0.9585999846458435,-1.4579999446868896
1682999381245056500,22.017056396484374,-1.0351999998092651,-0.7904999852180481,-1.7314999103546143
1682999381265056500,22.037056396484374,-1.4254999160766602,-0.6462999582290649,-1.3959999084472656
1682999381285056500,22.057056396484374,-0.7279999852180481,-0.3498999774456024,-1.2452999353408813
1682999381305056500,22.077056396484377,-0.23330000042915344,-0.1867000013589859,-1.2508999109268188
1682999381325056500,22.097056396484376,-0.09099999815225601,-0.14569999277591705,-1.2878999710083008
1682999381345056500,22.117056396484376,-0.05509999766945839,-0.141199991106987,-1.4146000146865845
1682999381365056500,22.137056396484375,0.13210000097751617,-0.019600000232458115,-1.2964999675750732
1682999381385056500,22.157056396484375,0.34289997816085815,0.20899999141693115,-1.0989999771118164
1682999381405056500,22.177056396484375,0.4901999831199646,0.4107999801635742,-0.7928999662399292
1682999381425056500,22.197056396484374,0.48589998483657837,0.6449999809265137,-0.31949999928474426
1682999381445056500,22.217056396484374,0.29249998927116394,0.8852999806404114,0.07459999620914459
1682999381465056500,22.237056396484373,0.29729998111724854,1.161199927330017,0.3212999999523163
1682999381485056500,22.257056396484376,0.3244999945163727,1.430799961090088,0.7744999527931213
1682999381505056500,22.277056396484376,0.20260000228881836,1.563099980354309,0.9537999629974365
1682999381525056500,22.297056396484376,0.021399999037384987,1.2879999876022339,1.035499930381775
1682999381545056500,22.317056396484375,0.14169999957084656,1.0575000047683716,1.146299958229065
1682999381565056500,22.337056396484375,0.19929999113082886,0.7129999995231628,2.491299867630005
1682999381585056500,22.357056396484374,0.24899999797344208,0.6899999976158142,4.215399742126465
1682999381605056500,22.377056396484374,0.08339999616146088,0.4755999743938446,4.994499683380127
1682999381625056500,22.397056396484373,0.0008999999845400453,0.18969999253749847,4.559499740600586
1682999381645056500,22.417056396484377,0.08749999850988388,-0.08139999955892563,3.5486998558044434
1682999381665056500,22.437056396484376,0.5343999862670898,-0.5482999682426453,2.335700035095215
1682999381685056500,22.457056396484376,0.6499999761581421,-0.7803999781608582,1.1548999547958374
1682999381705056500,22.477056396484375,0.46050000190734863,-0.7723999619483948,-0.19990000128746033
1682999381725056500,22.497056396484375,-0.07339999824762344,-0.7138999700546265,-1.0928000211715698
1682999381745056500,22.517056396484374,-0.5370999574661255,-0.6800999641418457,-1.0856999158859253
1682999381765056500,22.537056396484374,-0.937999963760376,-0.6230999827384949,-0.9247999787330627
1682999381785056500,22.557056396484374,-1.0282999277114868,-0.5013999938964844,-0.7759999632835388
1682999381805056500,22.577056396484377,-0.9441999793052673,-0.3999999761581421,-0.5399999618530273
1682999381825056500,22.597056396484376,-0.8151999711990356,-0.3953000009059906,-0.2459999918937683
1682999381845056500,22.617056396484376,-0.6315999627113342,-0.5137999653816223,-0.2078000009059906
1682999381865056500,22.637056396484375,-0.41279998421669006,-0.5895999670028687,-0.3091999888420105
1682999381885056500,22.657056396484375,-0.06350000202655792,-0.6068999767303467,-0.7150999903678894
1682999381905056500,22.677056396484375,0.25429999828338623,-0.6097999811172485,-1.0994999408721924
1682999381925056500,22.697056396484374,0.623199999332428,-0.6347000002861023,-1.316100001335144
1682999381945056500,22.717056396484374,0.8360999822616577,-0.6272000074386597,-1.3562999963760376
1682999381965056500,22.737056396484373,0.6865999698638916,-0.5680999755859375,-1.368399977684021
1682999381985056500,22.757056396484376,0.25529998540878296,-0.43879997730255127,-1.4017000198364258
1682999382005056500,22.777056396484376,0.12969999015331268,-0.296099990606308,-1.2684999704360962
1682999382025056500,22.797056396484376,0.2021999955177307,-0.1688999980688095,-1.2615000009536743
1682999382045056500,22.817056396484375,0.1727999895811081,-0.12309999763965607,-1.195199966430664
1682999382065056500,22.837056396484375,0.2718999981880188,-0.1670999974012375,-0.991599977016449
1682999382085056500,22.857056396484374,0.4820999801158905,-0.12229999899864197,-0.4941999912261963
1682999382105056500,22.877056396484374,0.6308000087738037,-0.11149999499320984,0.1605999916791916
1682999382125056500,22.897056396484373,0.7674999833106995,0.03929999843239784,0.5608999729156494
1682999382145056500,22.917056396484377,0.9641000032424927,0.016099998727440834,1.2172999382019043
1682999382165056500,22.937056396484376,1.1572999954223633,-0.04609999805688858,1.795799970626831
1682999382185056500,22.957056396484376,1.1613999605178833,0.04619999974966049,2.0901999473571777
1682999382205056500,22.977056396484375,0.7976999878883362,0.29109999537467957,2.3850998878479004
1682999382225056500,22.997056396484375,0.33820000290870667,0.3384000062942505,2.523900032043457
1682999382245056500,23.017056396484374,0.02369999885559082,0.26659998297691345,3.182499885559082
1682999382265056500,23.037056396484374,-0.14239999651908875,-0.05779999867081642,4.554100036621094
1682999382285056500,23.057056396484374,-0.2946999967098236,-0.07449999451637268,4.4126996994018555
1682999382305056500,23.077056396484377,-0.305899977684021,-0.0502999983727932,2.8606998920440674
1682999382325056500,23.097056396484376,-0.21649999916553497,-0.07039999961853027,0.6934999823570251
1682999382345056500,23.117056396484376,-0.1922999918460846,-0.38920000195503235,-1.2245999574661255
1682999382365056500,23.137056396484375,-0.3990999758243561,-0.8175999522209167,-1.8768999576568604
1682999382385056500,23.157056396484375,-0.6531999707221985,-1.024399995803833,-1.121500015258789
1682999382405056500,23.177056396484375,-0.7799999713897705,-0.977400004863739,-0.016200000420212746
1682999382425056500,23.197056396484374,-0.8744999766349792,-0.9406999945640564,0.3043999969959259
1682999382445056500,23.217056396484374,-0.5623999834060669,-0.9441999793052673,0.3499999940395355
1682999382465056500,23.237056396484373,-0.1598999947309494,-0.8011999726295471,-0.05329999700188637
1682999382485056500,23.257056396484376,-0.20399999618530273,-0.5616999864578247,-0.5037999749183655
1682999382505056500,23.277056396484376,-0.7076999545097351,-0.3531000018119812,-1.0820000171661377
1682999382525056500,23.297056396484376,-1.1832000017166138,-0.26249998807907104,-1.8168998956680298
1682999382545056500,23.317056396484375,-1.4394999742507935,-0.2775999903678894,-1.934399962425232
1682999382565056500,23.337056396484375,-1.4328999519348145,-0.12299999594688416,-1.8566999435424805
1682999382585056500,23.357056396484374,-1.228600025177002,0.05779999867081642,-1.7300999164581299
1682999382605056500,23.377056396484374,-0.9451999664306641,0.12119999527931213,-1.809399962425232
1682999382625056500,23.397056396484373,-0.5608999729156494,0.16169999539852142,-1.8204998970031738
1682999382645056500,23.417056396484377,-0.28859999775886536,0.27129998803138733,-1.753600001335144
1682999382665056500,23.437056396484376,-0.07909999787807465,0.20160000026226044,-1.7157999277114868
1682999382685056500,23.457056396484376,-0.04690000042319298,0.17009998857975006,-1.3051999807357788
1682999382705056500,23.477056396484375,-0.10809999704360962,0.13269999623298645,-0.9734999537467957
1682999382725056500,23.497056396484375,-0.20229999721050262,0.131400004029274,-0.6805999875068665
1682999382745056500,23.517056396484374,-0.13619999587535858,0.19049999117851257,-0.5242999792098999
1682999382765056500,23.537056396484374,-0.04230000078678131,0.2678999900817871,-0.8276999592781067
1682999382785056500,23.557056396484374,-0.41040000319480896,0.25439998507499695,-0.9348999857902527
1682999382805056500,23.577056396484377,-0.45619997382164,0.26350000500679016,-1.0888999700546265
1682999382825056500,23.597056396484376,-0.26589998602867126,0.23119999468326569,-0.6507999897003174
1682999382845056500,23.617056396484376,-0.1404999941587448,0.5719000101089478,0.7472999691963196
1682999382865056500,23.637056396484375,-0.08419999480247498,0.7795000076293945,1.9548999071121216
1682999382885056500,23.657056396484375,-0.3262999951839447,0.5888000130653381,2.1305999755859375
1682999382905056500,23.677056396484375,-0.3165999948978424,0.25290000438690186,2.1198999881744385
1682999382925056500,23.697056396484374,0.17239999771118164,0.26899999380111694,2.5325000286102295
1682999382945056500,23.717056396484374,0.5647000074386597,0.3967999815940857,3.378000020980835
1682999382965056500,23.737056396484373,0.3303999900817871,0.5078999996185303,3.9773998260498047
1682999382985056500,23.757056396484376,-0.019299998879432678,0.2433999925851822,3.928799867630005
1682999383005056500,23.777056396484376,0.009499999694526196,-0.15779998898506165,3.4679999351501465
1682999383025056500,23.797056396484376,0.4702000021934509,-0.4867999851703644,2.3717000484466553
1682999383045056500,23.817056396484375,0.44279998540878296,-0.5210999846458435,0.8951999545097351
1682999383065056500,23.837056396484375,0.2061000019311905,-0.3520999848842621,-0.3449999988079071
1682999383085056500,23.857056396484374,-0.15869998931884766,-0.19290000200271606,-0.6626999974250793
1682999383105056500,23.877056396484374,-0.6251999735832214,-0.01899999938905239,-0.04079999774694443
1682999383125056500,23.897056396484373,-0.9510999917984009,0.14489999413490295,0.6759999990463257
1682999383145056500,23.917056396484377,-1.2002999782562256,0.07939999550580978,0.889799952507019
1682999383165056500,23.937056396484376,-0.8950999975204468,-0.3236999809741974,0.4546999931335449
1682999383185056500,23.957056396484376,-0.11249999701976776,-0.6891999840736389,-0.0575999990105629
1682999383205056500,23.977056396484375,0.41669997572898865,-0.7732999920845032,-0.35269999504089355
1682999383225056500,23.997056396484375,0.7170000076293945,-0.7268999814987183,-0.5782999992370605
1682999383245056500,24.017056396484374,0.616100013256073,-0.647599995136261,-0.9914000034332275
1682999383265056500,24.037056396484374,0.5162000060081482,-0.732699990272522,-1.2378000020980835
1682999383285056500,24.057056396484374,0.32989999651908875,-0.5837000012397766,-1.4056999683380127
1682999383305056500,24.077056396484377,0.08839999884366989,-0.4545999765396118,-1.5822999477386475
1682999383325056500,24.097056396484376,-0.08709999918937683,-0.2061999887228012,-1.591399908065796
1682999383345056500,24.117056396484376,-0.19859999418258667,-0.03439999744296074,-1.8460999727249146
1682999383365056500,24.137056396484375,-0.085999995470047,0.048499997705221176,-2.1385998725891113
1682999383385056500,24.157056396484375,0.09030000120401382,0.09119999408721924,-2.224599838256836
1682999383405056500,24.177056396484375,0.24449999630451202,0.22540000081062317,-2.3104000091552734
1682999383425056500,24.197056396484374,0.09459999948740005,0.20589999854564667,-1.9565999507904053
1682999383445056500,24.217056396484374,0.021699998527765274,0.21249999105930328,-1.2115999460220337
1682999383465056500,24.237056396484373,0.1021999940276146,0.2750999927520752,-0.5852999687194824
1682999383485056500,24.257056396484376,0.28200000524520874,0.2937999963760376,0.020899999886751175
1682999383505056500,24.277056396484376,0.4226999878883362,0.2142999917268753,0.42069998383522034
1682999383525056500,24.297056396484376,0.5397999882698059,-0.03920000046491623,0.7422999739646912
1682999383545056500,24.317056396484375,0.6837999820709229,-0.09629999846220016,1.044700026512146
1682999383565056500,24.337056396484375,0.7111999988555908,-0.11209999769926071,1.2882000207901
1682999383585056500,24.357056396484374,0.7932999730110168,-0.058399997651576996,1.610700011253357
1682999383605056500,24.377056396484374,0.9423999786376953,-0.08630000054836273,1.9839999675750732
1682999383625056500,24.397056396484373,0.8866999745368958,-0.0982000008225441,2.966599941253662
1682999383645056500,24.417056396484377,0.6173999905586243,-0.25110000371932983,4.202899932861328
1682999383665056500,24.437056396484376,0.3528999984264374,-0.46619999408721924,4.79010009765625
1682999383685056500,24.457056396484376,0.4513999819755554,-0.8697999715805054,4.631899833679199
1682999383705056500,24.477056396484375,0.974299967288971,-1.0992000102996826,4.278299808502197
1682999383725056500,24.497056396484375,1.053399920463562,-0.8170999884605408,3.807799816131592
1682999383745056500,24.517056396484374,0.5782999992370605,-0.32170000672340393,2.545099973678589
1682999383765056500,24.537056396484374,-0.43879997730255127,-0.2466999888420105,0.2719999849796295
1682999383785056500,24.557056396484374,-1.0503000020980835,-0.9273999929428101,-1.784500002861023
1682999383805056500,24.577056396484377,-1.0494999885559082,-1.5839999914169312,-3.0351998805999756
1682999383825056500,24.597056396484376,-0.7912999987602234,-1.3954999446868896,-2.844899892807007
1682999383845056500,24.617056396484376,-0.9042999744415283,-0.7577999830245972,-1.4651999473571777
1682999383865056500,24.637056396484375,-1.0436999797821045,-0.16990000009536743,-0.7378000020980835
1682999383885056500,24.657056396484375,-0.7491999864578247,-0.13030000030994415,-0.599299967288971
1682999383905056500,24.677056396484375,0.003599999938160181,-0.4294999837875366,-1.1816999912261963
1682999383925056500,24.697056396484374,0.5209999680519104,-0.49709999561309814,-1.5240999460220337
1682999383945056500,24.717056396484374,0.2759000062942505,-0.28939998149871826,-1.5511000156402588
1682999383965056500,24.737056396484373,-0.517799973487854,0.07679999619722366,-1.667199969291687
1682999383985056500,24.757056396484376,-1.1505999565124512,0.29319998621940613,-1.7638999223709106
1682999384005056500,24.777056396484376,-1.375,0.47360000014305115,-1.9678999185562134
