time,seconds_elapsed,z,y,x
1682999359265056500,0.037056396484375,2.519399881362915,-0.3432999849319458,9.471199989318848
1682999359285059600,0.0570595703125,2.519399881362915,-0.3432999849319458,9.471199989318848
1682999359305062700,0.077062744140625,2.519399881362915,-0.3432999849319458,9.471199989318848
1682999359325056500,0.097056396484375,2.4038000106811523,-0.6962999701499939,9.481900215148926
1682999359345058000,0.11705810546875,2.4054999351501465,-0.6965999603271484,9.481399536132812
1682999359365058000,0.13705810546875,2.422299861907959,-0.6929000020027161,9.477399826049805
1682999359385058000,0.15705810546875,2.451200008392334,-0.6649999618530273,9.472000122070312
1682999359405058000,0.17705810546875,2.4602999687194824,-0.6696999669075012,9.46929931640625
1682999359425056500,0.197056396484375,2.45989990234375,-0.6728000044822693,9.469200134277344
1682999359445058000,0.21705810546875,2.4570999145507812,-0.5388000011444092,9.478499412536621
1682999359465056500,0.237056396484375,2.4442999362945557,-0.5180999636650085,9.48289966583252
1682999359485058000,0.25705810546875,2.4275999069213867,-0.4722999930381775,9.48960018157959
1682999359505058000,0.27705810546875,2.400899887084961,-0.44999998807907104,9.497499465942383
1682999359525056500,0.297056396484375,2.3690998554229736,-0.4245999753475189,9.506599426269531
1682999359545058000,0.31705810546875,2.309299945831299,-0.36399999260902405,9.523799896240234
1682999359565058000,0.33705810546875,2.2523000240325928,-0.3028999865055084,9.539599418640137
1682999359585058000,0.35705810546875,2.2235000133514404,-0.259799987077713,9.547699928283691
1682999359605056500,0.377056396484375,2.181299924850464,-0.2175000011920929,9.558499336242676
1682999359625058000,0.39705810546875,2.1161999702453613,-0.16849999129772186,9.573999404907227
1682999359645058000,0.41705810546875,2.0371999740600586,-0.10089999437332153,9.592100143432617
1682999359665056500,0.437056396484375,1.9442999362945557,0.0005999999702908099,9.611899375915527
1682999359685058000,0.45705810546875,1.8980000019073486,0.039799999445676804,9.621099472045898
1682999359705056500,0.477056396484375,1.8471999168395996,0.07339999824762344,9.630799293518066
1682999359725056500,0.497056396484375,1.8070999383926392,0.10109999775886536,9.638099670410156
1682999359745056500,0.517056396484375,1.7946999073028564,0.13169999420642853,9.64009952545166
1682999359765058000,0.53705810546875,1.8005999326705933,0.17219999432563782,9.638299942016602
1682999359785058000,0.55705810546875,1.8119999170303345,0.204599991440773,9.635600090026855
1682999359805058000,0.57705810546875,1.820199966430664,0.24229998886585236,9.633099555969238
1682999359825056500,0.597056396484375,1.8278999328613281,0.282399982213974,9.630599975585938
1682999359845058000,0.61705810546875,1.845099925994873,0.30219998955726624,9.626699447631836
1682999359865058000,0.63705810546875,1.8598999977111816,0.3003000020980835,9.623899459838867
1682999359885058000,0.65705810546875,1.8740999698638916,0.28209999203681946,9.621699333190918
1682999359905058000,0.67705810546875,1.878499984741211,0.2549000084400177,9.621600151062012
1682999359925059600,0.6970595703125,1.882599949836731,0.22599999606609344,9.621500015258789
1682999359945058000,0.71705810546875,1.8911999464035034,0.19349999725818634,9.620599746704102
1682999359965056500,0.737056396484375,1.9017999172210693,0.1680999994277954,9.618999481201172
1682999359985058000,0.75705810546875,1.9167999029159546,0.1573999971151352,9.61609935760498
1682999360005058000,0.77705810546875,1.9287999868392944,0.15719999372959137,9.613699913024902
1682999360025056500,0.797056396484375,1.9408999681472778,0.1598999947309494,9.611299514770508
1682999360045058000,0.81705810546875,1.9566999673843384,0.16529999673366547,9.607999801635742
1682999360065058000,0.83705810546875,1.9781999588012695,0.16869999468326569,9.603499412536621
1682999360085056500,0.857056396484375,1.9950000047683716,0.1647000014781952,9.600099563598633
1682999360105058000,0.87705810546875,2.00600004196167,0.1525000035762787,9.597999572753906
1682999360125058000,0.89705810546875,2.0070998668670654,0.13239999115467072,9.598099708557129
1682999360145058000,0.91705810546875,2.0058999061584473,0.1070999950170517,9.598699569702148
1682999360165056500,0.937056396484375,2.0155999660491943,0.08320000022649765,9.59689998626709
1682999360185058000,0.95705810546875,2.0269999504089355,0.06269999593496323,9.594599723815918
1682999360205058000,0.97705810546875,2.038300037384033,0.04010000079870224,9.592299461364746
1682999360225056500,0.997056396484375,2.0636000633239746,0.02630000002682209,9.586999893188477
1682999360245056500,1.017056396484375,2.0760998725891113,0.01860000006854534,9.58430004119873
1682999360265058000,1.03705810546875,2.0645999908447266,-0.006000000052154064,9.586799621582031
1682999360285058000,1.05705810546875,2.055500030517578,-0.038599997758865356,9.588699340820312
1682999360305058000,1.07705810546875,2.0597000122070312,-0.06629999727010727,9.587599754333496
1682999360325056500,1.097056396484375,2.0710999965667725,-0.09769999980926514,9.58489990234375
1682999360345058000,1.11705810546875,2.079200029373169,-0.13459999859333038,9.5826997756958
1682999360365058000,1.13705810546875,2.083699941635132,-0.16489998996257782,9.581199645996094
1682999360385058000,1.15705810546875,2.097599983215332,-0.1841999888420105,9.577899932861328
1682999360405058000,1.17705810546875,2.121500015258789,-0.20719999074935913,9.572099685668945
1682999360425058000,1.19705810546875,2.13349986076355,-0.2502000033855438,9.568399429321289
1682999360445058000,1.21705810546875,2.130499839782715,-0.3131999969482422,9.56719970703125
1682999360465058000,1.23705810546875,2.1213998794555664,-0.366599977016449,9.567399978637695
1682999360485058000,1.25705810546875,2.1161999702453613,-0.39489999413490295,9.567399978637695
1682999360505058000,1.27705810546875,2.121500015258789,-0.4009999930858612,9.565999984741211
1682999360525056500,1.297056396484375,2.1294000148773193,-0.399399995803833,9.564299583435059
1682999360545058000,1.31705810546875,2.131700038909912,-0.40070000290870667,9.563699722290039
1682999360565058000,1.33705810546875,2.1333999633789062,-0.40789997577667236,9.562999725341797
1682999360585058000,1.35705810546875,2.1317999362945557,-0.4212999939918518,9.562799453735352
1682999360605058000,1.37705810546875,2.1171998977661133,-0.44449999928474426,9.5649995803833
1682999360625058000,1.39705810546875,2.092599868774414,-0.469899982213974,9.569199562072754
1682999360645058000,1.41705810546875,2.0764999389648438,-0.48539999127388,9.5718994140625
1682999360665058000,1.43705810546875,2.069499969482422,-0.4958999752998352,9.57289981842041
1682999360685058000,1.45705810546875,2.062199831008911,-0.5091999769210815,9.573800086975098
1682999360705058000,1.47705810546875,2.0521998405456543,-0.5175999999046326,9.575499534606934
1682999360725056500,1.497056396484375,2.0458998680114746,-0.5149999856948853,9.57699966430664
1682999360745056500,1.517056396484375,2.053499937057495,-0.5029999613761902,9.576000213623047
1682999360765058000,1.53705810546875,2.0643999576568604,-0.48499998450279236,9.574600219726562
1682999360785058000,1.55705810546875,2.070499897003174,-0.4619999825954437,9.574399948120117
1682999360805058000,1.57705810546875,2.069200038909912,-0.42829999327659607,9.576199531555176
1682999360825056500,1.597056396484375,2.0720999240875244,-0.39719998836517334,9.576899528503418
1682999360845058000,1.61705810546875,2.0732998847961426,-0.38850000500679016,9.57699966430664
1682999360865058000,1.63705810546875,2.095399856567383,-0.40149998664855957,9.571700096130371
1682999360885058000,1.65705810546875,2.137500047683716,-0.41169998049736023,9.561999320983887
1682999360905058000,1.67705810546875,2.1410999298095703,-0.4043000042438507,9.56149959564209
1682999360925058000,1.69705810546875,2.1133999824523926,-0.3889999985694885,9.56820011138916
1682999360945058000,1.71705810546875,2.055500030517578,-0.3926999866962433,9.580699920654297
1682999360965058000,1.73705810546875,2.009500026702881,-0.4089999794960022,9.589799880981445
1682999360985058000,1.75705810546875,1.994399905204773,-0.43050000071525574,9.592000007629395
1682999361005058000,1.77705810546875,2.0211000442504883,-0.47189998626708984,9.58449935913086
1682999361025056500,1.797056396484375,2.0802998542785645,-0.5120999813079834,9.56969928741455
1682999361045058000,1.81705810546875,2.1095998287200928,-0.5220999717712402,9.562699317932129
1682999361065058000,1.83705810546875,2.085700035095215,-0.530299961566925,9.567599296569824
1682999361085058000,1.85705810546875,2.0192999839782715,-0.5546999573707581,9.580399513244629
1682999361105058000,1.87705810546875,1.944599986076355,-0.5600999593734741,9.595499992370605
1682999361125058000,1.89705810546875,1.9060999155044556,-0.5202000141143799,9.605500221252441
1682999361145058000,1.91705810546875,1.8901000022888184,-0.45969998836517334,9.611700057983398
1682999361165058000,1.93705810546875,1.8775999546051025,-0.4052000045776367,9.616600036621094
1682999361185058000,1.95705810546875,1.8638999462127686,-0.38359999656677246,9.620200157165527
1682999361205058000,1.97705810546875,1.8487999439239502,-0.3666999936103821,9.623799324035645
1682999361225056500,1.997056396484375,1.847599983215332,-0.3498999774456024,9.62459945678711
1682999361245056500,2.017056396484375,1.8639999628067017,-0.32749998569488525,9.622200012207031
1682999361265058000,2.03705810546875,1.8808000087738037,-0.3073999881744385,9.619599342346191
1682999361285058000,2.05705810546875,1.8828999996185303,-0.31279999017715454,9.618999481201172
1682999361305058000,2.07705810546875,1.8743999004364014,-0.3317999839782715,9.620100021362305
1682999361325056500,2.097056396484375,1.858799934387207,-0.34689998626708984,9.622599601745605
1682999361345058000,2.11705810546875,1.8331999778747559,-0.34059998393058777,9.627699851989746
1682999361365058000,2.13705810546875,1.798699975013733,-0.3279999792575836,9.634599685668945
1682999361385058000,2.15705810546875,1.760699987411499,-0.3231000006198883,9.641799926757812
1682999361405058000,2.17705810546875,1.7077000141143799,-0.3252999782562256,9.651299476623535
1682999361425058000,2.19705810546875,1.653999924659729,-0.3279999792575836,9.660499572753906
1682999361445058000,2.21705810546875,1.6031999588012695,-0.31700000166893005,9.669499397277832
1682999361465058000,2.23705810546875,1.5611999034881592,-0.3025999963283539,9.676799774169922
1682999361485058000,2.25705810546875,1.5378999710083008,-0.27869999408721924,9.68120002746582
1682999361505058000,2.27705810546875,1.514699935913086,-0.2231999933719635,9.686299324035645
1682999361525056500,2.297056396484375,1.4991999864578247,-0.15060000121593475,9.690099716186523
1682999361545058000,2.31705810546875,1.4972999095916748,-0.07989999651908875,9.691299438476562
1682999361565058000,2.33705810546875,1.504699945449829,-0.01769999973475933,9.690499305725098
1682999361585058000,2.35705810546875,1.5053999423980713,0.023499999195337296,9.690299987792969
1682999361605058000,2.37705810546875,1.4585999250411987,0.05159999802708626,9.697400093078613
1682999361625058000,2.39705810546875,1.3975999355316162,0.06300000101327896,9.706299781799316
1682999361645058000,2.41705810546875,1.4056999683380127,0.07919999957084656,9.704999923706055
1682999361665058000,2.43705810546875,1.4464999437332153,0.10939999669790268,9.698699951171875
1682999361685056500,2.457056396484375,1.5124999284744263,0.14749999344348907,9.68809986114502
1682999361705058000,2.47705810546875,1.573599934577942,0.1832999885082245,9.677800178527832
1682999361725056500,2.497056396484375,1.608699917793274,0.2069999873638153,9.671500205993652
1682999361745056500,2.517056396484375,1.5953999757766724,0.2069999873638153,9.673699378967285
1682999361765058000,2.53705810546875,1.5573999881744385,0.19280000030994415,9.68019962310791
1682999361785058000,2.55705810546875,1.5199999809265137,0.18219999969005585,9.686399459838867
1682999361805058000,2.57705810546875,1.5187000036239624,0.16509999334812164,9.68690013885498
1682999361825056500,2.597056396484375,1.5378999710083008,0.14309999346733093,9.684199333190918
1682999361845058000,2.61705810546875,1.5643999576568604,0.12559999525547028,9.68019962310791
1682999361865058000,2.63705810546875,1.5894999504089355,0.10839999467134476,9.676300048828125
1682999361885058000,2.65705810546875,1.594499945640564,0.09749999642372131,9.675600051879883
1682999361905058000,2.67705810546875,1.5956999063491821,0.0867999941110611,9.67549991607666
1682999361925058000,2.69705810546875,1.618299961090088,0.061799999326467514,9.67199993133545
1682999361945058000,2.71705810546875,1.6464999914169312,0.01979999989271164,9.667399406433105
1682999361965056500,2.737056396484375,1.659999966621399,-0.013299999758601189,9.66510009765625
1682999361985058000,2.75705810546875,1.6548999547958374,-0.053999997675418854,9.665800094604492
1682999362005058000,2.77705810546875,1.636799931526184,-0.10659999400377274,9.668399810791016
1682999362025058000,2.79705810546875,1.6394000053405762,-0.16030000150203705,9.6673002243042
1682999362045058000,2.81705810546875,1.6596999168395996,-0.20109999179840088,9.663000106811523
1682999362065058000,2.83705810546875,1.65749990940094,-0.2336999922990799,9.662699699401855
1682999362085058000,2.85705810546875,1.6389999389648438,-0.2369999885559082,9.665800094604492
1682999362105058000,2.87705810546875,1.6292999982833862,-0.2395000010728836,9.6673002243042
1682999362125058000,2.89705810546875,1.6319999694824219,-0.25049999356269836,9.666600227355957
1682999362145058000,2.91705810546875,1.6145999431610107,-0.2621999979019165,9.66919994354248
1682999362165058000,2.93705810546875,1.5830999612808228,-0.2782000005245209,9.673999786376953
1682999362185056500,2.957056396484375,1.5370999574661255,-0.2897000014781952,9.680999755859375
1682999362205058000,2.97705810546875,1.4958000183105469,-0.29260000586509705,9.687399864196777
1682999362225056500,2.997056396484375,1.4613999128341675,-0.28859999775886536,9.69279956817627
1682999362245056500,3.017056396484375,1.4326999187469482,-0.2766999900341034,9.697400093078613
1682999362265058000,3.03705810546875,1.3940999507904053,-0.2549999952316284,9.70359992980957
1682999362285058000,3.05705810546875,1.333299994468689,-0.24289999902248383,9.712499618530273
1682999362305058000,3.07705810546875,1.3212999105453491,-0.23659999668598175,9.714300155639648
1682999362325056500,3.097056396484375,1.3536999225616455,-0.23309999704360962,9.70989990234375
1682999362345058000,3.11705810546875,1.4026999473571777,-0.23259998857975006,9.70300006866455
1682999362365058000,3.13705810546875,1.4218000173568726,-0.2320999950170517,9.700200080871582
1682999362385058000,3.15705810546875,1.409600019454956,-0.2184000015258789,9.702300071716309
1682999362405058000,3.17705810546875,1.3866000175476074,-0.19919998943805695,9.705999374389648
1682999362425058000,3.19705810546875,1.3650000095367432,-0.18140000104904175,9.709400177001953
1682999362445058000,3.21705810546875,1.3573999404907227,-0.1762000024318695,9.710599899291992
1682999362465056500,3.237056396484375,1.3579999208450317,-0.1673000007867813,9.710700035095215
1682999362485058000,3.25705810546875,1.3586000204086304,-0.14229999482631683,9.710999488830566
1682999362505058000,3.27705810546875,1.3579000234603882,-0.11019999533891678,9.71150016784668
1682999362525058000,3.29705810546875,1.3632999658584595,-0.08460000157356262,9.710999488830566
1682999362545058000,3.31705810546875,1.3758999109268188,-0.07530000060796738,9.70930004119873
1682999362565058000,3.33705810546875,1.3758000135421753,-0.08500000089406967,9.709199905395508
1682999362585058000,3.35705810546875,1.3503999710083008,-0.10679999738931656,9.712599754333496
1682999362605058000,3.37705810546875,1.3100999593734741,-0.13429999351501465,9.71780014038086
1682999362625058000,3.39705810546875,1.2633999586105347,-0.15959998965263367,9.723599433898926
1682999362645058000,3.41705810546875,1.2343000173568726,-0.17419999837875366,9.726999282836914
1682999362665058000,3.43705810546875,1.2365000247955322,-0.17469999194145203,9.726799964904785
1682999362685056500,3.457056396484375,1.2537999153137207,-0.17299999296665192,9.724599838256836
1682999362705058000,3.47705810546875,1.2728999853134155,-0.1704999953508377,9.722099304199219
1682999362725056500,3.497056396484375,1.2832999229431152,-0.16300000250339508,9.72089958190918
1682999362745056500,3.517056396484375,1.2847999334335327,-0.15959998965263367,9.720799446105957
1682999362765058000,3.53705810546875,1.2829999923706055,-0.16409999132156372,9.72089958190918
1682999362785058000,3.55705810546875,1.2824000120162964,-0.17479999363422394,9.720799446105957
1682999362805058000,3.57705810546875,1.2826999425888062,-0.186599999666214,9.720600128173828
1682999362825056500,3.597056396484375,1.2939999103546143,-0.19179999828338623,9.718999862670898
1682999362845058000,3.61705810546875,1.309899926185608,-0.2003999948501587,9.716599464416504
1682999362865056500,3.637056396484375,1.3167999982833862,-0.21220000088214874,9.715499877929688
1682999362885058000,3.65705810546875,1.3396999835968018,-0.2329999953508377,9.711899757385254
1682999362905058000,3.67705810546875,1.409500002861023,-0.25349998474121094,9.701499938964844
1682999362925058000,3.69705810546875,1.507599949836731,-0.27799999713897705,9.685999870300293
1682999362945058000,3.71705810546875,1.56059992313385,-0.30879998207092285,9.6766996383667
1682999362965058000,3.73705810546875,1.559899926185608,-0.3212999999523163,9.676400184631348
1682999362985058000,3.75705810546875,1.5299999713897705,-0.30699998140335083,9.681599617004395
1682999363005058000,3.77705810546875,1.4986000061035156,-0.2773999869823456,9.687399864196777
1682999363025058000,3.79705810546875,1.5109000205993652,-0.24210000038146973,9.68649959564209
1682999363045058000,3.81705810546875,1.5752999782562256,-0.21369999647140503,9.676899909973145
1682999363065058000,3.83705810546875,1.6512999534606934,-0.18119999766349792,9.664899826049805
1682999363085058000,3.85705810546875,1.698199987411499,-0.13750000298023224,9.657499313354492
1682999363105058000,3.87705810546875,1.7015999555587769,-0.09319999814033508,9.657400131225586
1682999363125058000,3.89705810546875,1.6758999824523926,-0.05339999869465828,9.662199974060059
1682999363145058000,3.91705810546875,1.6758999824523926,-0.019299998879432678,9.662300109863281
1682999363165058000,3.93705810546875,1.6841999292373657,0.014399999752640724,9.660900115966797
1682999363185058000,3.95705810546875,1.6832998991012573,0.04010000079870224,9.660999298095703
1682999363205058000,3.97705810546875,1.6919000148773193,0.06679999828338623,9.659299850463867
1682999363225056500,3.997056396484375,1.7070999145507812,0.08729999512434006,9.656499862670898
1682999363245056500,4.017056396484375,1.725600004196167,0.094200000166893,9.65310001373291
1682999363265058000,4.03705810546875,1.75,0.08370000123977661,9.648799896240234
1682999363285058000,4.05705810546875,1.7562999725341797,0.05460000038146973,9.647899627685547
1682999363305058000,4.07705810546875,1.7383999824523926,0.020399998873472214,9.651299476623535
1682999363325056500,4.097056396484375,1.7084999084472656,-0.0058999997563660145,9.656599998474121
1682999363345058000,4.11705810546875,1.681899905204773,-0.023599999025464058,9.661299705505371
1682999363365058000,4.13705810546875,1.6691999435424805,-0.044499997049570084,9.663399696350098
1682999363385058000,4.15705810546875,1.6571999788284302,-0.0697999969124794,9.665299415588379
1682999363405058000,4.17705810546875,1.6469999551773071,-0.09139999747276306,9.666899681091309
1682999363425058000,4.19705810546875,1.6455999612808228,-0.09759999811649323,9.666999816894531
1682999363445058000,4.21705810546875,1.6466999053955078,-0.09349999576807022,9.666899681091309
1682999363465058000,4.23705810546875,1.652999997138977,-0.09640000015497208,9.665800094604492
1682999363485058000,4.25705810546875,1.6598999500274658,-0.10839999467134476,9.664499282836914
1682999363505058000,4.27705810546875,1.6643999814987183,-0.11679999530315399,9.663599967956543
1682999363525056500,4.297056396484375,1.6588999032974243,-0.13830000162124634,9.664299964904785
1682999363545058000,4.31705810546875,1.6502000093460083,-0.16099999845027924,9.665399551391602
1682999363565058000,4.33705810546875,1.633099913597107,-0.1816999912261963,9.667900085449219
1682999363585058000,4.35705810546875,1.6054999828338623,-0.20089998841285706,9.672200202941895
1682999363605058000,4.37705810546875,1.5728999376296997,-0.21559999883174896,9.677199363708496
1682999363625058000,4.39705810546875,1.5389999151229858,-0.22459998726844788,9.682499885559082
1682999363645058000,4.41705810546875,1.4857999086380005,-0.2401999980211258,9.690400123596191
1682999363665058000,4.43705810546875,1.4390000104904175,-0.2599000036716461,9.696999549865723
1682999363685058000,4.45705810546875,1.420799970626831,-0.26170000433921814,9.699600219726562
1682999363705058000,4.47705810546875,1.4429999589920044,-0.25,9.696599960327148
1682999363725056500,4.497056396484375,1.4764000177383423,-0.2386999875307083,9.691899299621582
1682999363745056500,4.517056396484375,1.5069999694824219,-0.21789999306201935,9.687699317932129
1682999363765058000,4.53705810546875,1.527400016784668,-0.19949999451637268,9.68489933013916
1682999363785058000,4.55705810546875,1.525499939918518,-0.19929999113082886,9.685199737548828
1682999363805058000,4.57705810546875,1.4962999820709229,-0.21319998800754547,9.689399719238281
1682999363825056500,4.597056396484375,1.4543999433517456,-0.22459998726844788,9.695499420166016
1682999363845058000,4.61705810546875,1.426800012588501,-0.2190999984741211,9.699799537658691
1682999363865056500,4.637056396484375,1.4244999885559082,-0.19939999282360077,9.700499534606934
1682999363885058000,4.65705810546875,1.4412999153137207,-0.17509999871253967,9.69849967956543
1682999363905058000,4.67705810546875,1.4642000198364258,-0.15359999239444733,9.695499420166016
1682999363925058000,4.69705810546875,1.480199933052063,-0.13429999351501465,9.693299293518066
1682999363945058000,4.71705810546875,1.4872000217437744,-0.11729999631643295,9.692500114440918
1682999363965058000,4.73705810546875,1.496899962425232,-0.10339999943971634,9.691100120544434
1682999363985058000,4.75705810546875,1.496500015258789,-0.09829999506473541,9.69119930267334
1682999364005058000,4.77705810546875,1.4817999601364136,-0.09609999507665634,9.693499565124512
1682999364025056500,4.797056396484375,1.454800009727478,-0.09380000084638596,9.697599411010742
1682999364045058000,4.81705810546875,1.4204000234603882,-0.08689999580383301,9.702799797058105
1682999364065058000,4.83705810546875,1.404599905014038,-0.07490000128746033,9.7052001953125
1682999364085058000,4.85705810546875,1.4011999368667603,-0.053599998354911804,9.70580005645752
1682999364105058000,4.87705810546875,1.3945000171661377,-0.03739999979734421,9.706899642944336
1682999364125058000,4.89705810546875,1.3919999599456787,-0.03240000084042549,9.707200050354004
1682999364145056500,4.917056396484375,1.3873000144958496,-0.0364999994635582,9.707900047302246
1682999364165056500,4.937056396484375,1.3837000131607056,-0.04270000010728836,9.708399772644043
1682999364185056500,4.957056396484375,1.3868999481201172,-0.049799997359514236,9.707900047302246
1682999364205056500,4.977056396484375,1.3930000066757202,-0.062199998646974564,9.706999778747559
1682999364225056500,4.997056396484375,1.3909999132156372,-0.08169999718666077,9.707099914550781
1682999364245056500,5.017056396484375,1.3874999284744263,-0.10099999606609344,9.707399368286133
1682999364265056500,5.037056396484375,1.3904999494552612,-0.12119999527931213,9.706799507141113
1682999364285056500,5.057056396484375,1.4025999307632446,-0.13689999282360077,9.70479965209961
1682999364305056500,5.077056396484375,1.4158999919891357,-0.14829999208450317,9.702699661254883
1682999364325056500,5.097056396484375,1.417199969291687,-0.1703999936580658,9.702199935913086
1682999364345056500,5.117056396484375,1.4347999095916748,-0.1873999983072281,9.699299812316895
1682999364365056500,5.137056396484375,1.4426000118255615,-0.18410000205039978,9.698200225830078
1682999364385056500,5.157056396484375,1.458899974822998,-0.16939999163150787,9.696000099182129
1682999364405056500,5.177056396484375,1.480199933052063,-0.1525999903678894,9.692999839782715
1682999364425056500,5.197056396484375,1.517899990081787,-0.15230000019073486,9.687199592590332
1682999364445056500,5.217056396484375,1.5627999305725098,-0.15770000219345093,9.679999351501465
1682999364465056500,5.237056396484375,1.5831999778747559,-0.16990000009536743,9.676499366760254
1682999364485056500,5.257056396484375,1.5748999118804932,-0.1931999921798706,9.677399635314941
1682999364505056500,5.277056396484375,1.5461000204086304,-0.22049999237060547,9.68139934539795
1682999364525056500,5.297056396484375,1.5180999040603638,-0.24379999935626984,9.68529987335205
1682999364545056500,5.317056396484375,1.5058000087738037,-0.2556999921798706,9.68690013885498
1682999364565056500,5.337056396484375,1.506500005722046,-0.2586999833583832,9.686699867248535
1682999364585056500,5.357056396484375,1.5205999612808228,-0.26489999890327454,9.684399604797363
1682999364605056500,5.377056396484375,1.5410000085830688,-0.28380000591278076,9.6806001663208
1682999364625056500,5.397056396484375,1.5573999881744385,-0.3146999776363373,9.677000045776367
1682999364645056500,5.417056396484375,1.5611000061035156,-0.3498999774456024,9.675199508666992
1682999364665056500,5.437056396484375,1.5585999488830566,-0.3822000026702881,9.674399375915527
1682999364685056500,5.457056396484375,1.5547000169754028,-0.41429999470710754,9.673699378967285
1682999364705056500,5.477056396484375,1.556899905204773,-0.45319998264312744,9.671599388122559
1682999364725056500,5.497056396484375,1.562600016593933,-0.4927999973297119,9.66879940032959
1682999364745056500,5.517056396484375,1.559499979019165,-0.5295999646186829,9.6673002243042
1682999364765056500,5.537056396484375,1.5489999055862427,-0.5609999895095825,9.667200088500977
1682999364785056500,5.557056396484375,1.5300999879837036,-0.588699996471405,9.668600082397461
1682999364805056500,5.577056396484375,1.5119999647140503,-0.6128999590873718,9.669899940490723
1682999364825056500,5.597056396484375,1.500499963760376,-0.6291999816894531,9.670700073242188
1682999364845056500,5.617056396484375,1.4872000217437744,-0.6389999985694885,9.672100067138672
1682999364865056500,5.637056396484375,1.4702999591827393,-0.6423999667167664,9.674399375915527
1682999364885056500,5.657056396484375,1.4570000171661377,-0.6392999887466431,9.6766996383667
1682999364905056500,5.677056396484375,1.4505999088287354,-0.6358999609947205,9.677800178527832
1682999364925056500,5.697056396484375,1.4474999904632568,-0.6394999623298645,9.678099632263184
1682999364945056500,5.717056396484375,1.444000005722046,-0.6499999761581421,9.677899360656738
1682999364965056500,5.737056396484375,1.43559992313385,-0.6703000068664551,9.677800178527832
1682999364985056500,5.757056396484375,1.423799991607666,-0.698199987411499,9.677499771118164
1682999365005056500,5.777056396484375,1.3909999132156372,-0.7206000089645386,9.6806001663208
1682999365025056500,5.797056396484375,1.3309999704360962,-0.7476999759674072,9.686999320983887
1682999365045061000,5.81706103515625,1.2972999811172485,-0.7710999846458435,9.689799308776855
1682999365065058000,5.83705810546875,1.3056999444961548,-0.774899959564209,9.688300132751465
1682999365085058000,5.85705810546875,1.3363999128341675,-0.7617999911308289,9.685199737548828
1682999365105058000,5.87705810546875,1.3708000183105469,-0.7303000092506409,9.682799339294434
1682999365125058000,5.89705810546875,1.4117000102996826,-0.6847999691963196,9.680299758911133
1682999365145058000,5.91705810546875,1.4534999132156372,-0.6392999887466431,9.677199363708496
1682999365165058000,5.93705810546875,1.4586999416351318,-0.6247000098228455,9.677299499511719
1682999365185058000,5.95705810546875,1.4276999235153198,-0.6365000009536743,9.68120002746582
1682999365205058000,5.97705810546875,1.3747999668121338,-0.6401999592781067,9.688599586486816
1682999365225056500,5.997056396484375,1.333299994468689,-0.6161999702453613,9.696000099182129
1682999365245056500,6.017056396484375,1.317699909210205,-0.5741999745368958,9.700699806213379
1682999365265058000,6.03705810546875,1.3360999822616577,-0.5266000032424927,9.700900077819824
1682999365285058000,6.05705810546875,1.3668999671936035,-0.4854999780654907,9.698699951171875
1682999365305058000,6.07705810546875,1.3812999725341797,-0.4439999759197235,9.698699951171875
1682999365325058000,6.09705810546875,1.3801000118255615,-0.399399995803833,9.700799942016602
1682999365345058000,6.11705810546875,1.3809999227523804,-0.3662000000476837,9.70199966430664
1682999365365058000,6.13705810546875,1.3823000192642212,-0.35099998116493225,9.702300071716309
1682999365385058000,6.15705810546875,1.3777999877929688,-0.3495999872684479,9.70300006866455
1682999365405058000,6.17705810546875,1.3603999614715576,-0.35429999232292175,9.705299377441406
1682999365425059600,6.1970595703125,1.3329999446868896,-0.35599997639656067,9.708999633789062
1682999365445058000,6.21705810546875,1.3014999628067017,-0.3528999984264374,9.713399887084961
1682999365465058000,6.23705810546875,1.274399995803833,-0.34919998049736023,9.717199325561523
1682999365485058000,6.25705810546875,1.257699966430664,-0.34759998321533203,9.719399452209473
1682999365505058000,6.27705810546875,1.2554999589920044,-0.34129998087882996,9.719900131225586
1682999365525058000,6.29705810546875,1.2654999494552612,-0.3303999900817871,9.718999862670898
1682999365545058000,6.31705810546875,1.284600019454956,-0.32199999690055847,9.71679973602295
1682999365565058000,6.33705810546875,1.3018999099731445,-0.3247999846935272,9.714399337768555
1682999365585058000,6.35705810546875,1.312399983406067,-0.3351999819278717,9.712599754333496
1682999365605058000,6.37705810546875,1.3056999444961548,-0.35179999470710754,9.712900161743164
1682999365625058000,6.39705810546875,1.2899999618530273,-0.37389999628067017,9.714200019836426
1682999365645058000,6.41705810546875,1.2856999635696411,-0.3971000015735626,9.713799476623535
1682999365665058000,6.43705810546875,1.3014999628067017,-0.420199990272522,9.710700035095215
1682999365685061000,6.45706103515625,1.3141999244689941,-0.44449999928474426,9.708000183105469
1682999365705058000,6.47705810546875,1.316499948501587,-0.48909997940063477,9.705499649047852
1682999365725058000,6.49705810546875,1.3295999765396118,-0.5293999910354614,9.701600074768066
1682999365745058000,6.51705810546875,1.3243999481201172,-0.5514000058174133,9.701099395751953
1682999365765058000,6.53705810546875,1.3487999439239502,-0.5622999668121338,9.697099685668945
1682999365785058000,6.55705810546875,1.4038000106811523,-0.5497999787330627,9.6899995803833
1682999365805058000,6.57705810546875,1.4888999462127686,-0.5324000120162964,9.678299903869629
1682999365825056500,6.597056396484375,1.5789999961853027,-0.510699987411499,9.665199279785156
1682999365845058000,6.61705810546875,1.6444000005722046,-0.49459999799728394,9.655099868774414
1682999365865058000,6.63705810546875,1.6574000120162964,-0.4964999854564667,9.652799606323242
1682999365885058000,6.65705810546875,1.6312999725341797,-0.5146999955177307,9.65619945526123
1682999365905058000,6.67705810546875,1.5812000036239624,-0.5291000008583069,9.663799285888672
1682999365925058000,6.69705810546875,1.5328999757766724,-0.5365999937057495,9.671199798583984
1682999365945058000,6.71705810546875,1.5115000009536743,-0.5414999723434448,9.674300193786621
1682999365965056500,6.737056396484375,1.5068999528884888,-0.5426999926567078,9.67490005493164
1682999365985061000,6.75706103515625,1.5022000074386597,-0.546999990940094,9.675399780273438
1682999366005058000,6.77705810546875,1.4912999868392944,-0.5572999715805054,9.676499366760254
1682999366025058000,6.79705810546875,1.4764999151229858,-0.5801999568939209,9.677399635314941
1682999366045058000,6.81705810546875,1.4585999250411987,-0.6191999912261963,9.67770004272461
1682999366065058000,6.83705810546875,1.4448999166488647,-0.6678999662399292,9.676499366760254
1682999366085058000,6.85705810546875,1.4336999654769897,-0.72079998254776,9.674399375915527
1682999366105058000,6.87705810546875,1.417799949645996,-0.7734999656677246,9.672699928283691
1682999366125058000,6.89705810546875,1.395900011062622,-0.8226999640464783,9.671799659729004
1682999366145058000,6.91705810546875,1.3743000030517578,-0.8600999712944031,9.671599388122559
1682999366165058000,6.93705810546875,1.355299949645996,-0.8872999548912048,9.671899795532227
1682999366185058000,6.95705810546875,1.3427000045776367,-0.9077999591827393,9.671699523925781
1682999366205059600,6.9770595703125,1.3341000080108643,-0.9271000027656555,9.671099662780762
1682999366225059600,6.9970595703125,1.33079993724823,-0.9408999681472778,9.670199394226074
1682999366245059600,7.0170595703125,1.3377000093460083,-0.9411999583244324,9.66919994354248
1682999366265059600,7.0370595703125,1.3555999994277954,-0.9416999816894531,9.666699409484863
1682999366285058000,7.05705810546875,1.3819999694824219,-0.9479999542236328,9.662300109863281
1682999366305058000,7.07705810546875,1.4031000137329102,-0.958299994468689,9.658299446105957
1682999366325058000,7.09705810546875,1.409500002861023,-0.9695000052452087,9.65619945526123
1682999366345058000,7.11705810546875,1.3961999416351318,-0.9791999459266663,9.65719985961914
1682999366365058000,7.13705810546875,1.3600999116897583,-0.9914000034332275,9.661099433898926
1682999366385058000,7.15705810546875,1.3113999366760254,-1.0082999467849731,9.666099548339844
1682999366405058000,7.17705810546875,1.2649999856948853,-1.0187000036239624,9.671199798583984
1682999366425058000,7.19705810546875,1.246899962425232,-1.0045000314712524,9.675000190734863
1682999366445058000,7.21705810546875,1.2587000131607056,-0.9674999713897705,9.677199363708496
1682999366465056500,7.237056396484375,1.289199948310852,-0.9074999690055847,9.678999900817871
1682999366485059600,7.2570595703125,1.3101999759674072,-0.8285999894142151,9.683300018310547
1682999366505059600,7.2770595703125,1.3181999921798706,-0.75,9.688599586486816
1682999366525059600,7.2970595703125,1.3105000257492065,-0.6854000091552734,9.6943998336792
1682999366545058000,7.31705810546875,1.2860000133514404,-0.6266999840736389,9.701700210571289
1682999366565058000,7.33705810546875,1.2533999681472778,-0.5712999701499939,9.709400177001953
1682999366585058000,7.35705810546875,1.2253999710083008,-0.5205000042915344,9.715799331665039
1682999366605058000,7.37705810546875,1.2149999141693115,-0.4813999831676483,9.719099998474121
1682999366625058000,7.39705810546875,1.2171999216079712,-0.4567999839782715,9.719999313354492
1682999366645058000,7.41705810546875,1.2171000242233276,-0.43860000371932983,9.72089958190918
1682999366665058000,7.43705810546875,1.211300015449524,-0.4269999861717224,9.722099304199219
1682999366685056500,7.457056396484375,1.1996999979019165,-0.4300999939441681,9.723400115966797
1682999366705058000,7.47705810546875,1.1790000200271606,-0.447299987077713,9.725199699401855
1682999366725056500,7.497056396484375,1.1520999670028687,-0.4714999794960022,9.727299690246582
1682999366745059600,7.5170595703125,1.1308000087738037,-0.4983999729156494,9.728400230407715
1682999366765058000,7.53705810546875,1.1095999479293823,-0.5252000093460083,9.729499816894531
1682999366785058000,7.55705810546875,1.084299921989441,-0.5552999973297119,9.730599403381348
1682999366805058000,7.57705810546875,1.0551999807357788,-0.5884999632835388,9.731900215148926
1682999366825056500,7.597056396484375,1.0296000242233276,-0.6200999617576599,9.732699394226074
1682999366845058000,7.61705810546875,1.0088999271392822,-0.6520000100135803,9.732699394226074
1682999366865058000,7.63705810546875,1.003499984741211,-0.6773999929428101,9.731599807739258
1682999366885058000,7.65705810546875,1.0113999843597412,-0.6976999640464783,9.729299545288086
1682999366905058000,7.67705810546875,1.0199999809265137,-0.7184000015258789,9.726900100708008
1682999366925058000,7.69705810546875,1.028999924659729,-0.7382000088691711,9.724499702453613
1682999366945056500,7.717056396484375,1.0354000329971313,-0.7584999799728394,9.722199440002441
1682999366965058000,7.73705810546875,1.0425000190734863,-0.781499981880188,9.71969985961914
1682999366985059600,7.7570595703125,1.0473999977111816,-0.8027999997138977,9.717399597167969
1682999367005059600,7.7770595703125,1.05239999294281,-0.8299999833106995,9.714599609375
1682999367025059600,7.7970595703125,1.0526000261306763,-0.8604999780654907,9.711899757385254
1682999367045058000,7.81705810546875,1.051200032234192,-0.88919997215271,9.70949935913086
1682999367065058000,7.83705810546875,1.0477999448776245,-0.9199999570846558,9.706999778747559
1682999367085058000,7.85705810546875,1.0464999675750732,-0.9538999795913696,9.703800201416016
1682999367105058000,7.87705810546875,1.0565999746322632,-0.9711999893188477,9.701000213623047
1682999367125058000,7.89705810546875,1.0464999675750732,-0.9985999464988708,9.699299812316895
1682999367145058000,7.91705810546875,1.0216000080108643,-1.0396000146865845,9.697699546813965
1682999367165058000,7.93705810546875,0.9878000020980835,-1.0712000131607056,9.697699546813965
1682999367185058000,7.95705810546875,0.9679999947547913,-1.0791000127792358,9.69890022277832
1682999367205058000,7.97705810546875,0.983299970626831,-1.0641999244689941,9.698999404907227
1682999367225056500,7.997056396484375,1.0368999242782593,-1.031599998474121,9.6968994140625
1682999367245059600,8.0170595703125,1.1132999658584595,-0.9952999949455261,9.69219970703125
1682999367265059600,8.0370595703125,1.1592999696731567,-0.973800003528595,9.689000129699707
1682999367285058000,8.05705810546875,1.1539000272750854,-0.9835999608039856,9.688699722290039
1682999367305058000,8.07705810546875,1.1273000240325928,-1.0044000148773193,9.68970012664795
1682999367325058000,8.09705810546875,1.0916999578475952,-1.011699914932251,9.692999839782715
1682999367345058000,8.11705810546875,1.0692999362945557,-1.0088999271392822,9.695799827575684
1682999367365056500,8.137056396484375,1.0752999782562256,-1.0042999982833862,9.695599555969238
1682999367385056500,8.157056396484375,1.0927000045776367,-0.9987999796867371,9.694199562072754
1682999367405058000,8.17705810546875,1.114300012588501,-0.9996999502182007,9.69159984588623
1682999367425058000,8.19705810546875,1.131500005722046,-1.011299967765808,9.688499450683594
1682999367445058000,8.21705810546875,1.1448999643325806,-1.0371999740600586,9.684100151062012
1682999367465059600,8.2370595703125,1.1615999937057495,-1.0750999450683594,9.677999496459961
1682999367485059600,8.2570595703125,1.1759999990463257,-1.1180999279022217,9.67140007019043
1682999367505058000,8.27705810546875,1.1816999912261963,-1.1603999137878418,9.66569995880127
1682999367525056500,8.297056396484376,1.1794999837875366,-1.1974999904632568,9.661499977111816
1682999367545058000,8.31705810546875,1.1740000247955322,-1.2300999164581299,9.657999992370605
1682999367565058000,8.33705810546875,1.1714999675750732,-1.257599949836731,9.654799461364746
1682999367585058000,8.35705810546875,1.1675000190734863,-1.2774999141693115,9.65269947052002
1682999367605058000,8.37705810546875,1.1611000299453735,-1.2857999801635742,9.652299880981445
1682999367625058000,8.39705810546875,1.149999976158142,-1.2872999906539917,9.653499603271484
1682999367645058000,8.41705810546875,1.1371999979019165,-1.2906999588012695,9.654500007629395
1682999367665058000,8.43705810546875,1.125599980354309,-1.2967000007629395,9.655099868774414
1682999367685059600,8.4570595703125,1.1043999195098877,-1.3062999248504639,9.65619945526123
1682999367705061000,8.47706103515625,1.074199914932251,-1.319100022315979,9.657899856567383
1682999367725058000,8.49705810546875,1.0371999740600586,-1.3336999416351318,9.65999984741211
1682999367745058000,8.51705810546875,0.9962999820709229,-1.3457000255584717,9.662599563598633
1682999367765058000,8.53705810546875,0.9598000049591064,-1.347499966621399,9.665999412536621
1682999367785058000,8.55705810546875,0.9217999577522278,-1.3380999565124512,9.670999526977539
1682999367805058000,8.57705810546875,0.8777999877929688,-1.319599986076355,9.67770004272461
1682999367825056500,8.597056396484374,0.8312000036239624,-1.2950999736785889,9.685099601745605
1682999367845058000,8.61705810546875,0.7964999675750732,-1.2661999464035034,9.691800117492676
1682999367865058000,8.63705810546875,0.7842999696731567,-1.2338999509811401,9.696999549865723
1682999367885058000,8.65705810546875,0.7800999879837036,-1.19760000705719,9.701899528503418
1682999367905058000,8.67705810546875,0.7627999782562256,-1.1669999361038208,9.706999778747559
1682999367925059600,8.6970595703125,0.7376999855041504,-1.1482999324798584,9.711199760437012
1682999367945058000,8.71705810546875,0.7245000004768372,-1.121500015258789,9.715299606323242
1682999367965058000,8.73705810546875,0.7131999731063843,-1.0892999172210693,9.719799995422363
1682999367985058000,8.75705810546875,0.7264999747276306,-1.044700026512146,9.723699569702148
1682999368005058000,8.77705810546875,0.7615999579429626,-0.9771999716758728,9.727999687194824
1682999368025058000,8.79705810546875,0.7871999740600586,-0.9047999978065491,9.732999801635742
1682999368045056500,8.817056396484375,0.8052999973297119,-0.8422999978065491,9.737099647521973
1682999368065058000,8.83705810546875,0.8174999952316284,-0.7833999991416931,9.741000175476074
1682999368085058000,8.85705810546875,0.824400007724762,-0.7206000089645386,9.745299339294434
1682999368105058000,8.87705810546875,0.8409000039100647,-0.6581999659538269,9.748299598693848
1682999368125059600,8.8970595703125,0.8773999810218811,-0.6025999784469604,9.748700141906738
1682999368145058000,8.91705810546875,0.91839998960495,-0.5544999837875366,9.747699737548828
1682999368165058000,8.93705810546875,0.9541999697685242,-0.5148000121116638,9.746500015258789
1682999368185056500,8.957056396484376,0.9709999561309814,-0.4910999834537506,9.745999336242676
1682999368205058000,8.97705810546875,0.9680999517440796,-0.482699990272522,9.746699333190918
1682999368225056500,8.997056396484375,0.9621999859809875,-0.48669999837875366,9.747099876403809
1682999368245056500,9.017056396484374,0.962399959564209,-0.498199999332428,9.746500015258789
1682999368265058000,9.03705810546875,0.9649999737739563,-0.5139999985694885,9.745499610900879
1682999368285058000,9.05705810546875,0.9698999524116516,-0.5306000113487244,9.744099617004395
1682999368305058000,9.07705810546875,0.9745000004768372,-0.5507000088691711,9.742499351501465
1682999368325058000,9.09705810546875,0.9767999649047852,-0.5794999599456787,9.740599632263184
1682999368345058000,9.11705810546875,0.9783999919891357,-0.6194999814033508,9.73799991607666
1682999368365058000,9.13705810546875,0.9791999459266663,-0.6615999937057495,9.735099792480469
1682999368385058000,9.15705810546875,0.9781999588012695,-0.7096999883651733,9.731800079345703
1682999368405058000,9.17705810546875,0.9733999967575073,-0.7529999613761902,9.729100227355957
1682999368425058000,9.19705810546875,0.9734999537467957,-0.7818999886512756,9.726799964904785
1682999368445058000,9.21705810546875,0.9875999689102173,-0.8014000058174133,9.723799705505371
1682999368465056500,9.237056396484375,1.010699987411499,-0.8188999891281128,9.719900131225586
1682999368485058000,9.25705810546875,1.0269999504089355,-0.8300999999046326,9.717299461364746
1682999368505059600,9.2770595703125,1.024399995803833,-0.8387999534606934,9.71679973602295
1682999368525056500,9.297056396484376,1.0124000310897827,-0.8452999591827393,9.717499732971191
1682999368545059600,9.3170595703125,1.0088999271392822,-0.8427000045776367,9.718099594116211
1682999368565059600,9.3370595703125,1.028499960899353,-0.8306999802589417,9.717100143432617
1682999368585058000,9.35705810546875,1.070599913597107,-0.8179000020027161,9.713600158691406
1682999368605058000,9.37705810546875,1.111899971961975,-0.8298999667167664,9.707900047302246
1682999368625058000,9.39705810546875,1.1352999210357666,-0.847000002861023,9.703800201416016
1682999368645058000,9.41705810546875,1.1239999532699585,-0.8445000052452087,9.705299377441406
1682999368665058000,9.43705810546875,1.129599928855896,-0.8066999912261963,9.707900047302246
1682999368685058000,9.45705810546875,1.1653000116348267,-0.7421999573707581,9.708799362182617
1682999368705058000,9.47705810546875,1.2239999771118164,-0.6754999756813049,9.706399917602539
1682999368725056500,9.497056396484375,1.2519999742507935,-0.6256999969482422,9.706199645996094
1682999368745072000,9.517072021484376,1.2317999601364136,-0.6031999588012695,9.710199356079102
1682999368765058000,9.53705810546875,1.1881999969482422,-0.583899974822998,9.71679973602295
1682999368785058000,9.55705810546875,1.163599967956543,-0.5557000041007996,9.721399307250977
1682999368805058000,9.57705810546875,1.1632000207901,-0.5360000133514404,9.722599983215332
1682999368825056500,9.597056396484374,1.1556999683380127,-0.5372999906539917,9.723400115966797
1682999368845058000,9.61705810546875,1.1297999620437622,-0.5604000091552734,9.725199699401855
1682999368865058000,9.63705810546875,1.089900016784668,-0.5929999947547913,9.727799415588379
1682999368885059600,9.6570595703125,1.0570999383926392,-0.6293999552726746,9.729100227355957
1682999368905058000,9.67705810546875,1.0429999828338623,-0.6700999736785889,9.727899551391602
1682999368925058000,9.69705810546875,1.0312999486923218,-0.7242000102996826,9.725299835205078
1682999368945059600,9.7170595703125,1.011299967765808,-0.7816999554634094,9.722899436950684
1682999368965058000,9.73705810546875,0.9822999835014343,-0.8323000073432922,9.721699714660645
1682999368985058000,9.75705810546875,0.9583999514579773,-0.876800000667572,9.720199584960938
1682999369005058000,9.77705810546875,0.9542999863624573,-0.9175999760627747,9.71679973602295
1682999369025056500,9.797056396484376,0.9563999772071838,-0.9567999839782715,9.712800025939941
1682999369045058000,9.81705810546875,0.9580000042915344,-0.9914000034332275,9.709199905395508
1682999369065058000,9.83705810546875,0.9581999778747559,-1.0260999202728271,9.705599784851074
1682999369085058000,9.85705810546875,0.9548999667167664,-1.0656999349594116,9.701600074768066
1682999369105058000,9.87705810546875,0.9475999474525452,-1.1068999767303467,9.697699546813965
1682999369125058000,9.89705810546875,0.9413999915122986,-1.1308000087738037,9.695599555969238
1682999369145058000,9.91705810546875,0.9317999482154846,-1.1366000175476074,9.695799827575684
1682999369165058000,9.93705810546875,0.9210999608039856,-1.1340999603271484,9.697099685668945
1682999369185056500,9.957056396484376,0.9097999930381775,-1.1241999864578247,9.699399948120117
1682999369205058000,9.97705810546875,0.8902999758720398,-1.103600025177002,9.703499794006348
1682999369225056500,9.997056396484375,0.868399977684021,-1.077799916267395,9.708399772644043
1682999369245059600,10.0170595703125,0.8460999727249146,-1.052299976348877,9.713199615478516
1682999369265059600,10.0370595703125,0.8227999806404114,-1.0341999530792236,9.717100143432617
1682999369285058000,10.05705810546875,0.7937999963760376,-1.0221999883651733,9.720799446105957
1682999369305058000,10.07705810546875,0.7487999796867371,-1.0168999433517456,9.724899291992188
1682999369325058000,10.09705810546875,0.6994999647140503,-1.013100028038025,9.729000091552734
1682999369345058000,10.11705810546875,0.6488999724388123,-1.0077999830245972,9.733099937438965
1682999369365058000,10.13705810546875,0.6473000049591064,-0.9870999455451965,9.735300064086914
1682999369385058000,10.15705810546875,0.7328000068664551,-0.9289999604225159,9.734899520874023
1682999369405059600,10.1770595703125,0.8465999960899353,-0.8703999519348145,9.731100082397461
1682999369425059600,10.1970595703125,0.9049999713897705,-0.8562999963760376,9.727099418640137
1682999369445058000,10.21705810546875,0.8677999973297119,-0.8938999772071838,9.727099418640137
1682999369465056500,10.237056396484375,0.776199996471405,-0.944599986076355,9.73009967803955
1682999369485058000,10.25705810546875,0.6912999749183655,-0.9732999801635742,9.733699798583984
1682999369505058000,10.27705810546875,0.705299973487854,-0.9593999981880188,9.734000205993652
1682999369525056500,10.297056396484376,0.7936999797821045,-0.9328999519348145,9.7298002243042
1682999369545058000,10.31705810546875,0.8763999938964844,-0.9143999814987183,9.724499702453613
1682999369565058000,10.33705810546875,0.9241999983787537,-0.9089999794960022,9.720499992370605
1682999369585059600,10.3570595703125,0.9414999485015869,-0.9169999957084656,9.718099594116211
1682999369605059600,10.3770595703125,0.9358999729156494,-0.9401999711990356,9.716400146484375
1682999369625058000,10.39705810546875,0.9375999569892883,-0.9580999612808228,9.714499473571777
1682999369645058000,10.41705810546875,0.9422000050544739,-0.9634999632835388,9.713600158691406
1682999369665059600,10.4370595703125,0.9425999522209167,-0.9620999693870544,9.713699340820312
1682999369685058000,10.45705810546875,0.9405999779701233,-0.9571999907493591,9.714300155639648
1682999369705058000,10.47705810546875,0.9477999806404114,-0.9478999972343445,9.714499473571777
1682999369725056500,10.497056396484375,0.958899974822998,-0.9320999979972839,9.71500015258789
1682999369745058000,10.51705810546875,0.9702000021934509,-0.9089999794960022,9.716099739074707
1682999369765061000,10.53706103515625,0.9873999953269958,-0.887999951839447,9.716300010681152
1682999369785058000,10.55705810546875,1.0016999244689941,-0.8723999857902527,9.71619987487793
1682999369805058000,10.57705810546875,1.013700008392334,-0.8650999665260315,9.71560001373291
1682999369825056500,10.597056396484374,1.0216000080108643,-0.8660999536514282,9.714699745178223
1682999369845058000,10.61705810546875,1.0256999731063843,-0.8812999725341797,9.712900161743164
1682999369865058000,10.63705810546875,1.0188000202178955,-0.9037999510765076,9.711599349975586
1682999369885058000,10.65705810546875,1.0037999153137207,-0.9248999953269958,9.711099624633789
1682999369905058000,10.67705810546875,0.9994999766349792,-0.9369999766349792,9.710399627685547
1682999369925058000,10.69705810546875,1.0153999328613281,-0.9375,9.708700180053711
1682999369945058000,10.71705810546875,1.0537999868392944,-0.9372999668121338,9.704699516296387
1682999369965058000,10.73705810546875,1.0988999605178833,-0.9460999965667725,9.698800086975098
1682999369985058000,10.75705810546875,1.1332999467849731,-0.9645999670028687,9.692999839782715
1682999370005058000,10.77705810546875,1.1538000106811523,-0.9851999878883362,9.688499450683594
1682999370025056500,10.797056396484376,1.166100025177002,-1.006500005722046,9.68489933013916
1682999370045056500,10.817056396484375,1.1827999353408813,-1.0311999320983887,9.68019962310791
1682999370065058000,10.83705810546875,1.2110999822616577,-1.0519999265670776,9.67449951171875
1682999370085056500,10.857056396484374,1.2380999326705933,-1.0691999197006226,9.66919994354248
1682999370105058000,10.87705810546875,1.2689999341964722,-1.0841000080108643,9.66349983215332
1682999370125058000,10.89705810546875,1.32260000705719,-1.0895999670028687,9.655699729919434
1682999370145058000,10.91705810546875,1.4162999391555786,-1.072700023651123,9.644299507141113
1682999370165058000,10.93705810546875,1.542099952697754,-1.0389999151229858,9.62869930267334
1682999370185058000,10.95705810546875,1.6598999500274658,-0.9995999932289124,9.613299369812012
1682999370205058000,10.97705810546875,1.7245999574661255,-0.9797999858856201,9.603899955749512
1682999370225056500,10.997056396484375,1.742799997329712,-0.986299991607666,9.59999942779541
1682999370245058000,11.01705810546875,1.7346999645233154,-0.982699990272522,9.601799964904785
1682999370265058000,11.03705810546875,1.7355999946594238,-0.9467999935150146,9.605199813842773
1682999370285058000,11.05705810546875,1.7756999731063843,-0.9014999866485596,9.602299690246582
1682999370305058000,11.07705810546875,1.823799967765808,-0.8629999756813049,9.596799850463867
1682999370325056500,11.097056396484374,1.8507999181747437,-0.8276000022888184,9.59469985961914
1682999370345058000,11.11705810546875,1.8595999479293823,-0.7931999564170837,9.59589958190918
1682999370365058000,11.13705810546875,1.8555999994277954,-0.7793999910354614,9.597799301147461
1682999370385058000,11.15705810546875,1.8377999067306519,-0.7904999852180481,9.600299835205078
1682999370405058000,11.17705810546875,1.805899977684021,-0.8166999816894531,9.604199409484863
1682999370425058000,11.19705810546875,1.7662999629974365,-0.8312999606132507,9.610300064086914
1682999370445058000,11.21705810546875,1.7150999307632446,-0.8335999846458435,9.619400024414062
1682999370465058000,11.23705810546875,1.6689000129699707,-0.8331999778747559,9.6274995803833
1682999370485058000,11.25705810546875,1.638700008392334,-0.8360999822616577,9.632499694824219
1682999370505058000,11.27705810546875,1.6064000129699707,-0.8430999517440796,9.637299537658691
1682999370525056500,11.297056396484376,1.5680999755859375,-0.843999981880188,9.643499374389648
1682999370545056500,11.317056396484375,1.5240999460220337,-0.8323000073432922,9.651599884033203
1682999370565058000,11.33705810546875,1.4905999898910522,-0.8215000033378601,9.65779972076416
1682999370585058000,11.35705810546875,1.4711999893188477,-0.8100000023841858,9.661699295043945
1682999370605058000,11.37705810546875,1.468400001525879,-0.79339998960495,9.66349983215332
1682999370625058000,11.39705810546875,1.4744999408721924,-0.7671999931335449,9.66469955444336
1682999370645058000,11.41705810546875,1.4680999517440796,-0.7437999844551086,9.667499542236328
1682999370665058000,11.43705810546875,1.4496999979019165,-0.7346999645233154,9.670999526977539
1682999370685056500,11.457056396484376,1.4318000078201294,-0.7329999804496765,9.673799514770508
1682999370705058000,11.47705810546875,1.411199927330017,-0.7310000061988831,9.676899909973145
1682999370725056500,11.497056396484375,1.4027999639511108,-0.7240999937057495,9.678699493408203
1682999370745056500,11.517056396484374,1.3984999656677246,-0.7195999622344971,9.67959976196289
1682999370765058000,11.53705810546875,1.3888999223709106,-0.7231999635696411,9.68079948425293
1682999370785058000,11.55705810546875,1.3859999179840088,-0.7199999690055847,9.68139934539795
1682999370805058000,11.57705810546875,1.4038000106811523,-0.7074999809265137,9.679800033569336
1682999370825056500,11.597056396484374,1.4068999290466309,-0.7062999606132507,9.679399490356445
1682999370845058000,11.61705810546875,1.4025999307632446,-0.698199987411499,9.6806001663208
1682999370865056500,11.637056396484375,1.4048999547958374,-0.671999990940094,9.682099342346191
1682999370885058000,11.65705810546875,1.4160999059677124,-0.6299999952316284,9.683300018310547
1682999370905058000,11.67705810546875,1.4160000085830688,-0.606499969959259,9.684800148010254
1682999370925058000,11.69705810546875,1.39329993724823,-0.6136999726295471,9.687699317932129
1682999370945058000,11.71705810546875,1.3465999364852905,-0.6229999661445618,9.693699836730957
1682999370965058000,11.73705810546875,1.2950999736785889,-0.6097999811172485,9.701600074768066
1682999370985058000,11.75705810546875,1.2804999351501465,-0.57669997215271,9.705499649047852
1682999371005058000,11.77705810546875,1.3091999292373657,-0.5428999662399292,9.70359992980957
1682999371025058000,11.79705810546875,1.3504999876022339,-0.5227999687194824,9.69909954071045
1682999371045058000,11.81705810546875,1.379699945449829,-0.5151999592781067,9.695399284362793
1682999371065058000,11.83705810546875,1.3918999433517456,-0.5115000009536743,9.69379997253418
1682999371085058000,11.85705810546875,1.3901000022888184,-0.5148999691009521,9.693900108337402
1682999371105058000,11.87705810546875,1.386799931526184,-0.5291000008583069,9.693599700927734
1682999371125058000,11.89705810546875,1.386099934577942,-0.5430999994277954,9.692899703979492
1682999371145058000,11.91705810546875,1.389699935913086,-0.5454999804496765,9.692299842834473
1682999371165058000,11.93705810546875,1.39329993724823,-0.5400999784469604,9.692099571228027
1682999371185056500,11.957056396484376,1.396799921989441,-0.5435999631881714,9.691399574279785
1682999371205058000,11.97705810546875,1.392300009727478,-0.5613999962806702,9.690999984741211
1682999371225056500,11.997056396484375,1.3824999332427979,-0.5841999650001526,9.691100120544434
1682999371245056500,12.017056396484374,1.3628000020980835,-0.6089999675750732,9.692299842834473
1682999371265058000,12.03705810546875,1.3371999263763428,-0.6308000087738037,9.694499969482422
1682999371285058000,12.05705810546875,1.3180999755859375,-0.6527999639511108,9.695599555969238
1682999371305058000,12.07705810546875,1.313499927520752,-0.6672999858856201,9.695300102233887
1682999371325056500,12.097056396484374,1.330299973487854,-0.6704999804496765,9.69279956817627
1682999371345058000,12.11705810546875,1.3564000129699707,-0.6740999817848206,9.688899993896484
1682999371365058000,12.13705810546875,1.382099986076355,-0.6840999722480774,9.684599876403809
1682999371385058000,12.15705810546875,1.396399974822998,-0.6948999762535095,9.68179988861084
1682999371405058000,12.17705810546875,1.403999924659729,-0.6967999935150146,9.680500030517578
1682999371425058000,12.19705810546875,1.4217000007629395,-0.6980999708175659,9.677800178527832
1682999371445056500,12.217056396484375,1.4397000074386597,-0.703000009059906,9.674799919128418
1682999371465058000,12.23705810546875,1.4412000179290771,-0.7112999558448792,9.673999786376953
1682999371485058000,12.25705810546875,1.4335999488830566,-0.715999960899353,9.674799919128418
1682999371505058000,12.27705810546875,1.4270999431610107,-0.7044999599456787,9.676599502563477
1682999371525058000,12.29705810546875,1.4279999732971191,-0.6818000078201294,9.678099632263184
1682999371545058000,12.31705810546875,1.4707999229431152,-0.6545000076293945,9.673500061035156
1682999371565058000,12.33705810546875,1.5432000160217285,-0.6312999725341797,9.663799285888672
1682999371585058000,12.35705810546875,1.6238999366760254,-0.6150999665260315,9.651599884033203
1682999371605058000,12.37705810546875,1.6977999210357666,-0.5934999585151672,9.640199661254883
1682999371625058000,12.39705810546875,1.7400000095367432,-0.5801999568939209,9.633500099182129
1682999371645058000,12.41705810546875,1.7512999773025513,-0.5777999758720398,9.631599426269531
1682999371665058000,12.43705810546875,1.7409999370574951,-0.5801999568939209,9.633399963378906
1682999371685058000,12.45705810546875,1.7127999067306519,-0.5781999826431274,9.638500213623047
1682999371705058000,12.47705810546875,1.6901999711990356,-0.5656999945640564,9.64330005645752
1682999371725058000,12.49705810546875,1.684499979019165,-0.545799970626831,9.645400047302246
1682999371745056500,12.517056396484374,1.678399920463562,-0.5264999866485596,9.647500038146973
1682999371765058000,12.53705810546875,1.6779999732971191,-0.5103999972343445,9.648499488830566
1682999371785058000,12.55705810546875,1.6758999824523926,-0.4992999732494354,9.649399757385254
1682999371805058000,12.57705810546875,1.670699954032898,-0.49149999022483826,9.650699615478516
1682999371825056500,12.597056396484374,1.6715999841690063,-0.49309998750686646,9.65049934387207
1682999371845058000,12.61705810546875,1.6723999977111816,-0.5020999908447266,9.64989948272705
1682999371865058000,12.63705810546875,1.6647999286651611,-0.5126000046730042,9.650599479675293
1682999371885058000,12.65705810546875,1.654099941253662,-0.5209999680519104,9.651999473571777
1682999371905058000,12.67705810546875,1.6430000066757202,-0.524899959564209,9.65369987487793
1682999371925058000,12.69705810546875,1.6370999813079834,-0.5277000069618225,9.654600143432617
1682999371945058000,12.71705810546875,1.631500005722046,-0.5353999733924866,9.655099868774414
1682999371965058000,12.73705810546875,1.6110999584197998,-0.5457000136375427,9.657899856567383
1682999371985058000,12.75705810546875,1.5789999961853027,-0.5534999966621399,9.662799835205078
1682999372005058000,12.77705810546875,1.5546000003814697,-0.5629000067710876,9.666199684143066
1682999372025058000,12.79705810546875,1.5525000095367432,-0.5669000148773193,9.666299819946289
1682999372045058000,12.81705810546875,1.5608999729156494,-0.5744999647140503,9.664499282836914
1682999372065058000,12.83705810546875,1.563499927520752,-0.5896999835968018,9.663199424743652
1682999372085058000,12.85705810546875,1.552899956703186,-0.6173999905586243,9.663199424743652
1682999372105058000,12.87705810546875,1.532599925994873,-0.6495999693870544,9.664299964904785
1682999372125058000,12.89705810546875,1.5123999118804932,-0.6757999658584595,9.66569995880127
1682999372145058000,12.91705810546875,1.5019999742507935,-0.6944999694824219,9.665999412536621
1682999372165058000,12.93705810546875,1.4893999099731445,-0.718999981880188,9.666099548339844
1682999372185058000,12.95705810546875,1.4644999504089355,-0.7455999851226807,9.667900085449219
1682999372205058000,12.97705810546875,1.406000018119812,-0.776699960231781,9.674099922180176
1682999372225056500,12.997056396484375,1.3566999435424805,-0.7991999983787537,9.679399490356445
1682999372245056500,13.017056396484374,1.3401999473571777,-0.8055999875068665,9.681099891662598
1682999372265058000,13.03705810546875,1.3213999271392822,-0.8156999945640564,9.682899475097656
1682999372285058000,13.05705810546875,1.3005999326705933,-0.8132999539375305,9.68589973449707
1682999372305058000,13.07705810546875,1.3001999855041504,-0.8065999746322632,9.68649959564209
1682999372325056500,13.097056396484374,1.3221999406814575,-0.7771999835968018,9.68589973449707
1682999372345058000,13.11705810546875,1.3431999683380127,-0.7407000064849854,9.68589973449707
1682999372365058000,13.13705810546875,1.3398000001907349,-0.7159000039100647,9.688199996948242
1682999372385058000,13.15705810546875,1.312600016593933,-0.6941999793052673,9.693499565124512
1682999372405058000,13.17705810546875,1.289099931716919,-0.6627999544143677,9.69890022277832
1682999372425058000,13.19705810546875,1.2721999883651733,-0.6103999614715576,9.704500198364258
1682999372445058000,13.21705810546875,1.2777999639511108,-0.5467000007629395,9.707599639892578
1682999372465058000,13.23705810546875,1.3078999519348145,-0.4869000017642975,9.706799507141113
1682999372485058000,13.25705810546875,1.3467999696731567,-0.43389999866485596,9.703999519348145
1682999372505058000,13.27705810546875,1.381500005722046,-0.3840999901294708,9.701199531555176
1682999372525058000,13.29705810546875,1.4010999202728271,-0.343099981546402,9.699899673461914
1682999372545058000,13.31705810546875,1.4108999967575073,-0.3164999783039093,9.699399948120117
1682999372565058000,13.33705810546875,1.4158999919891357,-0.30539998412132263,9.698999404907227
1682999372585058000,13.35705810546875,1.4118999242782593,-0.3019999861717224,9.699699401855469
1682999372605058000,13.37705810546875,1.3989999294281006,-0.2994000017642975,9.701700210571289
1682999372625058000,13.39705810546875,1.3868999481201172,-0.2920999825000763,9.70359992980957
1682999372645058000,13.41705810546875,1.3780999183654785,-0.2849999964237213,9.705100059509277
1682999372665058000,13.43705810546875,1.3643999099731445,-0.2847999930381775,9.706999778747559
1682999372685058000,13.45705810546875,1.3492000102996826,-0.2865000069141388,9.709099769592285
1682999372705058000,13.47705810546875,1.3328999280929565,-0.29649999737739563,9.711099624633789
1682999372725056500,13.497056396484375,1.3133999109268188,-0.31859999895095825,9.71299934387207
1682999372745056500,13.517056396484374,1.2950999736785889,-0.3490999937057495,9.714399337768555
1682999372765058000,13.53705810546875,1.2867000102996826,-0.3828999996185303,9.714300155639648
1682999372785058000,13.55705810546875,1.2803999185562134,-0.4235999882221222,9.713399887084961
1682999372805056500,13.577056396484375,1.2661999464035034,-0.46879997849464417,9.713199615478516
1682999372825056500,13.597056396484374,1.2501999139785767,-0.5133999586105347,9.71299934387207
1682999372845058000,13.61705810546875,1.2358999252319336,-0.5552999973297119,9.712499618530273
1682999372865058000,13.63705810546875,1.2279000282287598,-0.5895999670028687,9.71150016784668
1682999372885058000,13.65705810546875,1.2269999980926514,-0.6101999878883362,9.710399627685547
1682999372905058000,13.67705810546875,1.223099946975708,-0.6172999739646912,9.710399627685547
1682999372925058000,13.69705810546875,1.2142999172210693,-0.6347999572753906,9.710399627685547
1682999372945058000,13.71705810546875,1.2374999523162842,-0.6438999772071838,9.706899642944336
1682999372965056500,13.737056396484375,1.2448999881744385,-0.6354999542236328,9.706500053405762
1682999372985058000,13.75705810546875,1.2573000192642212,-0.6261000037193298,9.705499649047852
1682999373005058000,13.77705810546875,1.286099910736084,-0.6168000102043152,9.702300071716309
1682999373025058000,13.79705810546875,1.3250999450683594,-0.611799955368042,9.697400093078613
1682999373045056500,13.817056396484375,1.382599949836731,-0.6018999814987183,9.6899995803833
1682999373065058000,13.83705810546875,1.4465999603271484,-0.592799961566925,9.68120002746582
1682999373085058000,13.85705810546875,1.5134999752044678,-0.5881999731063843,9.671199798583984
1682999373105058000,13.87705810546875,1.5511000156402588,-0.590499997138977,9.66510009765625
1682999373125058000,13.89705810546875,1.5365999937057495,-0.590999960899353,9.667399406433105
1682999373145058000,13.91705810546875,1.5101999044418335,-0.5795999765396118,9.6722993850708
1682999373165058000,13.93705810546875,1.507099986076355,-0.5544999837875366,9.674200057983398
1682999373185058000,13.95705810546875,1.528999924659729,-0.5227999687194824,9.672499656677246
1682999373205058000,13.97705810546875,1.5543999671936035,-0.5047999620437622,9.669499397277832
1682999373225056500,13.997056396484375,1.5583999156951904,-0.49799999594688416,9.66919994354248
1682999373245056500,14.017056396484374,1.5482999086380005,-0.5026000142097473,9.670499801635742
1682999373265058000,14.03705810546875,1.5347999334335327,-0.5162000060081482,9.67199993133545
1682999373285058000,14.05705810546875,1.5239999294281006,-0.5351999998092651,9.672699928283691
1682999373305058000,14.07705810546875,1.522499918937683,-0.5504999756813049,9.67199993133545
1682999373325056500,14.097056396484374,1.525399923324585,-0.5633000135421753,9.67080020904541
1682999373345058000,14.11705810546875,1.528899908065796,-0.5760999917984009,9.669499397277832
1682999373365058000,14.13705810546875,1.529099941253662,-0.5873000025749207,9.66879940032959
1682999373385058000,14.15705810546875,1.5332999229431152,-0.5953999757766724,9.667699813842773
1682999373405058000,14.17705810546875,1.5353000164031982,-0.5989999771118164,9.667099952697754
1682999373425058000,14.19705810546875,1.5340999364852905,-0.6017000079154968,9.667200088500977
1682999373445058000,14.21705810546875,1.5321999788284302,-0.608299970626831,9.666999816894531
1682999373465058000,14.23705810546875,1.5203999280929565,-0.6223999857902527,9.668000221252441
1682999373485058000,14.25705810546875,1.499400019645691,-0.6402999758720398,9.670100212097168
1682999373505058000,14.27705810546875,1.4750999212265015,-0.6543999910354614,9.672900199890137
1682999373525058000,14.29705810546875,1.451799988746643,-0.663599967956543,9.675799369812012
1682999373545058000,14.31705810546875,1.437600016593933,-0.6703999638557434,9.677499771118164
1682999373565058000,14.33705810546875,1.4311000108718872,-0.6775000095367432,9.677899360656738
1682999373585058000,14.35705810546875,1.4191999435424805,-0.6796000003814697,9.679499626159668
1682999373605058000,14.37705810546875,1.40749990940094,-0.6740999817848206,9.681599617004395
1682999373625058000,14.39705810546875,1.4002000093460083,-0.6642999649047852,9.68340015411377
1682999373645058000,14.41705810546875,1.385200023651123,-0.6571999788284302,9.685999870300293
1682999373665058000,14.43705810546875,1.351699948310852,-0.6608999967575073,9.690499305725098
1682999373685058000,14.45705810546875,1.312399983406067,-0.6682999730110168,9.695399284362793
1682999373705058000,14.47705810546875,1.292699933052063,-0.6675999760627747,9.698100090026855
1682999373725056500,14.497056396484375,1.2870999574661255,-0.6592000126838684,9.699399948120117
1682999373745056500,14.517056396484374,1.3020999431610107,-0.6448999643325806,9.698299407958984
1682999373765058000,14.53705810546875,1.3293999433517456,-0.6297000050544739,9.695599555969238
1682999373785058000,14.55705810546875,1.3697999715805054,-0.6115999817848206,9.69119930267334
1682999373805058000,14.57705810546875,1.4057999849319458,-0.5949000120162964,9.68709945678711
1682999373825056500,14.597056396484374,1.4027999639511108,-0.5959999561309814,9.687399864196777
1682999373845058000,14.61705810546875,1.3664000034332275,-0.6092000007629395,9.691800117492676
1682999373865058000,14.63705810546875,1.3166999816894531,-0.6010000109672546,9.699199676513672
1682999373885058000,14.65705810546875,1.292099952697754,-0.5590000152587891,9.704999923706055
1682999373905058000,14.67705810546875,1.299299955368042,-0.49779999256134033,9.707399368286133
1682999373925058000,14.69705810546875,1.3207999467849731,-0.4359000027179718,9.707499504089355
1682999373945058000,14.71705810546875,1.3529999256134033,-0.3831999897956848,9.7052001953125
1682999373965058000,14.73705810546875,1.3715999126434326,-0.3369999825954437,9.704299926757812
1682999373985058000,14.75705810546875,1.3743000030517578,-0.2987000048160553,9.7052001953125
1682999374005058000,14.77705810546875,1.3746999502182007,-0.26899999380111694,9.705999374389648
1682999374025058000,14.79705810546875,1.3746999502182007,-0.25099998712539673,9.706500053405762
1682999374045058000,14.81705810546875,1.3746999502182007,-0.24779999256134033,9.706600189208984
1682999374065058000,14.83705810546875,1.3788999319076538,-0.2525999844074249,9.705900192260742
1682999374085058000,14.85705810546875,1.375100016593933,-0.25949999690055847,9.706199645996094
1682999374105058000,14.87705810546875,1.357100009918213,-0.26489999890327454,9.708600044250488
1682999374125058000,14.89705810546875,1.3375999927520752,-0.2708999812602997,9.711199760437012
1682999374145058000,14.91705810546875,1.323099970817566,-0.282399982213974,9.712800025939941
1682999374165058000,14.93705810546875,1.3183000087738037,-0.2992999851703644,9.71299934387207
1682999374185058000,14.95705810546875,1.314099907875061,-0.3181000053882599,9.712900161743164
1682999374205058000,14.97705810546875,1.3073999881744385,-0.3418000042438507,9.71299934387207
1682999374225058000,14.99705810546875,1.2997000217437744,-0.37129998207092285,9.71299934387207
1682999374245058000,15.01705810546875,1.2888000011444092,-0.406499981880188,9.71299934387207
1682999374265058000,15.03705810546875,1.2782999277114868,-0.4390999972820282,9.71299934387207
1682999374285058000,15.05705810546875,1.2740999460220337,-0.4696999788284302,9.7121000289917
1682999374305058000,15.07705810546875,1.2745999097824097,-0.5004000067710876,9.71049976348877
1682999374325056500,15.097056396484374,1.2760999202728271,-0.529699981212616,9.708799362182617
1682999374345058000,15.11705810546875,1.277400016784668,-0.5570999979972839,9.707099914550781
1682999374365056500,15.137056396484375,1.282099962234497,-0.5753999948501587,9.705399513244629
1682999374385058000,15.15705810546875,1.2817000150680542,-0.5999999642372131,9.703899383544922
1682999374405058000,15.17705810546875,1.2846999168395996,-0.640500009059906,9.701000213623047
1682999374425058000,15.19705810546875,1.291700005531311,-0.670799970626831,9.697999954223633
1682999374445058000,15.21705810546875,1.274899959564209,-0.6934999823570251,9.698599815368652
1682999374465058000,15.23705810546875,1.2723000049591064,-0.7084000110626221,9.69789981842041
1682999374485058000,15.25705810546875,1.2911999225616455,-0.7033999562263489,9.695699691772461
1682999374505058000,15.27705810546875,1.3316999673843384,-0.6816999912261963,9.691800117492676
1682999374525056500,15.297056396484376,1.386699914932251,-0.6377999782562256,9.68709945678711
1682999374545056500,15.317056396484375,1.4334999322891235,-0.5859999656677246,9.683499336242676
1682999374565058000,15.33705810546875,1.4536999464035034,-0.5583999752998352,9.682199478149414
1682999374585058000,15.35705810546875,1.427299976348877,-0.5715999603271484,9.68529987335205
1682999374605056500,15.377056396484376,1.3898999691009521,-0.5889999866485596,9.68970012664795
1682999374625058000,15.39705810546875,1.3696999549865723,-0.58160001039505,9.692999839782715
1682999374645058000,15.41705810546875,1.3758999109268188,-0.5543000102043152,9.69379997253418
1682999374665058000,15.43705810546875,1.3912999629974365,-0.531499981880188,9.69279956817627
1682999374685058000,15.45705810546875,1.4013999700546265,-0.5220999717712402,9.691899299621582
1682999374705058000,15.47705810546875,1.3953999280929565,-0.5216000080108643,9.69279956817627
1682999374725056500,15.497056396484375,1.3844999074935913,-0.530299961566925,9.693900108337402
1682999374745056500,15.517056396484374,1.378000020980835,-0.541700005531311,9.694199562072754
1682999374765058000,15.53705810546875,1.3763999938964844,-0.557200014591217,9.693499565124512
1682999374785058000,15.55705810546875,1.3777999877929688,-0.5770999789237976,9.69219970703125
1682999374805058000,15.57705810546875,1.368899941444397,-0.5996999740600586,9.691999435424805
1682999374825056500,15.597056396484374,1.3509999513626099,-0.6195999979972839,9.693299293518066
1682999374845058000,15.61705810546875,1.3286999464035034,-0.6319000124931335,9.695599555969238
1682999374865058000,15.63705810546875,1.3105000257492065,-0.6348999738693237,9.69789981842041
1682999374885058000,15.65705810546875,1.2969999313354492,-0.6317999958992004,9.699899673461914
1682999374905058000,15.67705810546875,1.2843999862670898,-0.6251999735832214,9.70199966430664
1682999374925058000,15.69705810546875,1.260699987411499,-0.6214999556541443,9.705299377441406
1682999374945058000,15.71705810546875,1.232200026512146,-0.6200999617576599,9.709099769592285
1682999374965058000,15.73705810546875,1.2073999643325806,-0.6204999685287476,9.712200164794922
1682999374985058000,15.75705810546875,1.1972999572753906,-0.6195999979972839,9.713500022888184
1682999375005058000,15.77705810546875,1.1833000183105469,-0.6227999925613403,9.71500015258789
1682999375025058000,15.79705810546875,1.159500002861023,-0.6324999928474426,9.717199325561523
1682999375045058000,15.81705810546875,1.1319999694824219,-0.6491000056266785,9.719399452209473
1682999375065058000,15.83705810546875,1.105199933052063,-0.6722999811172485,9.72089958190918
1682999375085058000,15.85705810546875,1.0841000080108643,-0.6884999871253967,9.722099304199219
1682999375105058000,15.87705810546875,1.0641999244689941,-0.6951999664306641,9.723899841308594
1682999375125058000,15.89705810546875,1.0304999351501465,-0.7019999623298645,9.726999282836914
1682999375145058000,15.91705810546875,1.0108000040054321,-0.7040999531745911,9.728899955749512
1682999375165058000,15.93705810546875,1.0104999542236328,-0.6913999915122986,9.729899406433105
1682999375185058000,15.95705810546875,1.0216000080108643,-0.6803999543190002,9.729499816894531
1682999375205058000,15.97705810546875,1.0401999950408936,-0.6662999987602234,9.728499412536621
1682999375225056500,15.997056396484375,1.0627999305725098,-0.6420999765396118,9.727699279785156
1682999375245058000,16.01705810546875,1.0749999284744263,-0.593999981880188,9.729399681091309
1682999375265058000,16.03705810546875,1.0806999206542969,-0.5349000096321106,9.732199668884277
1682999375285061000,16.05706103515625,1.0716999769210815,-0.49399998784065247,9.735300064086914
1682999375305058000,16.07705810546875,1.0591000318527222,-0.47039997577667236,9.737899780273438
1682999375325058000,16.09705810546875,1.0561000108718872,-0.44739997386932373,9.739299774169922
1682999375345058000,16.11705810546875,1.0570999383926392,-0.42170000076293945,9.740300178527832
1682999375365058000,16.13705810546875,1.0469999313354492,-0.4047999978065491,9.74209976196289
1682999375385058000,16.15705810546875,1.039099931716919,-0.39989998936653137,9.743199348449707
1682999375405058000,16.17705810546875,1.0338000059127808,-0.3977999985218048,9.743800163269043
1682999375425058000,16.19705810546875,1.0340999364852905,-0.39169999957084656,9.744099617004395
1682999375445058000,16.21705810546875,1.0485999584197998,-0.38589999079704285,9.74269962310791
1682999375465058000,16.23705810546875,1.0729999542236328,-0.3870999813079834,9.739999771118164
1682999375485058000,16.25705810546875,1.0875999927520752,-0.38839998841285706,9.738399505615234
1682999375505058000,16.27705810546875,1.0949000120162964,-0.3874000012874603,9.73759937286377
1682999375525058000,16.29705810546875,1.104599952697754,-0.38359999656677246,9.736599922180176
1682999375545058000,16.31705810546875,1.1093999147415161,-0.38099998235702515,9.736199378967285
1682999375565058000,16.33705810546875,1.1193000078201294,-0.37959998846054077,9.735099792480469
1682999375585058000,16.35705810546875,1.1244999170303345,-0.37770000100135803,9.734600067138672
1682999375605058000,16.37705810546875,1.1208000183105469,-0.37939998507499695,9.734899520874023
1682999375625058000,16.39705810546875,1.114300012588501,-0.38499999046325684,9.735499382019043
1682999375645058000,16.41705810546875,1.1110999584197998,-0.3950999975204468,9.735400199890137
1682999375665058000,16.43705810546875,1.1129999160766602,-0.4041000008583069,9.7347993850708
1682999375685058000,16.45705810546875,1.1116999387741089,-0.40939998626708984,9.7347993850708
1682999375705058000,16.47705810546875,1.1103999614715576,-0.4163999855518341,9.734600067138672
1682999375725056500,16.497056396484375,1.104099988937378,-0.42549997568130493,9.734899520874023
1682999375745056500,16.517056396484374,1.09089994430542,-0.43379998207092285,9.736100196838379
1682999375765058000,16.53705810546875,1.0780999660491943,-0.4406999945640564,9.737199783325195
1682999375785058000,16.55705810546875,1.0743999481201172,-0.4412999749183655,9.73759937286377
1682999375805058000,16.57705810546875,1.0770000219345093,-0.4382999837398529,9.73740005493164
1682999375825056500,16.597056396484376,1.0891000032424927,-0.42879998683929443,9.736499786376953
1682999375845058000,16.61705810546875,1.100600004196167,-0.4136999845504761,9.735899925231934
1682999375865058000,16.63705810546875,1.1313999891281128,-0.39649999141693115,9.732999801635742
1682999375885058000,16.65705810546875,1.1584999561309814,-0.3726999759674072,9.730799674987793
1682999375905058000,16.67705810546875,1.1734999418258667,-0.3603000044822693,9.729499816894531
1682999375925058000,16.69705810546875,1.1998999118804932,-0.3527999818325043,9.726499557495117
1682999375945058000,16.71705810546875,1.2360999584197998,-0.34599998593330383,9.722199440002441
1682999375965056500,16.737056396484373,1.292799949645996,-0.3319000005722046,9.715299606323242
1682999375985058000,16.75705810546875,1.3640999794006348,-0.31129997968673706,9.706299781799316
1682999376005058000,16.77705810546875,1.437999963760376,-0.28849998116493225,9.69629955291748
1682999376025058000,16.79705810546875,1.4830999374389648,-0.27639999985694885,9.689899444580078
1682999376045058000,16.81705810546875,1.4876999855041504,-0.2847999930381775,9.688899993896484
1682999376065058000,16.83705810546875,1.4651999473571777,-0.30699998140335083,9.69159984588623
1682999376085058000,16.85705810546875,1.4399999380111694,-0.3243999779224396,9.694899559020996
1682999376105058000,16.87705810546875,1.4228999614715576,-0.33149999380111694,9.697099685668945
1682999376125058000,16.89705810546875,1.4172999858856201,-0.33969998359680176,9.697699546813965
1682999376145058000,16.91705810546875,1.4107999801635742,-0.3471999764442444,9.698399543762207
1682999376165058000,16.93705810546875,1.4018999338150024,-0.35409998893737793,9.699399948120117
1682999376185058000,16.95705810546875,1.3884999752044678,-0.3643999993801117,9.701000213623047
1682999376205058000,16.97705810546875,1.3693000078201294,-0.38199999928474426,9.70300006866455
1682999376225058000,16.99705810546875,1.3442999124526978,-0.41279998421669006,9.7052001953125
1682999376245058000,17.01705810546875,1.3169000148773193,-0.45350000262260437,9.707200050354004
1682999376265058000,17.03705810546875,1.2889000177383423,-0.49129998683929443,9.709099769592285
1682999376285058000,17.05705810546875,1.2621999979019165,-0.5209999680519104,9.711099624633789
1682999376305058000,17.07705810546875,1.2374999523162842,-0.5449999570846558,9.712900161743164
1682999376325056500,17.097056396484376,1.2135000228881836,-0.5730000138282776,9.714300155639648
1682999376345058000,17.11705810546875,1.1957999467849731,-0.6028000116348267,9.714699745178223
1682999376365058000,17.13705810546875,1.1776000261306763,-0.6274999976158142,9.715399742126465
1682999376385058000,17.15705810546875,1.1618999242782593,-0.645799994468689,9.716099739074707
1682999376405056500,17.177056396484375,1.1538000106811523,-0.6644999980926514,9.715799331665039
1682999376425058000,17.19705810546875,1.1448999643325806,-0.6872000098228455,9.715299606323242
1682999376445058000,17.21705810546875,1.1302000284194946,-0.707099974155426,9.715499877929688
1682999376465056500,17.237056396484373,1.1151999235153198,-0.7199999690055847,9.716300010681152
1682999376485058000,17.25705810546875,1.107200026512146,-0.7264999747276306,9.71679973602295
1682999376505058000,17.27705810546875,1.1060999631881714,-0.7281999588012695,9.71679973602295
1682999376525058000,17.29705810546875,1.0988999605178833,-0.7267000079154968,9.717700004577637
1682999376545058000,17.31705810546875,1.0712000131607056,-0.734499990940094,9.720199584960938
1682999376565058000,17.33705810546875,1.0413999557495117,-0.7390999794006348,9.723099708557129
1682999376585058000,17.35705810546875,1.017799973487854,-0.7335000038146973,9.72599983215332
1682999376605058000,17.37705810546875,1.0118999481201172,-0.7181000113487244,9.727799415588379
1682999376625058000,17.39705810546875,1.0282000303268433,-0.6922000050544739,9.727899551391602
1682999376645058000,17.41705810546875,1.0519999265670776,-0.6571999788284302,9.727799415588379
1682999376665058000,17.43705810546875,1.0824999809265137,-0.6078999638557434,9.727699279785156
1682999376685058000,17.45705810546875,1.1094999313354492,-0.5561000108718872,9.727699279785156
1682999376705058000,17.47705810546875,1.0960999727249146,-0.512499988079071,9.73169994354248
1682999376725058000,17.49705810546875,1.0465999841690063,-0.47529998421669006,9.738999366760254
1682999376745056500,17.517056396484374,0.9763999581336975,-0.43140000104904175,9.748299598693848
1682999376765058000,17.53705810546875,0.9305999875068665,-0.3702999949455261,9.75529956817627
1682999376785058000,17.55705810546875,0.9107999801635742,-0.30959999561309814,9.759299278259277
1682999376805058000,17.57705810546875,0.8988999724388123,-0.25279998779296875,9.76200008392334
1682999376825056500,17.597056396484376,0.897599995136261,-0.20579999685287476,9.763299942016602
1682999376845058000,17.61705810546875,0.9018999934196472,-0.16669999063014984,9.763599395751953
1682999376865058000,17.63705810546875,0.9116999506950378,-0.13319998979568481,9.763199806213379
1682999376885058000,17.65705810546875,0.9231999516487122,-0.11219999939203262,9.762399673461914
1682999376905056500,17.677056396484375,0.9368000030517578,-0.10749999433755875,9.761199951171875
1682999376925058000,17.69705810546875,0.946399986743927,-0.12600000202655792,9.760000228881836
1682999376945058000,17.71705810546875,0.9469999670982361,-0.16129998862743378,9.7593994140625
1682999376965058000,17.73705810546875,0.937999963760376,-0.20309999585151672,9.759499549865723
1682999376985058000,17.75705810546875,0.927299976348877,-0.22839999198913574,9.760000228881836
1682999377005058000,17.77705810546875,0.9159999489784241,-0.23989999294281006,9.760799407958984
1682999377025058000,17.79705810546875,0.9073999524116516,-0.2505999803543091,9.761300086975098
1682999377045058000,17.81705810546875,0.9024999737739563,-0.27059999108314514,9.761199951171875
1682999377065058000,17.83705810546875,0.8925999999046326,-0.2955999970436096,9.76140022277832
1682999377085058000,17.85705810546875,0.876800000667572,-0.32420000433921814,9.761899948120117
1682999377105058000,17.87705810546875,0.8655999898910522,-0.35269999504089355,9.761899948120117
1682999377125058000,17.89705810546875,0.8718000054359436,-0.3823999762535095,9.760299682617188
1682999377145058000,17.91705810546875,0.8937000036239624,-0.4080999791622162,9.757299423217773
1682999377165056500,17.937056396484376,0.9222999811172485,-0.43459999561309814,9.753399848937988
1682999377185058000,17.95705810546875,0.9484999775886536,-0.4616999924182892,9.749699592590332
1682999377205058000,17.97705810546875,0.9638999700546265,-0.48539999127388,9.746999740600586
1682999377225056500,17.997056396484375,0.968999981880188,-0.503600001335144,9.745599746704102
1682999377245056500,18.017056396484374,0.9788999557495117,-0.5327999591827393,9.7431001663208
1682999377265058000,18.03705810546875,0.9884999990463257,-0.571399986743927,9.739899635314941
1682999377285058000,18.05705810546875,0.9932000041007996,-0.6121000051498413,9.736899375915527
1682999377305056500,18.077056396484377,0.9894999861717224,-0.6385999917984009,9.735599517822266
1682999377325056500,18.097056396484376,0.9883999824523926,-0.6376000046730042,9.735799789428711
1682999377345058000,18.11705810546875,1.00819993019104,-0.6068999767303467,9.735699653625488
1682999377365058000,18.13705810546875,1.0460000038146973,-0.5559999942779541,9.7347993850708
1682999377385058000,18.15705810546875,1.1137999296188354,-0.4957999885082245,9.730500221252441
1682999377405056500,18.177056396484375,1.1825000047683716,-0.42159998416900635,9.725899696350098
1682999377425058000,18.19705810546875,1.2244999408721924,-0.35179999470710754,9.723499298095703
1682999377445058000,18.21705810546875,1.2314000129699707,-0.29649999737739563,9.724499702453613
1682999377465058000,18.23705810546875,1.2134000062942505,-0.24719999730587006,9.728099822998047
1682999377485058000,18.25705810546875,1.1820999383926392,-0.18599998950958252,9.73330020904541
1682999377505058000,18.27705810546875,1.1618999242782593,-0.11369999498128891,9.736899375915527
1682999377525058000,18.29705810546875,1.1675999164581299,-0.042399998754262924,9.736800193786621
1682999377545058000,18.31705810546875,1.1856999397277832,0.016499999910593033,9.734600067138672
1682999377565058000,18.33705810546875,1.1990000009536743,0.05549999698996544,9.73289966583252
1682999377585058000,18.35705810546875,1.2035999298095703,0.0731000006198883,9.732199668884277
1682999377605058000,18.37705810546875,1.2024999856948853,0.0689999982714653,9.7322998046875
1682999377625058000,18.39705810546875,1.2010999917984009,0.04619999974966049,9.732699394226074
1682999377645058000,18.41705810546875,1.1923999786376953,0.0018999999156221747,9.733799934387207
1682999377665058000,18.43705810546875,1.174799919128418,-0.06059999763965607,9.735799789428711
1682999377685058000,18.45705810546875,1.150499939918518,-0.13580000400543213,9.737899780273438
1682999377705058000,18.47705810546875,1.1207000017166138,-0.21490000188350677,9.739999771118164
1682999377725056500,18.497056396484375,1.0929999351501465,-0.28689998388290405,9.741299629211426
1682999377745056500,18.517056396484374,1.069700002670288,-0.34379997849464417,9.741999626159668
1682999377765058000,18.53705810546875,1.0592999458312988,-0.3799999952316284,9.741799354553223
1682999377785058000,18.55705810546875,1.0687999725341797,-0.4017999768257141,9.739899635314941
1682999377805058000,18.57705810546875,1.0853999853134155,-0.4174000024795532,9.73740005493164
1682999377825056500,18.597056396484376,1.097999930381775,-0.4284999966621399,9.735499382019043
1682999377845058000,18.61705810546875,1.0996999740600586,-0.43209999799728394,9.735099792480469
1682999377865056500,18.637056396484375,1.0978999137878418,-0.43299999833106995,9.735300064086914
1682999377885058000,18.65705810546875,1.0925999879837036,-0.43050000071525574,9.736000061035156
1682999377905058000,18.67705810546875,1.0782999992370605,-0.42170000076293945,9.73799991607666
1682999377925058000,18.69705810546875,1.0504000186920166,-0.4123999774456024,9.741499900817871
1682999377945058000,18.71705810546875,1.0233999490737915,-0.4027999937534332,9.744699478149414
1682999377965058000,18.73705810546875,0.9960999488830566,-0.38449999690055847,9.748299598693848
1682999377985058000,18.75705810546875,0.9728999733924866,-0.3544999957084656,9.751799583435059
1682999378005058000,18.77705810546875,0.9530999660491943,-0.3244999945163727,9.754799842834473
1682999378025058000,18.79705810546875,0.9162999987602234,-0.30869999527931213,9.75879955291748
1682999378045058000,18.81705810546875,0.8755999803543091,-0.3000999987125397,9.762800216674805
1682999378065058000,18.83705810546875,0.8657999634742737,-0.2750999927520752,9.764399528503418
1682999378085058000,18.85705810546875,0.878600001335144,-0.23349998891353607,9.764399528503418
1682999378105058000,18.87705810546875,0.8932999968528748,-0.18709999322891235,9.763999938964844
1682999378125058000,18.89705810546875,0.8988999724388123,-0.13169999420642853,9.764399528503418
1682999378145058000,18.91705810546875,0.8959999680519104,-0.06480000168085098,9.765399932861328
1682999378165058000,18.93705810546875,0.8930000066757202,0.01759999990463257,9.765799522399902
1682999378185058000,18.95705810546875,0.8922999501228333,0.10279999673366547,9.765399932861328
1682999378205058000,18.97705810546875,0.8958999514579773,0.17139999568462372,9.764100074768066
1682999378225056500,18.997056396484375,0.8921999931335449,0.21879999339580536,9.763500213623047
1682999378245058000,19.01705810546875,0.878600001335144,0.25450000166893005,9.763799667358398
1682999378265058000,19.03705810546875,0.8779000043869019,0.28290000557899475,9.763099670410156
1682999378285058000,19.05705810546875,0.8926999568939209,0.2937999963760376,9.761499404907227
1682999378305058000,19.07705810546875,0.9200999736785889,0.2902999818325043,9.758999824523926
1682999378325056500,19.097056396484376,0.9440000057220459,0.2712000012397766,9.757299423217773
1682999378345058000,19.11705810546875,0.9548999667167664,0.25349998474121094,9.756699562072754
1682999378365058000,19.13705810546875,0.9627999663352966,0.22819998860359192,9.756499290466309
1682999378385058000,19.15705810546875,0.9699999690055847,0.19169999659061432,9.756599426269531
1682999378405058000,19.17705810546875,0.9680999517440796,0.14249999821186066,9.757599830627441
1682999378425058000,19.19705810546875,0.9545999765396118,0.09269999712705612,9.759599685668945
1682999378445058000,19.21705810546875,0.9422000050544739,0.04319999739527702,9.761099815368652
1682999378465058000,19.23705810546875,0.933899998664856,-0.0072999997064471245,9.76200008392334
1682999378485058000,19.25705810546875,0.9267999529838562,-0.057499997317790985,9.762499809265137
1682999378505058000,19.27705810546875,0.9223999977111816,-0.10409999638795853,9.76259994506836
1682999378525058000,19.29705810546875,0.9149999618530273,-0.1476999968290329,9.762700080871582
1682999378545058000,19.31705810546875,0.9109999537467957,-0.18490000069141388,9.762399673461914
1682999378565058000,19.33705810546875,0.9083999991416931,-0.2158999890089035,9.76200008392334
1682999378585058000,19.35705810546875,0.9030999541282654,-0.24279999732971191,9.761899948120117
1682999378605058000,19.37705810546875,0.8951999545097351,-0.26739999651908875,9.76200008392334
1682999378625058000,19.39705810546875,0.8776999711990356,-0.28759998083114624,9.762999534606934
1682999378645058000,19.41705810546875,0.8606999516487122,-0.2979999780654907,9.764200210571289
1682999378665056500,19.437056396484376,0.8459999561309814,-0.2953000068664551,9.765600204467773
1682999378685058000,19.45705810546875,0.8452999591827393,-0.28039997816085815,9.76609992980957
1682999378705058000,19.47705810546875,0.8658999800682068,-0.2590999901294708,9.764900207519531
1682999378725058000,19.49705810546875,0.8937000036239624,-0.23629999160766602,9.762899398803711
1682999378745056500,19.517056396484374,0.9068999886512756,-0.2223999947309494,9.76200008392334
1682999378765058000,19.53705810546875,0.9134999513626099,-0.22269999980926514,9.76140022277832
1682999378785058000,19.55705810546875,0.9187999963760376,-0.23119999468326569,9.760700225830078
1682999378805058000,19.57705810546875,0.9332000017166138,-0.2240999937057495,9.759499549865723
1682999378825056500,19.597056396484376,0.9549999833106995,-0.20340000092983246,9.757899284362793
1682999378845058000,19.61705810546875,0.9879999756813049,-0.19629999995231628,9.75469970703125
1682999378865058000,19.63705810546875,1.0262999534606934,-0.20499999821186066,9.75059986114502
1682999378885058000,19.65705810546875,1.067099928855896,-0.2012999951839447,9.746299743652344
1682999378905058000,19.67705810546875,1.1009999513626099,-0.17029999196529388,9.7431001663208
1682999378925058000,19.69705810546875,1.1150000095367432,-0.13660000264644623,9.741999626159668
1682999378945058000,19.71705810546875,1.1172000169754028,-0.11919999867677689,9.741999626159668
1682999378965058000,19.73705810546875,1.0978999137878418,-0.12150000035762787,9.744199752807617
1682999378985058000,19.75705810546875,1.052899956703186,-0.13580000400543213,9.74899959564209
1682999379005058000,19.77705810546875,1.0119999647140503,-0.1467999964952469,9.75309944152832
1682999379025058000,19.79705810546875,0.9871999621391296,-0.1525000035762787,9.755599975585938
1682999379045058000,19.81705810546875,0.9793999791145325,-0.15449999272823334,9.75629997253418
1682999379065058000,19.83705810546875,0.9882999658584595,-0.15429998934268951,9.755399703979492
1682999379085058000,19.85705810546875,1.004599928855896,-0.16290000081062317,9.753600120544434
1682999379105058000,19.87705810546875,1.0156999826431274,-0.18850000202655792,9.751999855041504
1682999379125058000,19.89705810546875,1.0153999328613281,-0.23399999737739563,9.751099586486816
1682999379145058000,19.91705810546875,1.0081000328063965,-0.2947999835014343,9.750199317932129
1682999379165058000,19.93705810546875,0.9975000023841858,-0.35519999265670776,9.749300003051758
1682999379185058000,19.95705810546875,0.9940999746322632,-0.4156999886035919,9.747200012207031
1682999379205058000,19.97705810546875,0.9979999661445618,-0.4764999747276306,9.743999481201172
1682999379225056500,19.997056396484375,1.0003999471664429,-0.5317999720573425,9.740900039672852
1682999379245056500,20.017056396484374,1.0018999576568604,-0.574400007724762,9.738399505615234
1682999379265056500,20.037056396484374,1.0056999921798706,-0.6042999625205994,9.736199378967285
1682999379285058000,20.05705810546875,1.010599970817566,-0.6222000122070312,9.73449993133545
1682999379305058000,20.07705810546875,1.023800015449524,-0.626800000667572,9.732799530029297
1682999379325056500,20.097056396484376,1.0412999391555786,-0.6204000115394592,9.731399536132812
1682999379345058000,20.11705810546875,1.0496000051498413,-0.609499990940094,9.731200218200684
1682999379365058000,20.13705810546875,1.048699975013733,-0.5965999960899353,9.732099533081055
1682999379385058000,20.15705810546875,1.0430999994277954,-0.5884999632835388,9.733200073242188
1682999379405058000,20.17705810546875,1.0343999862670898,-0.5909000039100647,9.734000205993652
1682999379425058000,20.19705810546875,1.024899959564209,-0.6085999608039856,9.73390007019043
1682999379445058000,20.21705810546875,1.0013999938964844,-0.6344000101089478,9.734700202941895
1682999379465058000,20.23705810546875,0.9556999802589417,-0.6705999970436096,9.736800193786621
1682999379485058000,20.25705810546875,0.9093999862670898,-0.7137999534606934,9.738200187683105
1682999379505058000,20.27705810546875,0.8955999612808228,-0.7357999682426453,9.737899780273438
1682999379525058000,20.29705810546875,0.9230999946594238,-0.7062999606132507,9.737500190734863
1682999379545058000,20.31705810546875,0.9878000020980835,-0.6523000001907349,9.734899520874023
1682999379565058000,20.33705810546875,1.062999963760376,-0.5870999693870544,9.731100082397461
1682999379585058000,20.35705810546875,1.090399980545044,-0.5180000066757202,9.731999397277832
1682999379605058000,20.37705810546875,1.0658999681472778,-0.45969998836517334,9.73759937286377
1682999379625058000,20.39705810546875,1.0289000272750854,-0.41439998149871826,9.74370002746582
1682999379645058000,20.41705810546875,0.9970999956130981,-0.37359997630119324,9.748600006103516
1682999379665058000,20.43705810546875,0.9786999821662903,-0.33169999718666077,9.751999855041504
1682999379685058000,20.45705810546875,0.9779999852180481,-0.2858999967575073,9.753499984741211
1682999379705058000,20.47705810546875,0.9872999787330627,-0.22709999978542328,9.75409984588623
1682999379725056500,20.497056396484375,1.0038999319076538,-0.17270000278949738,9.753600120544434
1682999379745056500,20.517056396484374,1.025499939918518,-0.13089999556541443,9.751999855041504
1682999379765056500,20.537056396484374,1.0425000190734863,-0.10599999874830246,9.750399589538574
1682999379785058000,20.55705810546875,1.042799949645996,-0.1006999984383583,9.750499725341797
1682999379805058000,20.57705810546875,1.0326999425888062,-0.10830000042915344,9.751500129699707
1682999379825056500,20.597056396484376,1.0255999565124512,-0.12029999494552612,9.752099990844727
1682999379845058000,20.61705810546875,1.0253000259399414,-0.13319998979568481,9.751899719238281
1682999379865058000,20.63705810546875,1.0405999422073364,-0.14379999041557312,9.750199317932129
1682999379885058000,20.65705810546875,1.05649995803833,-0.14839999377727509,9.74839973449707
1682999379905058000,20.67705810546875,1.0606999397277832,-0.14959999918937683,9.747900009155273
1682999379925058000,20.69705810546875,1.0615999698638916,-0.15609999001026154,9.747699737548828
1682999379945058000,20.71705810546875,1.061900019645691,-0.17809998989105225,9.747300148010254
1682999379965056500,20.737056396484373,1.0662999153137207,-0.20739999413490295,9.746199607849121
1682999379985058000,20.75705810546875,1.0698000192642212,-0.2361999899148941,9.745200157165527
1682999380005058000,20.77705810546875,1.0738999843597412,-0.26600000262260437,9.743999481201172
1682999380025058000,20.79705810546875,1.0822999477386475,-0.3012000024318695,9.741999626159668
1682999380045058000,20.81705810546875,1.094599962234497,-0.3434999883174896,9.739299774169922
1682999380065058000,20.83705810546875,1.1050000190734863,-0.384799987077713,9.736499786376953
1682999380085058000,20.85705810546875,1.115899920463562,-0.42239999771118164,9.733699798583984
1682999380105058000,20.87705810546875,1.1268999576568604,-0.44849997758865356,9.73129940032959
1682999380125058000,20.89705810546875,1.145900011062622,-0.4617999792098999,9.728499412536621
1682999380145058000,20.91705810546875,1.1669999361038208,-0.4799000024795532,9.725099563598633
1682999380165058000,20.93705810546875,1.184899926185608,-0.5127999782562256,9.721199989318848
1682999380185058000,20.95705810546875,1.1974999904632568,-0.5446000099182129,9.717999458312988
1682999380205058000,20.97705810546875,1.2030999660491943,-0.5593000054359436,9.716400146484375
1682999380225056500,20.997056396484375,1.209999918937683,-0.5537999868392944,9.715899467468262
1682999380245056500,21.017056396484374,1.2508000135421753,-0.5342000126838684,9.711799621582031
1682999380265058000,21.03705810546875,1.3295999765396118,-0.5077999830245972,9.702799797058105
1682999380285058000,21.05705810546875,1.433899998664856,-0.4805999994277954,9.689299583435059
1682999380305058000,21.07705810546875,1.5372999906539917,-0.4537999927997589,9.674699783325195
1682999380325056500,21.097056396484376,1.5963999032974243,-0.432699978351593,9.666099548339844
1682999380345058000,21.11705810546875,1.5460000038146973,-0.42329999804496765,9.674699783325195
1682999380365058000,21.13705810546875,1.4139000177383423,-0.43129998445510864,9.694499969482422
1682999380385058000,21.15705810546875,1.272499918937683,-0.4518999755382538,9.713199615478516
1682999380405059600,21.1770595703125,1.1984000205993652,-0.4649999737739563,9.722000122070312
1682999380425058000,21.19705810546875,1.2078999280929565,-0.45509999990463257,9.72130012512207
1682999380445058000,21.21705810546875,1.2484999895095825,-0.4315999746322632,9.717199325561523
1682999380465056500,21.237056396484373,1.2811999320983887,-0.4087999761104584,9.713899612426758
1682999380485056500,21.257056396484376,1.3033000230789185,-0.3976999819278717,9.71150016784668
1682999380505056500,21.277056396484376,1.3156999349594116,-0.4052000045776367,9.70949935913086
1682999380525056500,21.297056396484376,1.309000015258789,-0.4323999881744385,9.709199905395508
1682999380545056500,21.317056396484375,1.2879999876022339,-0.46869999170303345,9.710299491882324
1682999380565056500,21.337056396484375,1.2587000131607056,-0.5002999901771545,9.712599754333496
1682999380585056500,21.357056396484374,1.2244999408721924,-0.5199999809265137,9.715899467468262
1682999380605056500,21.377056396484374,1.1790999174118042,-0.5281999707221985,9.721099853515625
1682999380625056500,21.397056396484373,1.1215999126434326,-0.5282999873161316,9.727899551391602
1682999380645056500,21.417056396484377,1.0729999542236328,-0.5200999975204468,9.733799934387207
1682999380665056500,21.437056396484376,1.051200032234192,-0.5083000063896179,9.736800193786621
1682999380685056500,21.457056396484376,1.0460000038146973,-0.500499963760376,9.737799644470215
1682999380705056500,21.477056396484375,1.0400999784469604,-0.49939998984336853,9.738499641418457
1682999380725056500,21.497056396484375,1.0389999151229858,-0.5008999705314636,9.738499641418457
1682999380745056500,21.517056396484374,1.0476999282836914,-0.5036999583244324,9.73740005493164
1682999380765056500,21.537056396484374,1.06059992313385,-0.5065000057220459,9.735899925231934
1682999380785056500,21.557056396484374,1.0734000205993652,-0.5078999996185303,9.734399795532227
1682999380805056500,21.577056396484377,1.086300015449524,-0.5098000168800354,9.73289966583252
1682999380825056500,21.597056396484376,1.087499976158142,-0.5170999765396118,9.732399940490723
1682999380845056500,21.617056396484376,1.0780999660491943,-0.5289999842643738,9.732799530029297
1682999380865056500,21.637056396484375,1.0647000074386597,-0.5374000072479248,9.733799934387207
1682999380885056500,21.657056396484375,1.0503000020980835,-0.5260999798774719,9.736000061035156
1682999380905056500,21.677056396484375,1.0324000120162964,-0.5087999701499939,9.738800048828125
1682999380925056500,21.697056396484374,1.0187000036239624,-0.507099986076355,9.740300178527832
1682999380945056500,21.717056396484374,1.004699945449829,-0.527999997138977,9.740699768066406
1682999380965056500,21.737056396484373,0.9955999851226807,-0.5655999779701233,9.739500045776367
1682999380985056500,21.757056396484376,0.9860999584197998,-0.5935999751091003,9.738800048828125
1682999381005056500,21.777056396484376,0.9776999950408936,-0.600600004196167,9.7391996383667
1682999381025056500,21.797056396484376,0.9784999489784241,-0.5866999626159668,9.739999771118164
1682999381045056500,21.817056396484375,0.9747999906539917,-0.5619999766349792,9.741799354553223
1682999381065056500,21.837056396484375,0.9512999653816223,-0.5361999869346619,9.745599746704102
1682999381085056500,21.857056396484374,0.9131999611854553,-0.5103999972343445,9.75059986114502
1682999381105056500,21.877056396484374,0.868399977684021,-0.47919997572898865,9.75629997253418
1682999381125056500,21.897056396484373,0.8348999619483948,-0.4380999803543091,9.761199951171875
1682999381145056500,21.917056396484377,0.8240999579429626,-0.3849000036716461,9.764299392700195
1682999381165056500,21.937056396484376,0.8393999934196472,-0.33169999718666077,9.764999389648438
1682999381185056500,21.957056396484376,0.8636999726295471,-0.2895999848842621,9.764200210571289
1682999381205056500,21.977056396484375,0.8764999508857727,-0.2602999806404114,9.763899803161621
1682999381225056500,21.997056396484375,0.8758999705314636,-0.2474999874830246,9.764299392700195
1682999381245056500,22.017056396484374,0.8880999684333801,-0.24889999628067017,9.763099670410156
1682999381265056500,22.037056396484374,0.9056999683380127,-0.2655999958515167,9.761099815368652
1682999381285056500,22.057056396484374,0.9339999556541443,-0.29729998111724854,9.757499694824219
1682999381305056500,22.077056396484377,0.9687999486923218,-0.323199987411499,9.753299713134766
1682999381325056500,22.097056396484376,0.9833999872207642,-0.34459999203681946,9.751099586486816
1682999381345056500,22.117056396484376,0.9866999983787537,-0.3587999939918518,9.750199317932129
1682999381365056500,22.137056396484375,0.9857999682426453,-0.3725000023841858,9.749799728393555
1682999381385056500,22.157056396484375,0.9906999468803406,-0.3953000009059906,9.74839973449707
1682999381405056500,22.177056396484375,1.0002999305725098,-0.4205999970436096,9.746399879455566
1682999381425056500,22.197056396484374,1.0145000219345093,-0.4488999843597412,9.743599891662598
1682999381445056500,22.217056396484374,1.0214999914169312,-0.4733999967575073,9.741700172424316
1682999381465056500,22.237056396484373,1.0264999866485596,-0.494299978017807,9.74020004272461
1682999381485056500,22.257056396484376,1.0384999513626099,-0.5090000033378601,9.738200187683105
1682999381505056500,22.277056396484376,1.0622999668121338,-0.5137999653816223,9.735300064086914
1682999381525056500,22.297056396484376,1.0964999198913574,-0.5034999847412109,9.732099533081055
1682999381545056500,22.317056396484375,1.1330000162124634,-0.4788999855518341,9.729100227355957
1682999381565056500,22.337056396484375,1.1539000272750854,-0.45799997448921204,9.727699279785156
1682999381585056500,22.357056396484374,1.143399953842163,-0.4447999894618988,9.729499816894531
1682999381605056500,22.377056396484374,1.1030999422073364,-0.42659997940063477,9.734999656677246
1682999381625056500,22.397056396484373,1.0875999927520752,-0.38580000400543213,9.738499641418457
1682999381645056500,22.417056396484377,1.0989999771118164,-0.3303999900817871,9.7391996383667
1682999381665056500,22.437056396484376,1.1424000263214111,-0.2654999792575836,9.736199378967285
1682999381685056500,22.457056396484376,1.2034000158309937,-0.20019999146461487,9.730400085449219
1682999381705056500,22.477056396484375,1.2750999927520752,-0.1492999941110611,9.722199440002441
1682999381725056500,22.497056396484375,1.3482999801635742,-0.10979999601840973,9.712800025939941
1682999381745056500,22.517056396484374,1.4000999927520752,-0.08469999581575394,9.70580005645752
1682999381765056500,22.537056396484374,1.428399920463562,-0.0731000006198883,9.701700210571289
1682999381785056500,22.557056396484374,1.4401999711990356,-0.06729999929666519,9.699999809265137
1682999381805056500,22.577056396484377,1.4443999528884888,-0.0705999955534935,9.699399948120117
1682999381825056500,22.597056396484376,1.4427999258041382,-0.07530000060796738,9.699600219726562
1682999381845056500,22.617056396484376,1.4356999397277832,-0.07449999451637268,9.700599670410156
1682999381865056500,22.637056396484375,1.413100004196167,-0.06729999929666519,9.703999519348145
1682999381885056500,22.657056396484375,1.3873999118804932,-0.05989999696612358,9.707799911499023
1682999381905056500,22.677056396484375,1.3734999895095825,-0.05689999833703041,9.709799766540527
1682999381925056500,22.697056396484374,1.3673999309539795,-0.06149999797344208,9.710599899291992
1682999381945056500,22.717056396484374,1.3604999780654907,-0.0689999982714653,9.71150016784668
1682999381965056500,22.737056396484373,1.3432999849319458,-0.07899999618530273,9.713799476623535
1682999381985056500,22.757056396484376,1.313599944114685,-0.09070000052452087,9.71780014038086
1682999382005056500,22.777056396484376,1.2822999954223633,-0.10579999536275864,9.721799850463867
1682999382025056500,22.797056396484376,1.2588999271392822,-0.12520000338554382,9.724599838256836
1682999382045056500,22.817056396484375,1.239300012588501,-0.14149999618530273,9.726900100708008
1682999382065056500,22.837056396484375,1.2185999155044556,-0.15649999678134918,9.729299545288086
1682999382085056500,22.857056396484374,1.1948000192642212,-0.17180000245571136,9.731999397277832
1682999382105056500,22.877056396484374,1.1734999418258667,-0.1923999935388565,9.734199523925781
1682999382125056500,22.897056396484373,1.1545000076293945,-0.2157999873161316,9.736000061035156
1682999382145056500,22.917056396484377,1.1441999673843384,-0.24159999191761017,9.736599922180176
1682999382165056500,22.937056396484376,1.1373000144958496,-0.26759999990463257,9.736700057983398
1682999382185056500,22.957056396484376,1.1332999467849731,-0.2913999855518341,9.736499786376953
1682999382205056500,22.977056396484375,1.1340999603271484,-0.310699999332428,9.735799789428711
1682999382225056500,22.997056396484375,1.1424999237060547,-0.3285999894142151,9.734299659729004
1682999382245056500,23.017056396484374,1.152999997138977,-0.3352999985218048,9.732799530029297
1682999382265056500,23.037056396484374,1.1425999402999878,-0.3343999981880188,9.734099388122559
1682999382285056500,23.057056396484374,1.108699917793274,-0.32749998569488525,9.738200187683105
1682999382305056500,23.077056396484377,1.090399980545044,-0.3125,9.740799903869629
1682999382325056500,23.097056396484376,1.0990999937057495,-0.2825999855995178,9.740699768066406
1682999382345056500,23.117056396484376,1.1434999704360962,-0.23829999566078186,9.736800193786621
1682999382365056500,23.137056396484375,1.1934999227523804,-0.1825999915599823,9.731999397277832
1682999382385056500,23.157056396484375,1.202299952507019,-0.13269999623298645,9.73169994354248
1682999382405056500,23.177056396484375,1.1820999383926392,-0.10130000114440918,9.734600067138672
1682999382425056500,23.197056396484374,1.1589000225067139,-0.07909999787807465,9.73759937286377
1682999382445056500,23.217056396484374,1.1311999559402466,-0.0559999980032444,9.741000175476074
1682999382465056500,23.237056396484373,1.1208999156951904,-0.04209999740123749,9.742199897766113
1682999382485056500,23.257056396484376,1.1258000135421753,-0.036399997770786285,9.741700172424316
1682999382505056500,23.277056396484376,1.1294000148773193,-0.03909999877214432,9.741299629211426
1682999382525056500,23.297056396484376,1.1341999769210815,-0.0414000004529953,9.740699768066406
1682999382545056500,23.317056396484375,1.1354999542236328,-0.045899998396635056,9.740499496459961
1682999382565056500,23.337056396484375,1.1288999319076538,-0.05339999869465828,9.741299629211426
1682999382585056500,23.357056396484374,1.1207000017166138,-0.06759999692440033,9.74209976196289
1682999382605056500,23.377056396484374,1.111899971961975,-0.0819999948143959,9.743000030517578
1682999382625056500,23.397056396484373,1.1002999544143677,-0.09299999475479126,9.744199752807617
1682999382645056500,23.417056396484377,1.0828999280929565,-0.10459999740123749,9.746099472045898
1682999382665056500,23.437056396484376,1.069599986076355,-0.11329999566078186,9.74739933013916
1682999382685056500,23.457056396484376,1.056999921798706,-0.12109999358654022,9.748700141906738
1682999382705056500,23.477056396484375,1.0397000312805176,-0.13269999623298645,9.750399589538574
1682999382725056500,23.497056396484375,1.0260000228881836,-0.1412999927997589,9.751799583435059
1682999382745056500,23.517056396484374,1.0188000202178955,-0.15119999647140503,9.752399444580078
1682999382765056500,23.537056396484374,1.0228999853134155,-0.16009999811649323,9.751799583435059
1682999382785056500,23.557056396484374,1.0282000303268433,-0.16609999537467957,9.751099586486816
1682999382805056500,23.577056396484377,1.0543999671936035,-0.17520000040531158,9.748199462890625
1682999382825056500,23.597056396484376,1.1093000173568726,-0.20179998874664307,9.741600036621094
1682999382845056500,23.617056396484376,1.150499939918518,-0.23839999735355377,9.735899925231934
1682999382865056500,23.637056396484375,1.1531000137329102,-0.2793000042438507,9.734600067138672
1682999382885056500,23.657056396484375,1.1402000188827515,-0.3043999969959259,9.735300064086914
1682999382905056500,23.677056396484375,1.1305999755859375,-0.3116999864578247,9.736199378967285
1682999382925056500,23.697056396484374,1.1317999362945557,-0.3278999924659729,9.735499382019043
1682999382945056500,23.717056396484374,1.1416000127792358,-0.35760000348091125,9.733399391174316
1682999382965056500,23.737056396484373,1.1404999494552612,-0.3902999758720398,9.732199668884277
1682999382985056500,23.757056396484376,1.1371999979019165,-0.41009998321533203,9.731800079345703
1682999383005056500,23.777056396484376,1.1377999782562256,-0.4108999967575073,9.73169994354248
1682999383025056500,23.797056396484376,1.157599925994873,-0.40549999475479126,9.729599952697754
1682999383045056500,23.817056396484375,1.1948000192642212,-0.40070000290870667,9.725299835205078
1682999383065056500,23.837056396484375,1.2353999614715576,-0.40289998054504395,9.720099449157715
1682999383085056500,23.857056396484374,1.2767000198364258,-0.41509997844696045,9.714300155639648
1682999383105056500,23.877056396484374,1.3018999099731445,-0.43199998140335083,9.710199356079102
1682999383125056500,23.897056396484373,1.3040999174118042,-0.4488999843597412,9.709099769592285
1682999383145056500,23.917056396484377,1.2884999513626099,-0.4519999921321869,9.711099624633789
1682999383165056500,23.937056396484376,1.267799973487854,-0.43129998445510864,9.714699745178223
1682999383185056500,23.957056396484376,1.2598999738693237,-0.3991999924182892,9.717100143432617
1682999383205056500,23.977056396484375,1.260200023651123,-0.3739999830722809,9.718099594116211
1682999383225056500,23.997056396484375,1.263800024986267,-0.36149999499320984,9.718099594116211
1682999383245056500,24.017056396484374,1.2568999528884888,-0.35259997844696045,9.71929931640625
1682999383265056500,24.037056396484374,1.2488999366760254,-0.34599998593330383,9.720600128173828
1682999383285056500,24.057056396484374,1.2390999794006348,-0.34779998660087585,9.721799850463867
1682999383305056500,24.077056396484377,1.2353999614715576,-0.35920000076293945,9.721799850463867
1682999383325056500,24.097056396484376,1.2344999313354492,-0.382099986076355,9.721099853515625
1682999383345056500,24.117056396484376,1.2282999753952026,-0.4068000018596649,9.72089958190918
1682999383365056500,24.137056396484375,1.2333999872207642,-0.4309999942779541,9.719200134277344
1682999383385056500,24.157056396484375,1.243299961090088,-0.45399999618530273,9.716899871826172
1682999383405056500,24.177056396484375,1.2558000087738037,-0.4705999791622162,9.714499473571777
1682999383425056500,24.197056396484374,1.2585999965667725,-0.4803999960422516,9.713600158691406
1682999383445056500,24.217056396484374,1.2530999183654785,-0.4870999753475189,9.71399974822998
1682999383465056500,24.237056396484373,1.2411999702453613,-0.49079999327659607,9.715299606323242
1682999383485056500,24.257056396484376,1.2280999422073364,-0.48989999294281006,9.717000007629395
1682999383505056500,24.277056396484376,1.214900016784668,-0.4790000021457672,9.719200134277344
1682999383525056500,24.297056396484376,1.2056999206542969,-0.4607999920845032,9.72130012512207
1682999383545056500,24.317056396484375,1.1988999843597412,-0.4429999887943268,9.722899436950684
1682999383565056500,24.337056396484375,1.1912000179290771,-0.4271000027656555,9.724599838256836
1682999383585056500,24.357056396484374,1.1875,-0.4122999906539917,9.725699424743652
1682999383605056500,24.377056396484374,1.1953999996185303,-0.40389999747276306,9.725099563598633
1682999383625056500,24.397056396484373,1.2117999792099,-0.4018999934196472,9.723099708557129
1682999383645056500,24.417056396484377,1.2163000106811523,-0.4059000015258789,9.722399711608887
1682999383665056500,24.437056396484376,1.2062000036239624,-0.406499981880188,9.723599433898926
1682999383685056500,24.457056396484376,1.1959999799728394,-0.4048999845981598,9.72499942779541
1682999383705056500,24.477056396484375,1.1928999423980713,-0.4010999798774719,9.725500106811523
1682999383725056500,24.497056396484375,1.1922999620437622,-0.40869998931884766,9.725299835205078
1682999383745056500,24.517056396484374,1.206399917602539,-0.4235000014305115,9.722899436950684
1682999383765056500,24.537056396484374,1.2232999801635742,-0.41999998688697815,9.72089958190918
1682999383785056500,24.557056396484374,1.2561999559402466,-0.38659998774528503,9.718099594116211
1682999383805056500,24.577056396484377,1.3044999837875366,-0.33799999952316284,9.713600158691406
1682999383825056500,24.597056396484376,1.340499997138977,-0.310699999332428,9.709599494934082
1682999383845056500,24.617056396484376,1.316100001335144,-0.32089999318122864,9.712599754333496
1682999383865056500,24.637056396484375,1.2496999502182007,-0.3400000035762787,9.720699310302734
1682999383885056500,24.657056396484375,1.1806999444961548,-0.3402999937534332,9.729299545288086
1682999383905056500,24.677056396484375,1.153499960899353,-0.3255999982357025,9.733099937438965
1682999383925056500,24.697056396484374,1.1655999422073364,-0.30699998140335083,9.732199668884277
1682999383945056500,24.717056396484374,1.1851999759674072,-0.30869999527931213,9.7298002243042
1682999383965056500,24.737056396484373,1.1944999694824219,-0.32199999690055847,9.72819995880127
1682999383985056500,24.757056396484376,1.1996999979019165,-0.3422999978065491,9.726900100708008
1682999384005056500,24.777056396484376,1.208299994468689,-0.36569997668266296,9.72499942779541
1682999384025056500,24.797056396484376,1.2222999334335327,-0.39489999413490295,9.722099304199219
1682999384045056500,24.817056396484375,1.226699948310852,-0.4271000027656555,9.720199584960938
1682999384065056500,24.837056396484375,1.2182999849319458,-0.4562999904155731,9.719900131225586
1682999384085056500,24.857056396484374,1.2000999450683594,-0.4723999798297882,9.721399307250977
1682999384105056500,24.877056396484374,1.1840999126434326,-0.47689998149871826,9.723199844360352
1682999384125056500,24.897056396484373,1.1684999465942383,-0.4749999940395355,9.725099563598633
1682999384145056500,24.917056396484377,1.1549999713897705,-0.4717999994754791,9.726900100708008
1682999384165056500,24.937056396484376,1.1431000232696533,-0.468099981546402,9.728499412536621
1682999384185056500,24.957056396484376,1.132599949836731,-0.46639999747276306,9.7298002243042
1682999384205056500,24.977056396484375,1.122399926185608,-0.46059998869895935,9.73129940032959
1682999384225056500,24.997056396484375,1.1210999488830566,-0.4521999955177307,9.731800079345703
1682999384245056500,25.017056396484374,1.1216999292373657,-0.4438000023365021,9.732099533081055
1682999384265056500,25.037056396484374,1.1238999366760254,-0.4291999936103821,9.732500076293945
1682999384285056500,25.057056396484374,1.1237000226974487,-0.41029998660087585,9.733399391174316
1682999384305056500,25.077056396484377,1.1172000169754028,-0.3878999948501587,9.734999656677246
1682999384325056500,25.097056396484376,1.1203999519348145,-0.3659999966621399,9.735499382019043
1682999384345056500,25.117056396484376,1.1273000240325928,-0.3467999994754791,9.735400199890137
1682999384365056500,25.137056396484375,1.1385999917984009,-0.33879998326301575,9.734399795532227
1682999384385056500,25.157056396484375,1.1668999195098877,-0.3292999863624573,9.731399536132812
1682999384405056500,25.177056396484375,1.1922999620437622,-0.30379998683929443,9.729100227355957
1682999384425056500,25.197056396484374,1.2168999910354614,-0.2911999821662903,9.726399421691895
1682999384445056500,25.217056396484374,1.246999979019165,-0.2902999818325043,9.722700119018555
1682999384465056500,25.237056396484373,1.281000018119812,-0.2847000062465668,9.718400001525879
1682999384485056500,25.257056396484376,1.3339999914169312,-0.25619998574256897,9.7121000289917
1682999384505059600,25.2770595703125,1.4067000150680542,-0.21459999680519104,9.702799797058105
1682999384525056500,25.297056396484376,1.4735000133514404,-0.1809999942779541,9.693599700927734
1682999384545056500,25.317056396484375,1.500999927520752,-0.17329999804496765,9.689499855041504
1682999384565056500,25.337056396484375,1.4881999492645264,-0.18369999527931213,9.691299438476562
1682999384585056500,25.357056396484374,1.452199935913086,-0.1833999902009964,9.696700096130371
1682999384605056500,25.377056396484374,1.4361000061035156,-0.16409999132156372,9.69950008392334
