time,seconds_elapsed,z,y,x,,,z,y,x,,,t,z,y,x
1.683E+18,0.037056396,0.37349999,-0.333199978,1.492499948,,,2.519399881,-0.343299985,9.471199989,,,1,2.892899871,-0.676499963,10.96369994
1.683E+18,0.05705957,0.37349999,-0.333199978,1.492499948,,,2.519399881,-0.343299985,9.471199989,,,2,2.892899871,-0.676499963,10.96369994
1.683E+18,0.077062744,0.37349999,-0.333199978,1.492499948,,,2.519399881,-0.343299985,9.471199989,,,3,2.892899871,-0.676499963,10.96369994
1.683E+18,0.097056396,0.067400001,-0.0195,0.265799999,,,2.403800011,-0.69629997,9.481900215,,,4,2.471200012,-0.715799971,9.747700214
1.683E+18,0.117058105,0.173500001,-0.038799997,0.266299993,,,2.405499935,-0.69659996,9.481399536,,,5,2.578999937,-0.735399958,9.747699529
1.683E+18,0.137058105,0.225400001,0.035799999,0.064300001,,,2.422299862,-0.692900002,9.477399826,,,6,2.647699863,-0.657100003,9.541699827
1.683E+18,0.157058105,0.186700001,0.213799998,-0.145899996,,,2.451200008,-0.664999962,9.472000122,,,7,2.63790001,-0.451199964,9.326100126
1.683E+18,0.177058105,0.305099994,-0.134299994,0.337199986,,,2.460299969,-0.669699967,9.469299316,,,8,2.765399963,-0.80399996,9.806499302
1.683E+18,0.197056396,0.060399998,-0.0528,0.2491,,,2.459899902,-0.672800004,9.469200134,,,9,2.5202999,-0.725600004,9.718300134
1.683E+18,0.217058105,-0.0054,0.107299998,-0.0053,,,2.457099915,-0.538800001,9.478499413,,,10,2.451699915,-0.431500003,9.473199413
1.683E+18,0.237056396,-0.090700001,0.115999997,-0.058799997,,,2.444299936,-0.518099964,9.482899666,,,11,2.353599936,-0.402099967,9.424099669
1.683E+18,0.257058105,-0.103399999,0.0506,0.081599995,,,2.427599907,-0.472299993,9.489600182,,,12,2.324199907,-0.421699993,9.571200177
1.683E+18,0.277058105,-0.115999997,0.067499995,0.25999999,,,2.400899887,-0.449999988,9.497499466,,,13,2.28489989,-0.382499993,9.757499456
1.683E+18,0.297056396,-0.123399995,0.159899995,0.152799994,,,2.369099855,-0.424599975,9.506599426,,,14,2.24569986,-0.264699981,9.65939942
1.683E+18,0.317058105,-0.240099996,0.1875,-0.109499998,,,2.309299946,-0.363999993,9.523799896,,,15,2.06919995,-0.176499993,9.414299898
1.683E+18,0.337058105,-0.320299983,0.145999998,-0.301799983,,,2.252300024,-0.302899987,9.539599419,,,16,1.932000041,-0.156899989,9.237799436
1.683E+18,0.357058105,-0.281800002,0.21069999,-0.447099984,,,2.223500013,-0.259799987,9.547699928,,,17,1.941700011,-0.049099997,9.100599945
1.683E+18,0.377056396,-0.298399985,0.23709999,-0.085199997,,,2.181299925,-0.217500001,9.558499336,,,18,1.88289994,0.019599989,9.473299339
1.683E+18,0.397058105,-0.194099993,0.443099976,0.252099991,,,2.11619997,-0.168499991,9.573999405,,,19,1.922099978,0.274599984,9.826099396
1.683E+18,0.417058105,-0.203400001,0.395099998,0.332100004,,,2.037199974,-0.100899994,9.592100143,,,20,1.833799973,0.294200003,9.924200147
1.683E+18,0.437056396,-0.0026,0.322899997,0.459399998,,,1.944299936,0.0006,9.611899376,,,21,1.941699936,0.323499997,10.07129937
1.683E+18,0.457058105,0.259299994,0.224799991,0.773899972,,,1.898000002,0.039799999,9.621099472,,,22,2.157299995,0.26459999,10.39499944
1.683E+18,0.477056396,0.408199996,0.073600002,1.097599983,,,1.847199917,0.073399998,9.630799294,,,23,2.255399913,0.147,10.72839928
1.683E+18,0.497056396,0.595499992,0.045899998,0.913699985,,,1.807099938,0.101099998,9.63809967,,,24,2.402599931,0.146999996,10.55179965
1.683E+18,0.517056396,0.745099962,0.181999996,0.529299974,,,1.794699907,0.131699994,9.640099525,,,25,2.539799869,0.313699991,10.1693995
1.683E+18,0.537058105,0.474399984,0.416099995,-0.047399998,,,1.800599933,0.172199994,9.638299942,,,26,2.274999917,0.58829999,9.590899944
1.683E+18,0.557058105,0.472899973,-0.028099999,-0.378099978,,,1.811999917,0.204599991,9.63560009,,,27,2.28489989,0.176499993,9.257500112
1.683E+18,0.577058105,0.062600002,-0.075599998,-0.601199985,,,1.820199966,0.242299989,9.633099556,,,28,1.882799968,0.166699991,9.031899571
1.683E+18,0.597056396,-0.0823,0.0902,-1.010499954,,,1.827899933,0.282399982,9.630599976,,,29,1.745599933,0.372599982,8.620100021
1.683E+18,0.617058105,0.017999999,0.089999996,-0.869399965,,,1.845099926,0.30219999,9.626699448,,,30,1.863099925,0.392199986,8.757299483
1.683E+18,0.637058105,0.120999999,0.346799999,-0.621399999,,,1.859899998,0.300300002,9.62389946,,,31,1.980899997,0.647100002,9.002499461
1.683E+18,0.657058105,0.253899992,0.355199993,-0.324999988,,,1.87409997,0.282099992,9.621699333,,,32,2.127999961,0.637299985,9.296699345
1.683E+18,0.677058105,0.288599998,0.362800002,-0.197399989,,,1.878499985,0.254900008,9.621600151,,,33,2.167099983,0.617700011,9.424200162
1.683E+18,0.69705957,0.343400002,0.421199977,-0.0502,,,1.88259995,0.225999996,9.621500015,,,34,2.225999951,0.647199973,9.571300015
1.683E+18,0.717058105,0.334800005,0.326199979,0.176200002,,,1.891199946,0.193499997,9.620599747,,,35,2.225999951,0.519699976,9.796799749
1.683E+18,0.737056396,0.265399992,0.302599996,0.275900006,,,1.901799917,0.168099999,9.618999481,,,36,2.16719991,0.470699996,9.894899487
1.683E+18,0.757058105,0.122899994,0.332800001,0.1708,,,1.916799903,0.157399997,9.616099358,,,37,2.039699897,0.490199998,9.786899358
1.683E+18,0.777058105,-0.036199998,0.225099996,0.134000003,,,1.928799987,0.157199994,9.613699913,,,38,1.892599989,0.382299989,9.747699916
1.683E+18,0.797056396,-0.185499996,0.183200002,-0.030199999,,,1.940899968,0.159899995,9.611299515,,,39,1.755399972,0.343099996,9.581099516
1.683E+18,0.817058105,-0.181699991,0.324900001,-0.321099997,,,1.956699967,0.165299997,9.607999802,,,40,1.774999976,0.490199998,9.286899805
1.683E+18,0.837058105,-0.16399999,0.301899999,-0.336199999,,,1.978199959,0.168699995,9.603499413,,,41,1.814199969,0.470599994,9.267299414
1.683E+18,0.857056396,-0.210099995,0.335299999,-0.0779,,,1.995000005,0.164700001,9.600099564,,,42,1.78490001,0.5,9.522199564
1.683E+18,0.877058105,-0.221199989,0.474999994,0.25759998,,,2.006000042,0.152500004,9.597999573,,,43,1.784800053,0.627499998,9.855599552
1.683E+18,0.897058105,-0.065399997,0.55399996,0.698799968,,,2.007099867,0.132399991,9.598099709,,,44,1.94169987,0.686399952,10.29689968
1.683E+18,0.917058105,0.082800001,0.589100003,1.090499997,,,2.005899906,0.107099995,9.59869957,,,45,2.088699907,0.696199998,10.68919957
1.683E+18,0.937056396,0.171199992,0.563899994,1.710099936,,,2.015599966,0.0832,9.596899986,,,46,2.186799958,0.647099994,11.30699992
1.683E+18,0.957058105,0.306899995,0.417699993,2.369400024,,,2.02699995,0.062699996,9.594599724,,,47,2.333899945,0.480399989,11.96399975
1.683E+18,0.977058105,0.629000008,0.244199991,2.597199917,,,2.038300037,0.040100001,9.592299461,,,48,2.667300045,0.284299992,12.18949938
1.683E+18,0.997056396,0.907700002,-0.202799991,2.926199913,,,2.063600063,0.0263,9.586999893,,,49,2.971300066,-0.176499991,12.51319981
1.683E+18,1.017056396,1.101199985,-0.734499991,3.644799948,,,2.076099873,0.0186,9.584300041,,,50,3.177299857,-0.715899991,13.22909999
1.683E+18,1.037058105,1.387199998,-1.258899927,3.897300005,,,2.064599991,-0.006,9.586799622,,,51,3.451799989,-1.264899927,13.48409963
1.683E+18,1.057058105,1.582700014,-1.245999932,3.07159996,,,2.055500031,-0.038599998,9.588699341,,,52,3.638200045,-1.28459993,12.6602993
1.683E+18,1.077058105,1.470600009,-1.110399961,2.15079999,,,2.059700012,-0.066299997,9.587599754,,,53,3.530300021,-1.176699959,11.73839974
1.683E+18,1.097056396,1.086499929,-1.059399962,1.408299923,,,2.071099997,-0.0977,9.584899902,,,54,3.157599926,-1.157099962,10.99319983
1.683E+18,1.117058105,0.401799977,-0.86559999,0.537699997,,,2.079200029,-0.134599999,9.582699776,,,55,2.481000006,-1.000199988,10.12039977
1.683E+18,1.137058105,-0.289099991,-0.668599963,-0.235499993,,,2.083699942,-0.16489999,9.581199646,,,56,1.79459995,-0.833499953,9.345699653
1.683E+18,1.157058105,-0.783499956,-0.727799952,-0.771499991,,,2.097599983,-0.184199989,9.577899933,,,57,1.314100027,-0.911999941,8.806399941
1.683E+18,1.177058105,-0.876100004,-0.498699993,-1.040300012,,,2.121500015,-0.207199991,9.572099686,,,58,1.245400012,-0.705899984,8.531799674
1.683E+18,1.197058105,-0.711499989,-0.328299999,-0.752200007,,,2.133499861,-0.250200003,9.568399429,,,59,1.421999872,-0.578500003,8.816199422
1.683E+18,1.217058105,-0.512399971,-0.196699992,-0.309799999,,,2.13049984,-0.313199997,9.567199707,,,60,1.618099868,-0.509899989,9.257399708
1.683E+18,1.237058105,-0.454299986,-0.241299987,-0.182399988,,,2.121399879,-0.366599977,9.567399979,,,61,1.667099893,-0.607899964,9.38499999
1.683E+18,1.257058105,-0.282299995,-0.281599998,-0.486399978,,,2.11619997,-0.394899994,9.567399979,,,62,1.833899975,-0.676499993,9.081
1.683E+18,1.277058105,-0.189599991,-0.344199985,-0.887099981,,,2.121500015,-0.400999993,9.565999985,,,63,1.931900024,-0.745199978,8.678900003
1.683E+18,1.297056396,-0.089699998,-0.345799983,-1.316900015,,,2.129400015,-0.399399996,9.564299583,,,64,2.039700016,-0.745199978,8.247399569
1.683E+18,1.317058105,-0.082099997,-0.413199991,-1.394799948,,,2.131700039,-0.400700003,9.563699722,,,65,2.049600042,-0.813899994,8.168899775
1.683E+18,1.337058105,-0.093599997,-0.405900002,-1.452899933,,,2.133399963,-0.407899976,9.562999725,,,66,2.039799966,-0.813799977,8.110099792
1.683E+18,1.357058105,-0.033199999,-0.284700006,-1.413499951,,,2.131799936,-0.421299994,9.562799454,,,67,2.098599937,-0.706,8.149299502
1.683E+18,1.377058105,-0.0088,-0.202600002,-1.072399974,,,2.117199898,-0.444499999,9.56499958,,,68,2.108399898,-0.647100002,8.492599607
1.683E+18,1.397058105,-0.0038,-0.157600001,-0.851099968,,,2.092599869,-0.469899982,9.569199562,,,69,2.088799869,-0.627499983,8.718099594
1.683E+18,1.417058105,0.227899998,-0.0244,-1.049899936,,,2.076499939,-0.485399991,9.571899414,,,70,2.304399937,-0.509799991,8.521999478
1.683E+18,1.437058105,0.381999999,-0.102199994,-1.011699915,,,2.069499969,-0.495899975,9.572899818,,,71,2.451499969,-0.598099969,8.561199903
1.683E+18,1.457058105,0.428599983,-0.255600005,-0.777199984,,,2.062199831,-0.509199977,9.573800087,,,72,2.490799814,-0.764799982,8.796600103
1.683E+18,1.477058105,0.350299984,-0.217799991,-0.455300003,,,2.052199841,-0.5176,9.575499535,,,73,2.402499825,-0.735399991,9.120199531
1.683E+18,1.497056396,0.444899976,-0.122399993,-0.319499999,,,2.045899868,-0.514999986,9.576999664,,,74,2.490799844,-0.637399979,9.257499665
1.683E+18,1.517056396,0.604099989,0.032299999,-0.544099987,,,2.053499937,-0.502999961,9.576000214,,,75,2.657599926,-0.470699962,9.031900227
1.683E+18,1.537058105,0.642199993,0.0241,-0.562299967,,,2.064399958,-0.484999985,9.57460022,,,76,2.706599951,-0.460899984,9.012300253
1.683E+18,1.557058105,0.214299992,0.206999987,-0.228599995,,,2.070499897,-0.461999983,9.574399948,,,77,2.284799889,-0.254999995,9.345799953
1.683E+18,1.577058105,0.048899997,0.0262,-0.181500003,,,2.069200039,-0.428299993,9.576199532,,,78,2.118100036,-0.402099993,9.394699529
1.683E+18,1.597056396,0.085299999,-0.132200003,0.082499996,,,2.072099924,-0.397199988,9.576899529,,,79,2.157399923,-0.529399991,9.659399524
1.683E+18,1.617058105,0.554799974,-0.356700003,0.729599953,,,2.073299885,-0.388500005,9.576999664,,,80,2.628099859,-0.745200008,10.30659962
1.683E+18,1.637058105,0.709199965,-0.412399977,0.90169996,,,2.095399857,-0.401499987,9.571700096,,,81,2.804599822,-0.813899964,10.47340006
1.683E+18,1.657058105,0.873099983,-0.15699999,1.029099941,,,2.137500048,-0.41169998,9.561999321,,,82,3.01060003,-0.568699971,10.59109926
1.683E+18,1.677058105,0.526199996,-0.272300005,1.931800008,,,2.14109993,-0.404300004,9.561499596,,,83,2.667299926,-0.676600009,11.4932996
1.683E+18,1.697058105,0.857899964,-0.199299991,3.131299973,,,2.113399982,-0.388999999,9.568200111,,,84,2.971299946,-0.58829999,12.69950008
1.683E+18,1.717058105,1.004099965,-1.823499918,4.413300037,,,2.055500031,-0.392699987,9.580699921,,,85,3.059599996,-2.216199905,13.99399996
1.683E+18,1.737058105,1.677699924,-1.660099983,4.041399956,,,2.009500027,-0.408999979,9.589799881,,,86,3.68719995,-2.069099963,13.63119984
1.683E+18,1.757058105,1.614300013,-1.089399934,2.489699841,,,1.994399905,-0.430500001,9.592000008,,,87,3.608699918,-1.519899935,12.08169985
1.683E+18,1.777058105,0.959999979,-0.645999968,0.545700014,,,2.021100044,-0.471899986,9.584499359,,,88,2.981100023,-1.117899954,10.13019937
1.683E+18,1.797056396,0.273200005,-0.811699986,-1.047699928,,,2.080299854,-0.512099981,9.569699287,,,89,2.35349986,-1.323799968,8.521999359
1.683E+18,1.817058105,-0.256199986,-0.683999956,-0.952499986,,,2.109599829,-0.522099972,9.562699318,,,90,1.853399843,-1.206099927,8.610199332
1.683E+18,1.837058105,-0.418499976,-0.666099966,-0.035499997,,,2.085700035,-0.530299962,9.567599297,,,91,1.667200059,-1.196399927,9.532099299
1.683E+18,1.857058105,-0.558099985,-0.621999979,1.059700012,,,2.019299984,-0.554699957,9.580399513,,,92,1.461199999,-1.176699936,10.64009953
1.683E+18,1.877058105,-0.610899985,-0.381300002,1.201499939,,,1.944599986,-0.560099959,9.595499992,,,93,1.333700001,-0.941399962,10.79699993
1.683E+18,1.897058105,-0.317399979,-0.20539999,0.554099977,,,1.906099916,-0.520200014,9.605500221,,,94,1.588699937,-0.725600004,10.1596002
1.683E+18,1.917058105,0.120199993,-0.305099994,0.106599994,,,1.890100002,-0.459699988,9.611700058,,,95,2.010299996,-0.764799982,9.718300052
1.683E+18,1.937058105,0.240499988,-0.379199982,-0.280699998,,,1.877599955,-0.405200005,9.616600037,,,96,2.118099943,-0.784399986,9.335900038
1.683E+18,1.957058105,-0.059499998,-0.538199961,-0.450999975,,,1.863899946,-0.383599997,9.620200157,,,97,1.804399949,-0.921799958,9.169200182
1.683E+18,1.977058105,-0.45629999,-0.378499985,-1.033100009,,,1.848799944,-0.366699994,9.623799324,,,98,1.392499954,-0.745199978,8.590699315
1.683E+18,1.997056396,-0.739499986,-0.522700012,-1.386999965,,,1.847599983,-0.349899977,9.624599457,,,99,1.108099997,-0.872599989,8.237599492
1.683E+18,2.017056396,-0.99119997,-0.466699988,-1.97299993,,,1.863999963,-0.327499986,9.622200012,,,100,0.872799993,-0.794199973,7.649200082
1.683E+18,2.037058105,-1.12559998,-0.212299988,-2.156800032,,,1.880800009,-0.307399988,9.619599342,,,101,0.755200028,-0.519699976,7.462799311
1.683E+18,2.057058105,-1.235700011,0.077399999,-1.871799946,,,1.8829,-0.31279999,9.618999481,,,102,0.647199988,-0.235399991,7.747199535
1.683E+18,2.077058105,-1.413499951,0.302399993,-1.598199964,,,1.8743999,-0.331799984,9.620100021,,,103,0.460899949,-0.029399991,8.021900058
1.683E+18,2.097056396,-1.613600016,0.415600002,-1.482999921,,,1.858799934,-0.346899986,9.622599602,,,104,0.245199919,0.068700016,8.139599681
1.683E+18,2.117058105,-1.480099916,0.389699996,-1.645099998,,,1.833199978,-0.340599984,9.627699852,,,105,0.353100061,0.049100012,7.982599854
1.683E+18,2.137058105,-0.935699999,0.25939998,-1.593199968,,,1.798699975,-0.327999979,9.634599686,,,106,0.862999976,-0.068599999,8.041399717
1.683E+18,2.157058105,-0.103399999,0.264299989,-1.306199908,,,1.760699987,-0.323100001,9.641799927,,,107,1.657299988,-0.058800012,8.335600019
1.683E+18,2.177058105,0.341800004,0.070299998,-0.864499986,,,1.707700014,-0.325299978,9.651299477,,,108,2.049500018,-0.25499998,8.78679949
1.683E+18,2.197058105,0.620999992,0.0142,-0.305000007,,,1.653999925,-0.327999979,9.660499573,,,109,2.274999917,-0.313799979,9.355499566
1.683E+18,2.217058105,0.769899964,0.277700007,0.166500002,,,1.603199959,-0.317000002,9.669499397,,,110,2.373099923,-0.039299995,9.835999399
1.683E+18,2.237058105,0.772699952,0.567299962,0.600499988,,,1.561199903,-0.302599996,9.676799774,,,111,2.333899856,0.264699966,10.27729976
1.683E+18,2.257058105,0.393899977,0.474799991,1.370800018,,,1.537899971,-0.278699994,9.681200027,,,112,1.931799948,0.196099997,11.05200005
1.683E+18,2.277058105,0.279799998,0.556599975,0.992999971,,,1.514699936,-0.223199993,9.686299324,,,113,1.794499934,0.333399981,10.67929929
1.683E+18,2.297056396,0.079499997,0.474299997,0.528299987,,,1.499199986,-0.150600001,9.690099716,,,114,1.578699984,0.323699996,10.2183997
1.683E+18,2.317058105,0.248199999,0.089699998,0.438899994,,,1.49729991,-0.079899997,9.691299438,,,115,1.745499909,0.009800002,10.13019943
1.683E+18,2.337058105,0.613499999,-0.188099995,0.900599957,,,1.504699945,-0.0177,9.690499306,,,116,2.118199944,-0.205799995,10.59109926
1.683E+18,2.357058105,1.161899924,-0.504000008,2.901299953,,,1.505399942,0.023499999,9.690299988,,,117,2.667299867,-0.480500009,12.59159994
1.683E+18,2.377058105,1.404899955,-0.198699996,4.757499695,,,1.458599925,0.051599998,9.697400093,,,118,2.86349988,-0.147099998,14.45489979
1.683E+18,2.397058105,1.593299985,-0.131599993,5.28799963,,,1.397599936,0.063000001,9.706299782,,,119,2.99089992,-0.068599992,14.99429941
1.683E+18,2.417058105,1.643999934,-0.275299996,3.474999905,,,1.405699968,0.0792,9.704999924,,,120,3.049699903,-0.196099997,13.17999983
1.683E+18,2.437058105,1.063899994,-0.560499966,1.323899984,,,1.446499944,0.109399997,9.698699951,,,121,2.510399938,-0.451099969,11.02259994
1.683E+18,2.457056396,0.615399957,-0.90259999,-0.322799981,,,1.512499928,0.147499993,9.688099861,,,122,2.127899885,-0.755099997,9.365299881
1.683E+18,2.477058105,-0.0046,-1.30129993,-0.871399999,,,1.573599935,0.183299989,9.677800179,,,123,1.568999934,-1.117999941,8.80640018
1.683E+18,2.497056396,-0.431899995,-1.48179996,-0.48269999,,,1.608699918,0.206999987,9.671500206,,,124,1.176799923,-1.274799973,9.188800216
1.683E+18,2.517056396,-0.438199997,-1.187699914,0.338799983,,,1.595399976,0.206999987,9.673699379,,,125,1.157199979,-0.980699927,10.01249936
1.683E+18,2.537058105,-0.31189999,-0.849900007,0.744099975,,,1.557399988,0.1928,9.680199623,,,126,1.245499998,-0.657100007,10.4242996
1.683E+18,2.557058105,-0.058799997,-0.74119997,0.659500003,,,1.519999981,0.1822,9.68639946,,,127,1.461199984,-0.558999971,10.34589946
1.683E+18,2.577058105,0.324900001,-0.841799974,0.080399998,,,1.518700004,0.165099993,9.686900139,,,128,1.843600005,-0.676699981,9.767300136
1.683E+18,2.597056396,0.227200001,-0.849199951,-0.308999985,,,1.537899971,0.143099993,9.684199333,,,129,1.765099972,-0.706099957,9.375199348
1.683E+18,2.617058105,0.141800001,-0.831699967,-1.011099935,,,1.564399958,0.125599995,9.680199623,,,130,1.706199959,-0.706099972,8.669099689
1.683E+18,2.637058105,0.048099998,-0.775299966,-1.664299965,,,1.58949995,0.108399995,9.676300049,,,131,1.637599949,-0.666899972,8.012000084
1.683E+18,2.657058105,-0.074499995,-0.656499982,-1.741999984,,,1.594499946,0.097499996,9.675600052,,,132,1.519999951,-0.558999985,7.933600068
1.683E+18,2.677058105,-0.203099996,-0.626199961,-1.947899938,,,1.595699906,0.086799994,9.675499916,,,133,1.39259991,-0.539399967,7.727599978
1.683E+18,2.697058105,-0.264999986,-0.37559998,-2.248299837,,,1.618299961,0.061799999,9.671999931,,,134,1.353299975,-0.313799981,7.423700094
1.683E+18,2.717058105,-0.165699989,-0.510100007,-2.449699879,,,1.646499991,0.0198,9.667399406,,,135,1.480800003,-0.490300007,7.217699528
1.683E+18,2.737056396,-0.100699998,-0.398499995,-2.467000008,,,1.659999967,-0.0133,9.665100098,,,136,1.559299968,-0.411799995,7.19810009
1.683E+18,2.757058105,0.061199997,-0.171499997,-1.781199932,,,1.654899955,-0.053999998,9.665800095,,,137,1.716099951,-0.225499995,7.884600163
1.683E+18,2.777058105,-0.107000001,0.126199991,-1.09739995,,,1.636799932,-0.106599994,9.668399811,,,138,1.529799931,0.019599997,8.570999861
1.683E+18,2.797058105,-0.197799996,0.24849999,-0.586299956,,,1.639400005,-0.160300002,9.667300224,,,139,1.44160001,0.088199988,9.081000268
1.683E+18,2.817058105,-0.188699991,0.406999975,-0.385899991,,,1.659699917,-0.201099992,9.663000107,,,140,1.470999926,0.205899984,9.277100116
1.683E+18,2.837058105,-0.186499998,0.233699992,0.143899992,,,1.657499909,-0.233699992,9.662699699,,,141,1.470999911,0,9.806599692
1.683E+18,2.857058105,-0.138599992,0.148699999,0.454599977,,,1.638999939,-0.236999989,9.665800095,,,142,1.500399947,-0.08829999,10.12040007
1.683E+18,2.877058105,0.155399993,-0.0056,0.727599978,,,1.629299998,-0.239500001,9.667300224,,,143,1.784699991,-0.245100001,10.3949002
1.683E+18,2.897058105,0.231199995,-0.033799998,0.855799973,,,1.631999969,-0.250499994,9.666600227,,,144,1.863199964,-0.284299992,10.5224002
1.683E+18,2.917058105,0.483899981,0.105299994,1.137599945,,,1.614599943,-0.262199998,9.669199944,,,145,2.098499924,-0.156900004,10.80679989
1.683E+18,2.937058105,0.691999972,0.268399984,1.878199935,,,1.583099961,-0.278200001,9.673999786,,,146,2.275099933,-0.009800017,11.55219972
1.683E+18,2.957056396,0.943899989,0.338699996,2.537899971,,,1.537099957,-0.289700001,9.680999756,,,147,2.480999947,0.048999995,12.21889973
1.683E+18,2.977058105,0.945899963,0.361200005,2.943399906,,,1.495800018,-0.292600006,9.687399864,,,148,2.441699982,0.068599999,12.63079977
1.683E+18,2.997056396,0.813600004,0.268900007,3.349900007,,,1.461399913,-0.288599998,9.692799568,,,149,2.274999917,-0.019699991,13.04269958
1.683E+18,3.017056396,0.842299998,-0.3116,4.139699936,,,1.432699919,-0.27669999,9.697400093,,,150,2.274999917,-0.58829999,13.83710003
1.683E+18,3.037058105,0.959399998,-0.568699956,4.996399879,,,1.394099951,-0.254999995,9.70359993,,,151,2.353499949,-0.823699951,14.69999981
1.683E+18,3.057058105,0.951499999,-0.521899998,4.242300034,,,1.333299994,-0.242899999,9.712499619,,,152,2.284799993,-0.764799997,13.95479965
1.683E+18,3.077058105,0.68900001,-0.351699978,1.877099991,,,1.321299911,-0.236599997,9.714300156,,,153,2.010299921,-0.588299975,11.59140015
1.683E+18,3.097056396,0.254500002,-0.512099981,-0.266099989,,,1.353699923,-0.233099997,9.709899902,,,154,1.608199924,-0.745199978,9.443799913
1.683E+18,3.117058105,-0.29459998,-0.718499959,-0.876999974,,,1.402699947,-0.232599989,9.703000069,,,155,1.108099967,-0.951099947,8.826000094
1.683E+18,3.137058105,-0.931499958,-0.611199975,-0.903599977,,,1.421800017,-0.232099995,9.700200081,,,156,0.490300059,-0.84329997,8.796600103
1.683E+18,3.157058105,-1.360599995,-0.683699965,-1.023399949,,,1.409600019,-0.218400002,9.702300072,,,157,0.049000025,-0.902099967,8.678900123
1.683E+18,3.177058105,-1.317899942,-0.751999974,-1.13499999,,,1.386600018,-0.199199989,9.705999374,,,158,0.068700075,-0.951199964,8.570999384
1.683E+18,3.197058105,-0.796199977,-0.593199968,-1.059999943,,,1.36500001,-0.181400001,9.709400177,,,159,0.568800032,-0.774599969,8.649400234
1.683E+18,3.217058105,-0.327699989,-0.255199999,-1.070899963,,,1.35739994,-0.176200002,9.710599899,,,160,1.029699951,-0.431400001,8.639699936
1.683E+18,3.237056396,-0.328299999,-0.087499999,-1.443699956,,,1.357999921,-0.167300001,9.710700035,,,161,1.029699922,-0.254799999,8.267000079
1.683E+18,3.257058105,-0.574099958,-0.220499992,-1.924499989,,,1.35860002,-0.142299995,9.710999489,,,162,0.784500062,-0.362799987,7.7864995
1.683E+18,3.277058105,-0.749899983,-0.252599984,-2.611500025,,,1.357900023,-0.110199995,9.711500168,,,163,0.60800004,-0.36279998,7.100000143
1.683E+18,3.297058105,-0.77489996,-0.405599982,-2.963999987,,,1.363299966,-0.084600002,9.710999489,,,164,0.588400006,-0.490199983,6.746999502
1.683E+18,3.317058105,-0.542299986,-0.434499979,-2.825000048,,,1.375899911,-0.075300001,9.709300041,,,165,0.833599925,-0.50979998,6.884299994
1.683E+18,3.337058105,-0.375499994,-0.25819999,-2.354199886,,,1.375800014,-0.085000001,9.709199905,,,166,1.00030002,-0.343199991,7.355000019
1.683E+18,3.357058105,-0.232499987,0.057799999,-1.739799976,,,1.350399971,-0.106799997,9.712599754,,,167,1.117899984,-0.048999999,7.972799778
1.683E+18,3.377058105,-0.074499995,0.193199992,-0.930999994,,,1.310099959,-0.134299994,9.71780014,,,168,1.235599965,0.058899999,8.786800146
1.683E+18,3.397058105,0.187899992,0.355699986,-0.299400002,,,1.263399959,-0.15959999,9.723599434,,,169,1.45129995,0.196099997,9.424199432
1.683E+18,3.417058105,0.266000003,0.350699991,-0.400899976,,,1.234300017,-0.174199998,9.726999283,,,170,1.50030002,0.176499993,9.326099306
1.683E+18,3.437058105,0.1461,0.292400002,-0.587000012,,,1.236500025,-0.174699992,9.726799965,,,171,1.382600024,0.117700011,9.139799953
1.683E+18,3.457056396,-0.037699997,0.182799995,-0.63379997,,,1.253799915,-0.172999993,9.724599838,,,172,1.216099918,0.009800002,9.090799868
1.683E+18,3.477058105,-0.262800008,0.141000003,-0.533299983,,,1.272899985,-0.170499995,9.722099304,,,173,1.010099977,-0.029499993,9.188799322
1.683E+18,3.497056396,-0.420299977,0.0845,-0.57129997,,,1.283299923,-0.163000003,9.720899582,,,174,0.862999946,-0.078500003,9.149599612
1.683E+18,3.517056396,-0.38259998,0.081099994,-0.257299989,,,1.284799933,-0.15959999,9.720799446,,,175,0.902199954,-0.078499995,9.463499457
1.683E+18,3.537058105,-0.174899995,0.252399981,-0.0123,,,1.282999992,-0.164099991,9.720899582,,,176,1.108099997,0.08829999,9.708599582
1.683E+18,3.557058105,-0.0076,0.419999987,0.291700006,,,1.282400012,-0.174799994,9.720799446,,,177,1.274800012,0.245199993,10.01249945
1.683E+18,3.577058105,-0.066699997,0.461199999,0.380199999,,,1.282699943,-0.1866,9.720600128,,,178,1.215999946,0.274599999,10.10080013
1.683E+18,3.597056396,-0.0093,0.417400002,0.509299994,,,1.29399991,-0.191799998,9.718999863,,,179,1.28469991,0.225600004,10.22829986
1.683E+18,3.617058105,0.190399989,0.465199977,1.148999929,,,1.309899926,-0.200399995,9.716599464,,,180,1.500299916,0.264799982,10.86559939
1.683E+18,3.637056396,0.252099991,0.633899987,1.856299996,,,1.316799998,-0.212200001,9.715499878,,,181,1.568899989,0.421699986,11.57179987
1.683E+18,3.657058105,0.229299992,0.772399962,1.967799902,,,1.339699984,-0.232999995,9.711899757,,,182,1.568999976,0.539399967,11.67969966
1.683E+18,3.677058105,0.16929999,0.773299992,1.625100017,,,1.409500003,-0.253499985,9.701499939,,,183,1.578799993,0.519800007,11.32659996
1.683E+18,3.697058105,0.473199993,0.415299982,2.287799835,,,1.50759995,-0.277999997,9.68599987,,,184,1.980799943,0.137299985,11.97379971
1.683E+18,3.717058105,0.773299992,0.455899984,3.532799959,,,1.560599923,-0.308799982,9.676699638,,,185,2.333899915,0.147100002,13.2094996
1.683E+18,3.737058105,0.901499987,0.282099992,4.307799816,,,1.559899926,-0.3213,9.676400185,,,186,2.461399913,-0.039200008,13.9842
1.683E+18,3.757058105,0.921599984,-0.055799998,4.361400127,,,1.529999971,-0.306999981,9.681599617,,,187,2.451599956,-0.36279998,14.04299974
1.683E+18,3.777058105,1.188300014,-0.32069999,3.374899864,,,1.498600006,-0.277399987,9.687399864,,,188,2.68690002,-0.598099977,13.06229973
1.683E+18,3.797058105,1.009299994,-0.248199999,1.747999907,,,1.510900021,-0.2421,9.686499596,,,189,2.520200014,-0.4903,11.4344995
1.683E+18,3.817058105,0.709599972,-0.207899988,0.188500002,,,1.575299978,-0.213699996,9.67689991,,,190,2.28489995,-0.421599984,9.865399912
1.683E+18,3.837058105,0.015699999,-0.4463,-0.368200004,,,1.651299953,-0.181199998,9.664899826,,,191,1.666999953,-0.627499998,9.296699822
1.683E+18,3.857058105,-0.727299988,-0.60769999,-0.468599975,,,1.698199987,-0.137500003,9.657499313,,,192,0.970899999,-0.745199993,9.188899338
1.683E+18,3.877058105,-0.93659997,-0.544200003,0.0021,,,1.701599956,-0.093199998,9.657400131,,,193,0.764999986,-0.637400001,9.659500131
1.683E+18,3.897058105,-0.597199976,-0.515299976,0.0757,,,1.675899982,-0.053399999,9.662199974,,,194,1.078700006,-0.568699975,9.737899974
1.683E+18,3.917058105,-0.2245,-0.765199959,-0.22829999,,,1.675899982,-0.019299999,9.66230011,,,195,1.451399982,-0.784499958,9.43400012
1.683E+18,3.937058105,0.345699996,-0.818499982,-0.236699998,,,1.684199929,0.0144,9.660900116,,,196,2.029899925,-0.804099983,9.424200118
1.683E+18,3.957058105,0.601599991,-0.883399963,-0.658499956,,,1.683299899,0.040100001,9.660999298,,,197,2.28489989,-0.843299963,9.002499342
1.683E+18,3.977058105,0.45569998,-0.968999982,-1.549199939,,,1.691900015,0.066799998,9.65929985,,,198,2.147599995,-0.902199984,8.110099912
1.683E+18,3.997056396,0.303200006,-0.999300003,-2.291699886,,,1.707099915,0.087299995,9.656499863,,,199,2.010299921,-0.912000008,7.364799976
1.683E+18,4.017056396,0.215999991,-1.045499921,-2.73939991,,,1.725600004,0.0942,9.653100014,,,200,1.941599995,-0.951299921,6.913700104
1.683E+18,4.037058105,0.1131,-0.84859997,-2.79399991,,,1.75,0.083700001,9.648799896,,,201,1.8631,-0.764899969,6.854799986
1.683E+18,4.057058105,-0.334299982,-0.486099988,-2.577299833,,,1.756299973,0.0546,9.647899628,,,202,1.421999991,-0.431499988,7.070599794
1.683E+18,4.077058105,-0.591099977,-0.226300001,-2.462999821,,,1.738399982,0.020399999,9.651299477,,,203,1.147300005,-0.205900002,7.188299656
1.683E+18,4.097056396,-0.639599979,-0.258699983,-2.301599979,,,1.708499908,-0.0059,9.656599998,,,204,1.06889993,-0.264599983,7.355000019
1.683E+18,4.117058105,-0.328599989,-0.339100003,-2.061100006,,,1.681899905,-0.023599999,9.661299706,,,205,1.353299916,-0.362700002,7.600199699
1.683E+18,4.137058105,0.213499993,-0.347599983,-1.337499976,,,1.669199944,-0.044499997,9.663399696,,,206,1.882699937,-0.39209998,8.32589972
1.683E+18,4.157058105,0.59829998,-0.126199991,-0.780499995,,,1.657199979,-0.069799997,9.665299416,,,207,2.255499959,-0.195999987,8.884799421
1.683E+18,4.177058105,0.559399962,-0.0262,-0.389799982,,,1.646999955,-0.091399997,9.666899681,,,208,2.206399918,-0.117599998,9.277099699
1.683E+18,4.197058105,0.374499977,-0.118000001,-0.242899999,,,1.645599961,-0.097599998,9.666999817,,,209,2.020099938,-0.215599999,9.424099818
1.683E+18,4.217058105,0.157600001,-0.288800001,-0.026999999,,,1.646699905,-0.093499996,9.666899681,,,210,1.804299906,-0.382299997,9.639899682
1.683E+18,4.237058105,0.357199997,-0.2271,0.111299999,,,1.652999997,-0.0964,9.665800095,,,211,2.010199994,-0.3235,9.777100094
1.683E+18,4.257058105,0.50729996,-0.038599998,0.249899998,,,1.65989995,-0.108399995,9.664499283,,,212,2.16719991,-0.146999992,9.914399281
1.683E+18,4.277058105,0.149800003,-0.167499989,0.113499999,,,1.664399981,-0.116799995,9.663599968,,,213,1.814199984,-0.284299985,9.777099967
1.683E+18,4.297056396,0.22389999,0.246099994,0.35799998,,,1.658899903,-0.138300002,9.664299965,,,214,1.882799894,0.107799992,10.02229995
1.683E+18,4.317058105,0.065799996,0.327699989,0.935499966,,,1.650200009,-0.160999998,9.665399551,,,215,1.716000006,0.166699991,10.60089952
1.683E+18,4.337058105,-0.1131,0.358199984,1.619399905,,,1.633099914,-0.181699991,9.667900085,,,216,1.519999914,0.176499993,11.28729999
1.683E+18,4.357058105,0.061499998,0.34799999,2.831199884,,,1.605499983,-0.200899988,9.672200203,,,217,1.666999981,0.147100002,12.50340009
1.683E+18,4.377058105,0.319700003,0.039099999,4.179500103,,,1.572899938,-0.215599999,9.677199364,,,218,1.89259994,-0.1765,13.85669947
1.683E+18,4.397058105,0.638000011,-0.314599991,5.704099655,,,1.538999915,-0.224599987,9.682499886,,,219,2.176999927,-0.539199978,15.38659954
1.683E+18,4.417058105,1.004999995,-0.406899989,6.451200008,,,1.485799909,-0.240199998,9.690400124,,,220,2.490799904,-0.647099987,16.14160013
1.683E+18,4.437058105,1.257699966,-0.475499988,5.915099621,,,1.43900001,-0.259900004,9.69699955,,,221,2.696699977,-0.735399991,15.61209917
1.683E+18,4.457058105,1.167999983,-0.346199989,3.58829999,,,1.420799971,-0.261700004,9.69960022,,,222,2.588799953,-0.607899994,13.28790021
1.683E+18,4.477058105,0.685000002,-0.357899994,1.404399991,,,1.442999959,-0.25,9.69659996,,,223,2.127999961,-0.607899994,11.10099995
1.683E+18,4.497056396,-0.1329,-0.457399994,-0.552100003,,,1.476400018,-0.238699988,9.6918993,,,224,1.343500018,-0.696099982,9.139799297
1.683E+18,4.517056396,-0.977499962,-0.723499954,-2.1954,,,1.506999969,-0.217899993,9.687699318,,,225,0.529500008,-0.941399947,7.492299318
1.683E+18,4.537058105,-1.233199954,-0.898799956,-2.53579998,,,1.527400017,-0.199499995,9.68489933,,,226,0.294200063,-1.09829995,7.14909935
1.683E+18,4.557058105,-0.92719996,-0.692999959,-1.839899898,,,1.52549994,-0.199299991,9.685199738,,,227,0.59829998,-0.89229995,7.84529984
1.683E+18,4.577058105,-0.62349999,-0.414299995,-0.794799984,,,1.496299982,-0.213199988,9.689399719,,,228,0.872799993,-0.627499983,8.894599736
1.683E+18,4.597056396,-0.346199989,-0.285299987,-0.173299998,,,1.454399943,-0.224599987,9.69549942,,,229,1.108199954,-0.509899974,9.522199422
1.683E+18,4.617058105,-0.230299994,-0.231899992,-0.29519999,,,1.426800013,-0.219099998,9.699799538,,,230,1.196500018,-0.45099999,9.404599547
1.683E+18,4.637056396,-0.277199984,-0.261399984,-0.639199972,,,1.424499989,-0.199399993,9.700499535,,,231,1.147300005,-0.460799977,9.061299562
1.683E+18,4.657058105,-0.274299979,-0.207299992,-1.166700006,,,1.441299915,-0.175099999,9.69849968,,,232,1.166999936,-0.382399991,8.531799674
1.683E+18,4.677058105,-0.238399997,-0.209099993,-1.644199967,,,1.46420002,-0.153599992,9.69549942,,,233,1.225800022,-0.362699986,8.051299453
1.683E+18,4.697058105,-0.244599998,-0.228499994,-1.975499988,,,1.480199933,-0.134299994,9.693299294,,,234,1.235599935,-0.362799987,7.717799306
1.683E+18,4.717058105,-0.349700004,-0.127700001,-2.219799995,,,1.487200022,-0.117299996,9.692500114,,,235,1.137500018,-0.244999997,7.472700119
1.683E+18,4.737058105,-0.633899987,0.034699999,-2.296900034,,,1.496899962,-0.103399999,9.691100121,,,236,0.862999976,-0.068700001,7.394200087
1.683E+18,4.757058105,-0.790399969,0.166999996,-1.934199929,,,1.496500015,-0.098299995,9.691199303,,,237,0.706100047,0.068700001,7.756999373
1.683E+18,4.777058105,-0.667899966,0.360899985,-1.43629992,,,1.48179996,-0.096099995,9.693499565,,,238,0.813899994,0.26479999,8.257199645
1.683E+18,4.797056396,-0.55250001,0.387999982,-0.783399999,,,1.45480001,-0.093800001,9.697599411,,,239,0.9023,0.294199981,8.914199412
1.683E+18,4.817058105,-0.400599986,0.371299982,-0.259000003,,,1.420400023,-0.086899996,9.702799797,,,240,1.019800037,0.284399986,9.443799794
1.683E+18,4.837058105,-0.149399996,0.163199991,-0.42809999,,,1.404599905,-0.074900001,9.705200195,,,241,1.255199909,0.08829999,9.277100205
1.683E+18,4.857058105,0.236399993,0.0438,-0.644499958,,,1.401199937,-0.053599998,9.705800056,,,242,1.63759993,-0.009799998,9.061300099
1.683E+18,4.877058105,0.586299956,-0.021299999,-0.665099978,,,1.394500017,-0.0374,9.706899643,,,243,1.980799973,-0.058699999,9.041799664
1.683E+18,4.897058105,0.58889997,0.051999997,-0.547800004,,,1.39199996,-0.032400001,9.70720005,,,244,1.98089993,0.019599997,9.159400046
1.683E+18,4.917056396,0.318899989,0.203199998,-0.322899997,,,1.387300014,-0.036499999,9.707900047,,,245,1.706200004,0.166699998,9.38500005
1.683E+18,4.937056396,-0.0206,0.307500005,-0.313600004,,,1.383700013,-0.0427,9.708399773,,,246,1.363100013,0.264800005,9.394799769
1.683E+18,4.957056396,-0.268900007,0.255799979,-0.31309998,,,1.386899948,-0.049799997,9.707900047,,,247,1.117999941,0.205999982,9.394800067
1.683E+18,4.977056396,-0.255400002,0.415199995,-0.145499989,,,1.393000007,-0.062199999,9.706999779,,,248,1.137600005,0.352999996,9.561499789
1.683E+18,4.997056396,-0.0867,0.542599976,0.423099995,,,1.390999913,-0.081699997,9.707099915,,,249,1.304299913,0.460899979,10.13019991
1.683E+18,5.017056396,0.024499999,0.581499994,1.158299923,,,1.387499928,-0.100999996,9.707399368,,,250,1.411999928,0.480499998,10.86569929
1.683E+18,5.037056396,0.237299994,0.601799965,1.737499952,,,1.390499949,-0.121199995,9.706799507,,,251,1.627799943,0.48059997,11.44429946
1.683E+18,5.057056396,0.499799997,0.382099986,2.396499872,,,1.402599931,-0.136899993,9.704799652,,,252,1.902399927,0.245199993,12.10129952
1.683E+18,5.077056396,0.761099994,0.256199986,3.751899958,,,1.415899992,-0.148299992,9.702699661,,,253,2.176999986,0.107899994,13.45459962
1.683E+18,5.097056396,0.789200008,0.297899991,4.448699951,,,1.417199969,-0.170399994,9.702199936,,,254,2.206399977,0.127499998,14.15089989
1.683E+18,5.117056396,0.604900002,0.0207,4.37319994,,,1.43479991,-0.187399998,9.699299812,,,255,2.039699912,-0.166699998,14.07249975
1.683E+18,5.137056396,0.312700003,-0.237499997,3.491699934,,,1.442600012,-0.184100002,9.698200226,,,256,1.755300015,-0.421599999,13.18990016
1.683E+18,5.157056396,0.345400006,-0.713099957,2.336699963,,,1.458899975,-0.169399992,9.696000099,,,257,1.80429998,-0.882499948,12.03270006
1.683E+18,5.177056396,0.324099988,-0.818099976,1.202099919,,,1.480199933,-0.15259999,9.69299984,,,258,1.804299921,-0.970699966,10.89509976
1.683E+18,5.197056396,0.198200002,-0.730199993,-0.135499999,,,1.51789999,-0.1523,9.687199593,,,259,1.716099992,-0.882499993,9.551699594
1.683E+18,5.217056396,-0.131099999,-0.685599983,-1.197199941,,,1.562799931,-0.157700002,9.679999352,,,260,1.431699932,-0.843299985,8.482799411
1.683E+18,5.237056396,-0.121999994,-0.72240001,-1.125100017,,,1.583199978,-0.1699,9.676499367,,,261,1.461199984,-0.89230001,8.55139935
1.683E+18,5.257056396,0.150999993,-0.65990001,-0.468899995,,,1.574899912,-0.193199992,9.677399635,,,262,1.725899905,-0.853100002,9.20849964
1.683E+18,5.277056396,0.307199985,-0.554099977,0.184,,,1.54610002,-0.220499992,9.681399345,,,263,1.853300005,-0.774599969,9.865399346
1.683E+18,5.297056396,0.188099995,-0.570100009,0.533100009,,,1.518099904,-0.243799999,9.685299873,,,264,1.706199899,-0.813900009,10.21839988
1.683E+18,5.317056396,0.033799998,-0.675899982,0.276499987,,,1.505800009,-0.255699992,9.686900139,,,265,1.539600007,-0.931599975,9.963400126
1.683E+18,5.337056396,0.0625,-0.800300002,-0.321399987,,,1.506500006,-0.258699983,9.686699867,,,266,1.569000006,-1.058999985,9.365299881
1.683E+18,5.357056396,0.244499996,-0.754899979,-1.044700027,,,1.520599961,-0.264899999,9.684399605,,,267,1.765099958,-1.019799978,8.639699578
1.683E+18,5.377056396,0.312299997,-0.559499979,-1.511699915,,,1.541000009,-0.283800006,9.680600166,,,268,1.853300005,-0.843299985,8.168900251
1.683E+18,5.397056396,0.1096,-0.30309999,-1.70419991,,,1.557399988,-0.314699978,9.677000046,,,269,1.666999988,-0.617799968,7.972800136
1.683E+18,5.417056396,-0.266599983,-0.110999994,-1.908299923,,,1.561100006,-0.349899977,9.675199509,,,270,1.294500023,-0.460899971,7.766899586
1.683E+18,5.437056396,-0.568099976,-0.0296,-2.240999937,,,1.558599949,-0.382200003,9.674399376,,,271,0.990499973,-0.411800003,7.433399439
1.683E+18,5.457056396,-0.475999981,0.149499997,-2.534499884,,,1.554700017,-0.414299995,9.673699379,,,272,1.078700036,-0.264799997,7.139199495
1.683E+18,5.477056396,-0.331,0.286500007,-2.502899885,,,1.556899905,-0.453199983,9.671599388,,,273,1.225899905,-0.166699976,7.168699503
1.683E+18,5.497056396,-0.405399978,0.433899999,-2.215699911,,,1.562600017,-0.492799997,9.6687994,,,274,1.157200038,-0.058899999,7.453099489
1.683E+18,5.517056396,-0.588699996,0.431499988,-1.782799959,,,1.559499979,-0.529599965,9.667300224,,,275,0.970799983,-0.098099977,7.884500265
1.683E+18,5.537056396,-0.646799982,0.482599974,-1.292299986,,,1.548999906,-0.56099999,9.667200089,,,276,0.902199924,-0.078400016,8.374900103
1.683E+18,5.557056396,-0.480799973,0.441599995,-0.587599993,,,1.530099988,-0.588699996,9.668600082,,,277,1.049300015,-0.147100002,9.08100009
1.683E+18,5.577056396,-0.080200002,0.485399991,-0.147699997,,,1.511999965,-0.612899959,9.66989994,,,278,1.431799963,-0.127499968,9.522199944
1.683E+18,5.597056396,0.333299994,0.354699999,0.20449999,,,1.500499964,-0.629199982,9.670700073,,,279,1.833799958,-0.274499983,9.875200063
1.683E+18,5.617056396,0.591699958,0.217299998,0.624799967,,,1.487200022,-0.638999999,9.672100067,,,280,2.07889998,-0.421700001,10.29690003
1.683E+18,5.637056396,0.706699967,0.132499993,0.867599964,,,1.470299959,-0.642399967,9.674399376,,,281,2.176999927,-0.509899974,10.54199934
1.683E+18,5.657056396,0.612100005,-0.0177,0.826200008,,,1.457000017,-0.639299989,9.676699638,,,282,2.069100022,-0.656999988,10.50289965
1.683E+18,5.677056396,0.618499994,-0.0995,0.854399979,,,1.450599909,-0.635899961,9.677800179,,,283,2.069099903,-0.735399961,10.53220016
1.683E+18,5.697056396,0.680499971,-0.086099997,1.069899917,,,1.44749999,-0.639499962,9.678099632,,,284,2.127999961,-0.725599959,10.74799955
1.683E+18,5.717056396,0.732899964,0.0616,1.472199917,,,1.444000006,-0.649999976,9.677899361,,,285,2.17689997,-0.588399976,11.15009928
1.683E+18,5.737056396,0.692399979,0.268299997,2.217599869,,,1.435599923,-0.670300007,9.677800179,,,286,2.127999902,-0.40200001,11.89540005
1.683E+18,5.757056396,0.625699997,0.031399999,3.541699886,,,1.423799992,-0.698199987,9.677499771,,,287,2.049499989,-0.666799989,13.21919966
1.683E+18,5.777056396,0.795799971,-0.201099992,5.411699772,,,1.390999913,-0.720600009,9.680600166,,,288,2.186799884,-0.921700001,15.09229994
1.683E+18,5.797056396,1.08130002,-0.183799997,6.032899857,,,1.33099997,-0.747699976,9.686999321,,,289,2.412299991,-0.931499973,15.71989918
1.683E+18,5.817061035,1.164099932,0.045399997,4.961299896,,,1.297299981,-0.771099985,9.689799309,,,290,2.461399913,-0.725699987,14.65109921
1.683E+18,5.837058105,0.99879998,0.176699996,3.38380003,,,1.305699944,-0.77489996,9.688300133,,,291,2.304499924,-0.598199964,13.07210016
1.683E+18,5.857058105,0.516900003,0.183200002,1.513899922,,,1.336399913,-0.761799991,9.685199738,,,292,1.853299916,-0.578599989,11.19909966
1.683E+18,5.877058105,-0.203799993,0.0341,-0.395899981,,,1.370800018,-0.730300009,9.682799339,,,293,1.167000026,-0.696200009,9.286899358
1.683E+18,5.897058105,-0.754700005,-0.413499981,-2.099699974,,,1.41170001,-0.684799969,9.680299759,,,294,0.657000005,-1.09829995,7.580599785
1.683E+18,5.917058105,-0.521799982,-0.664900005,-2.41050005,,,1.453499913,-0.639299989,9.677199364,,,295,0.931699932,-1.304199994,7.266699314
1.683E+18,5.937058105,0.080799997,-0.512799978,-1.273000002,,,1.458699942,-0.62470001,9.6772995,,,296,1.539499938,-1.137499988,8.404299498
1.683E+18,5.957058105,0.209899992,-0.206699997,-0.100099996,,,1.427699924,-0.636500001,9.681200027,,,297,1.637599915,-0.843199998,9.581100032
1.683E+18,5.977058105,-0.148999989,-0.075599998,0.382699996,,,1.374799967,-0.640199959,9.688599586,,,298,1.225799978,-0.715799958,10.07129958
1.683E+18,5.997056396,-0.391900003,-0.0603,0.0027,,,1.333299994,-0.61619997,9.696000099,,,299,0.941399992,-0.67649997,9.698700099
1.683E+18,6.017056396,-0.523299992,-0.219999999,-0.609899998,,,1.317699909,-0.574199975,9.700699806,,,300,0.794399917,-0.794199973,9.090799809
1.683E+18,6.037058105,-0.46329999,-0.199000001,-1.306399941,,,1.336099982,-0.526600003,9.700900078,,,301,0.872799993,-0.725600004,8.394500136
1.683E+18,6.057058105,-0.621599972,-0.171499997,-1.706299901,,,1.366899967,-0.485499978,9.698699951,,,302,0.745299995,-0.656999975,7.99240005
1.683E+18,6.077058105,-0.910600007,-0.252200007,-2.07889986,,,1.381299973,-0.443999976,9.698699951,,,303,0.470699966,-0.696199983,7.619800091
1.683E+18,6.097058105,-1.007399917,-0.365500003,-2.35559988,,,1.380100012,-0.399399996,9.700799942,,,304,0.372700095,-0.764899999,7.345200062
1.683E+18,6.117058105,-0.821999967,-0.310299993,-2.552899837,,,1.380999923,-0.3662,9.701999664,,,305,0.558999956,-0.676499993,7.149099827
1.683E+18,6.137058105,-0.617399991,-0.109799996,-2.543499947,,,1.382300019,-0.350999981,9.702300072,,,306,0.764900029,-0.460799977,7.158800125
1.683E+18,6.157058105,-0.544200003,0.1338,-2.279399872,,,1.377799988,-0.349599987,9.703000069,,,307,0.833599985,-0.215799987,7.423600197
1.683E+18,6.177058105,-0.566100001,0.236599997,-1.761899948,,,1.360399961,-0.354299992,9.705299377,,,308,0.79429996,-0.117699996,7.943399429
1.683E+18,6.19705957,-0.51910001,0.287299991,-1.226300001,,,1.332999945,-0.355999976,9.708999634,,,309,0.813899934,-0.068699986,8.482699633
1.683E+18,6.217058105,-0.330599993,0.147,-0.710900009,,,1.301499963,-0.352899998,9.713399887,,,310,0.970899969,-0.205899999,9.002499878
1.683E+18,6.237058105,0.068999998,0.192299992,-0.361599982,,,1.274399996,-0.34919998,9.717199326,,,311,1.343399994,-0.156899989,9.355599344
1.683E+18,6.257058105,0.370099992,0.278999984,-0.305000007,,,1.257699966,-0.347599983,9.719399452,,,312,1.627799958,-0.068599999,9.414399445
1.683E+18,6.277058105,0.40169999,0.262800008,-0.462399989,,,1.255499959,-0.341299981,9.719900131,,,313,1.657199949,-0.078499973,9.257500142
1.683E+18,6.297058105,0.20539999,0.094999999,-0.598800004,,,1.265499949,-0.33039999,9.718999863,,,314,1.47089994,-0.235399991,9.120199859
1.683E+18,6.317058105,0,0.0964,-0.675000012,,,1.284600019,-0.321999997,9.716799736,,,315,1.284600019,-0.225599997,9.041799724
1.683E+18,6.337058105,-0.183899999,0.1875,-0.613799989,,,1.30189991,-0.324799985,9.714399338,,,316,1.117999911,-0.137299985,9.100599349
1.683E+18,6.357058105,-0.390599996,0.22739999,-0.20009999,,,1.312399983,-0.335199982,9.712599754,,,317,0.921799988,-0.107799992,9.512499765
1.683E+18,6.377058105,-0.521200001,0.253699988,0.642799973,,,1.305699944,-0.351799995,9.712900162,,,318,0.784499943,-0.098100007,10.35570014
1.683E+18,6.397058105,-0.368200004,0.266000003,1.35739994,,,1.289999962,-0.373899996,9.71420002,,,319,0.921799958,-0.107899994,11.07159996
1.683E+18,6.417058105,0.126299992,0.230399996,1.700999975,,,1.285699964,-0.397100002,9.713799477,,,320,1.411999956,-0.166700006,11.41479945
1.683E+18,6.437058105,0.787199974,-0.187699988,2.272899866,,,1.301499963,-0.42019999,9.710700035,,,321,2.088699937,-0.607899979,11.9835999
1.683E+18,6.457061035,1.058899999,-0.114399999,3.619199991,,,1.314199924,-0.444499999,9.708000183,,,322,2.373099923,-0.558899999,13.32720017
1.683E+18,6.477058105,0.997799993,0.087099999,4.298299789,,,1.316499949,-0.489099979,9.705499649,,,323,2.314299941,-0.40199998,14.00379944
1.683E+18,6.497058105,0.749300003,0.107699998,4.645400047,,,1.329599977,-0.529399991,9.701600075,,,324,2.07889998,-0.421699993,14.34700012
1.683E+18,6.517058105,0.715299964,0.139499992,4.488999844,,,1.324399948,-0.551400006,9.701099396,,,325,2.039699912,-0.411900014,14.19009924
1.683E+18,6.537058105,0.828099966,0.0229,3.218199968,,,1.348799944,-0.562299967,9.697099686,,,326,2.17689991,-0.539399967,12.91529965
1.683E+18,6.557058105,0.871299982,-0.009,1.342399955,,,1.403800011,-0.549799979,9.68999958,,,327,2.275099993,-0.558799978,11.03239954
1.683E+18,6.577058105,0.746899962,-0.173599988,-0.312900007,,,1.488899946,-0.532400012,9.678299904,,,328,2.235799909,-0.706,9.365399897
1.683E+18,6.597056396,0.186099991,-0.39139998,-1.368699908,,,1.578999996,-0.510699987,9.66519928,,,329,1.765099987,-0.902099967,8.296499372
1.683E+18,6.617058105,-0.398999989,-0.593800008,-1.211499929,,,1.644400001,-0.494599998,9.655099869,,,330,1.245400012,-1.088400006,8.443599939
1.683E+18,6.637058105,-0.657099962,-0.493900001,-0.405099988,,,1.657400012,-0.496499985,9.652799606,,,331,1.00030005,-0.990399987,9.247699618
1.683E+18,6.657058105,-0.66049999,-0.338400006,0.35619998,,,1.631299973,-0.514699996,9.656199455,,,332,0.970799983,-0.853100002,10.01239944
1.683E+18,6.677058105,-0.796700001,-0.3926,0.711499989,,,1.581200004,-0.529100001,9.663799286,,,333,0.784500003,-0.921700001,10.37529927
1.683E+18,6.697058105,-0.414999992,-0.493000001,0.635499954,,,1.532899976,-0.536599994,9.671199799,,,334,1.117899984,-1.029599994,10.30669975
1.683E+18,6.717058105,0.214399993,-0.664699972,0.044,,,1.511500001,-0.541499972,9.674300194,,,335,1.725899994,-1.206199944,9.718300194
1.683E+18,6.737056396,0.581799984,-0.702600002,-0.819499969,,,1.506899953,-0.542699993,9.674900055,,,336,2.088699937,-1.245299995,8.855400085
1.683E+18,6.757061035,0.449199975,-0.786599994,-1.427999973,,,1.502200007,-0.546999991,9.67539978,,,337,1.951399982,-1.333599985,8.247399807
1.683E+18,6.777058105,0.263999999,-0.638999999,-2.076400042,,,1.491299987,-0.557299972,9.676499367,,,338,1.755299985,-1.19629997,7.600099325
1.683E+18,6.797058105,-0.0055,-0.459199995,-2.42050004,,,1.476499915,-0.580199957,9.677399635,,,339,1.470999915,-1.039399952,7.256899595
1.683E+18,6.817058105,-0.115099996,-0.184900001,-2.548300028,,,1.458599925,-0.619199991,9.677700043,,,340,1.343499929,-0.804099992,7.129400015
1.683E+18,6.837058105,-0.130799994,0.059899997,-2.458799839,,,1.444899917,-0.667899966,9.676499367,,,341,1.314099923,-0.607999969,7.217699528
1.683E+18,6.857058105,-0.080299996,0.318699986,-2.338999987,,,1.433699965,-0.720799983,9.674399376,,,342,1.35339997,-0.402099997,7.335399389
1.683E+18,6.877058105,0.092299998,0.508700013,-1.964699984,,,1.41779995,-0.773499966,9.672699928,,,343,1.510099947,-0.264799953,7.707999945
1.683E+18,6.897058105,0.182899997,0.597199976,-1.453799963,,,1.395900011,-0.822699964,9.67179966,,,344,1.578800008,-0.225499988,8.217999697
1.683E+18,6.917058105,0.273099989,0.644400001,-0.992799997,,,1.374300003,-0.860099971,9.671599388,,,345,1.647399992,-0.215699971,8.678799391
1.683E+18,6.937058105,0.468599975,0.583299994,-0.424199998,,,1.35529995,-0.887299955,9.671899796,,,346,1.823899925,-0.30399996,9.247699797
1.683E+18,6.957058105,0.863699973,0.495899975,0.203499988,,,1.342700005,-0.907799959,9.671699524,,,347,2.206399977,-0.411899984,9.875199512
1.683E+18,6.97705957,1.244899988,0.466199994,0.9102,,,1.334100008,-0.927100003,9.671099663,,,348,2.578999996,-0.460900009,10.58129966
1.683E+18,6.99705957,1.307099938,0.313299984,1.31309998,,,1.330799937,-0.940899968,9.670199394,,,349,2.637899876,-0.627599984,10.98329937
1.683E+18,7.01705957,1.182600021,0.176299989,1.265100002,,,1.337700009,-0.941199958,9.669199944,,,350,2.520300031,-0.764899969,10.93429995
1.683E+18,7.03705957,1.09589994,0.13759999,1.297099948,,,1.355599999,-0.941699982,9.666699409,,,351,2.451499939,-0.804099992,10.96379936
1.683E+18,7.057058105,0.824400008,0.281199992,1.350399971,,,1.381999969,-0.947999954,9.66230011,,,352,2.206399977,-0.666799963,11.01270008
1.683E+18,7.077058105,0.440399975,0.360100001,1.776199937,,,1.403100014,-0.958299994,9.658299446,,,353,1.843499988,-0.598199993,11.43449938
1.683E+18,7.097058105,0.17899999,0.273200005,2.523499966,,,1.409500003,-0.969500005,9.656199455,,,354,1.588499993,-0.6963,12.17969942
1.683E+18,7.117058105,0.0845,0.106399998,3.738600016,,,1.396199942,-0.979199946,9.65719986,,,355,1.480699942,-0.872799948,13.39579988
1.683E+18,7.137058105,0.297099978,-0.106799997,5.215499878,,,1.360099912,-0.991400003,9.661099434,,,356,1.657199889,-1.098200001,14.87659931
1.683E+18,7.157058105,0.689099967,0.0081,5.641999722,,,1.311399937,-1.008299947,9.666099548,,,357,2.000499904,-1.000199947,15.30809927
1.683E+18,7.177058105,0.990499973,0.243999988,4.35229969,,,1.264999986,-1.018700004,9.671199799,,,358,2.255499959,-0.774700016,14.02349949
1.683E+18,7.197058105,0.606400013,0.053199999,2.6322999,,,1.246899962,-1.004500031,9.675000191,,,359,1.853299975,-0.951300032,12.30730009
1.683E+18,7.217058105,0.123899996,0.1928,0.472599983,,,1.258700013,-0.967499971,9.677199364,,,360,1.382600009,-0.774699971,10.14979935
1.683E+18,7.237056396,-0.612599969,-0.073100001,-1.088400006,,,1.289199948,-0.907499969,9.678999901,,,361,0.676599979,-0.98059997,8.590599895
1.683E+18,7.25705957,-1.143399954,-0.446099997,-1.759499907,,,1.310199976,-0.828599989,9.683300018,,,362,0.166800022,-1.274699986,7.923800111
1.683E+18,7.27705957,-1.141700029,-0.56400001,-1.970799923,,,1.318199992,-0.75,9.688599586,,,363,0.176499963,-1.31400001,7.717799664
1.683E+18,7.29705957,-0.908399999,-0.608999968,-1.682399988,,,1.310500026,-0.685400009,9.694399834,,,364,0.402100027,-1.294399977,8.011999846
1.683E+18,7.317058105,-0.550499976,-0.628499985,-1.346400023,,,1.286000013,-0.626699984,9.701700211,,,365,0.735500038,-1.255199969,8.355300188
1.683E+18,7.337058105,-0.204099998,-0.683799982,-1.059899926,,,1.253399968,-0.57129997,9.709400177,,,366,1.04929997,-1.255099952,8.649500251
1.683E+18,7.357058105,0.0298,-0.71509999,-1.01730001,,,1.225399971,-0.520500004,9.715799332,,,367,1.255199971,-1.235599995,8.698499322
1.683E+18,7.377058105,0.334399998,-0.567799985,-1.216799974,,,1.214999914,-0.481399983,9.719099998,,,368,1.549399912,-1.049199969,8.502300024
1.683E+18,7.397058105,0.391000003,-0.376699984,-1.717799902,,,1.217199922,-0.456799984,9.719999313,,,369,1.608199924,-0.833499968,8.002199411
1.683E+18,7.417058105,0.292999983,-0.247799993,-2.267799854,,,1.217100024,-0.438600004,9.720899582,,,370,1.510100007,-0.686399996,7.453099728
1.683E+18,7.437058105,-0.063900001,-0.092599995,-2.602499962,,,1.211300015,-0.426999986,9.722099304,,,371,1.147400014,-0.519599982,7.119599342
1.683E+18,7.457056396,-0.189599991,0.135899991,-2.505699873,,,1.199699998,-0.430099994,9.723400116,,,372,1.010100007,-0.294200003,7.217700243
1.683E+18,7.477058105,-0.188500002,0.368799984,-2.193699837,,,1.17900002,-0.447299987,9.725199699,,,373,0.990500018,-0.078500003,7.531499863
1.683E+18,7.497056396,-0.073399998,0.569599986,-2.019199848,,,1.152099967,-0.471499979,9.72729969,,,374,1.078699969,0.098100007,7.708099842
1.683E+18,7.51705957,-0.071699999,0.635699987,-1.784999967,,,1.130800009,-0.498399973,9.72840023,,,375,1.05910001,0.137300014,7.943400264
1.683E+18,7.537058105,0.037699997,0.691899955,-1.36439991,,,1.109599948,-0.525200009,9.729499817,,,376,1.147299945,0.166699946,8.365099907
1.683E+18,7.557058105,0.210099995,0.761199951,-0.865399957,,,1.084299922,-0.555299997,9.730599403,,,377,1.294399917,0.205899954,8.865199447
1.683E+18,7.577058105,0.504000008,0.735599995,-0.533199966,,,1.055199981,-0.588499963,9.731900215,,,378,1.559199989,0.147100031,9.198700249
1.683E+18,7.597056396,0.69629997,0.816199958,-0.386899978,,,1.029600024,-0.620099962,9.732699394,,,379,1.725899994,0.196099997,9.345799416
1.683E+18,7.617058105,0.628699958,0.799099982,-0.269299984,,,1.008899927,-0.65200001,9.732699394,,,380,1.637599885,0.147099972,9.46339941
1.683E+18,7.637058105,0.408600003,0.775399983,-0.55250001,,,1.003499985,-0.677399993,9.731599808,,,381,1.412099987,0.09799999,9.179099798
1.683E+18,7.657058105,0.175099999,0.697699964,-0.609099984,,,1.011399984,-0.697699964,9.729299545,,,382,1.186499983,0,9.120199561
1.683E+18,7.677058105,-0.0296,0.649800003,-0.469399989,,,1.019999981,-0.718400002,9.726900101,,,383,0.990399981,-0.068599999,9.257500112
1.683E+18,7.697058105,-0.21509999,0.620499969,-0.378699988,,,1.028999925,-0.738200009,9.724499702,,,384,0.813899934,-0.11770004,9.345799714
1.683E+18,7.717056396,-0.290099978,0.66049999,-0.190200001,,,1.035400033,-0.75849998,9.72219944,,,385,0.745300055,-0.09799999,9.531999439
1.683E+18,7.737058105,-0.159899995,0.703099966,0.057499997,,,1.042500019,-0.781499982,9.71969986,,,386,0.882600024,-0.078400016,9.777199857
1.683E+18,7.75705957,-0.037299998,0.734200001,0.4912,,,1.047399998,-0.8028,9.717399597,,,387,1.0101,-0.068599999,10.2085996
1.683E+18,7.77705957,0.13409999,0.829999983,1.356999993,,,1.052399993,-0.829999983,9.714599609,,,388,1.186499983,0,11.0715996
1.683E+18,7.79705957,0.1928,1.154699922,1.683299899,,,1.052600026,-0.860499978,9.711899757,,,389,1.245400026,0.294199944,11.39519966
1.683E+18,7.817058105,0.478499979,1.565799952,1.568099976,,,1.051200032,-0.889199972,9.709499359,,,390,1.529700011,0.676599979,11.27759933
1.683E+18,7.837058105,0.579999983,1.812399983,2.590499878,,,1.047799945,-0.919999957,9.706999779,,,391,1.627799928,0.892400026,12.29749966
1.683E+18,7.857058105,-0.0757,1.699199915,3.152599812,,,1.046499968,-0.95389998,9.703800201,,,392,0.970799968,0.745299935,12.85640001
1.683E+18,7.877058105,-0.517199993,1.373299956,3.537899971,,,1.056599975,-0.971199989,9.701000214,,,393,0.539399981,0.402099967,13.23890018
1.683E+18,7.897058105,0.032099999,1.204599977,4.71639967,,,1.046499968,-0.998599946,9.699299812,,,394,1.078599967,0.20600003,14.41569948
1.683E+18,7.917058105,1.067099929,1.255299926,5.443699837,,,1.021600008,-1.039600015,9.697699547,,,395,2.088699937,0.215699911,15.14139938
1.683E+18,7.937058105,1.846199989,1.267400026,5.188699722,,,0.987800002,-1.071200013,9.697699547,,,396,2.833999991,0.196200013,14.88639927
1.683E+18,7.957058105,2.36619997,0.951699972,4.246099949,,,0.967999995,-1.079100013,9.698900223,,,397,3.334199965,-0.127400041,13.94500017
1.683E+18,7.977058105,2.507799864,0.583700001,1.931599975,,,0.983299971,-1.064199924,9.698999405,,,398,3.491099834,-0.480499923,11.63059938
1.683E+18,7.997056396,2.306999922,0.119599998,-1.116099954,,,1.036899924,-1.031599998,9.696899414,,,399,3.343899846,-0.912,8.58079946
1.683E+18,8.01705957,2.063999891,-0.573599994,-2.641199827,,,1.113299966,-0.995299995,9.692199707,,,400,3.177299857,-1.568899989,7.05099988
1.683E+18,8.03705957,1.753199935,-1.046199918,-2.333999872,,,1.15929997,-0.973800004,9.68900013,,,401,2.912499905,-2.019999921,7.355000257
1.683E+18,8.057058105,1.376099944,-0.977599978,-1.607999921,,,1.153900027,-0.983599961,9.688699722,,,402,2.529999971,-1.961199939,8.080699801
1.683E+18,8.077058105,1.08889997,-0.917599976,-1.000999928,,,1.127300024,-1.004400015,9.689700127,,,403,2.216199994,-1.921999991,8.688700199
1.683E+18,8.097058105,1.134299994,-0.920099974,-0.700299978,,,1.091699958,-1.011699915,9.69299984,,,404,2.225999951,-1.931799889,8.992699862
1.683E+18,8.117058105,1.558799982,-0.962099969,-0.7227,,,1.069299936,-1.008899927,9.695799828,,,405,2.628099918,-1.970999897,8.973099828
1.683E+18,8.137056396,1.748899937,-1.015799999,-1.055899978,,,1.075299978,-1.004299998,9.695599556,,,406,2.824199915,-2.020099998,8.639699578
1.683E+18,8.157056396,1.63349998,-1.021199942,-1.64289999,,,1.092700005,-0.99879998,9.694199562,,,407,2.726199985,-2.019999921,8.051299572
1.683E+18,8.177058105,1.366699934,-0.951699972,-2.091500044,,,1.114300013,-0.99969995,9.691599846,,,408,2.480999947,-1.951399922,7.600099802
1.683E+18,8.197058105,1.182799935,-0.842099965,-2.127500057,,,1.131500006,-1.011299968,9.688499451,,,409,2.314299941,-1.853399932,7.560999393
1.683E+18,8.217058105,1.032099962,-0.610199988,-2.044800043,,,1.144899964,-1.037199974,9.684100151,,,410,2.176999927,-1.647399962,7.639300108
1.683E+18,8.23705957,0.799600005,-0.278099984,-2.058199883,,,1.161599994,-1.075099945,9.677999496,,,411,1.961199999,-1.353199929,7.619799614
1.683E+18,8.25705957,0.549899995,-0.117399998,-1.826099992,,,1.175999999,-1.118099928,9.67140007,,,412,1.725899994,-1.235499926,7.845300078
1.683E+18,8.277058105,0.230399996,0.022799999,-1.447799921,,,1.181699991,-1.160399914,9.665699959,,,413,1.412099987,-1.137599915,8.217900038
1.683E+18,8.297056396,0.065899998,0.197300002,-1.129699945,,,1.179499984,-1.19749999,9.661499977,,,414,1.245399982,-1.000199988,8.531800032
1.683E+18,8.317058105,0.110599995,0.308299989,-0.939899981,,,1.174000025,-1.230099916,9.657999992,,,415,1.284600019,-0.921799928,8.718100011
1.683E+18,8.337058105,0.220899999,0.453500003,-0.769999981,,,1.171499968,-1.25759995,9.654799461,,,416,1.392399967,-0.804099947,8.88479948
1.683E+18,8.357058105,0.205299988,0.512600005,-0.708999991,,,1.167500019,-1.277499914,9.652699471,,,417,1.372800007,-0.764899909,8.943699479
1.683E+18,8.377058105,0.456900001,0.432599992,-0.806699991,,,1.16110003,-1.28579998,9.652299881,,,418,1.618000031,-0.853199989,8.84559989
1.683E+18,8.397058105,0.762199998,0.394899994,-0.93539995,,,1.149999976,-1.287299991,9.653499603,,,419,1.912199974,-0.892399997,8.718099654
1.683E+18,8.417058105,0.873099983,0.466899991,-1.063899994,,,1.137199998,-1.290699959,9.654500008,,,420,2.010299981,-0.823799968,8.590600014
1.683E+18,8.437058105,0.855199993,0.561199963,-1.084100008,,,1.12559998,-1.296700001,9.655099869,,,421,1.980799973,-0.735500038,8.570999861
1.683E+18,8.45705957,0.915600002,0.629700005,-0.889099956,,,1.10439992,-1.306299925,9.656199455,,,422,2.019999921,-0.67659992,8.7670995
1.683E+18,8.477061035,0.93599999,0.828799963,-0.459299982,,,1.074199915,-1.319100022,9.657899857,,,423,2.010199904,-0.490300059,9.198599875
1.683E+18,8.497058105,0.953499973,1.019899964,-0.02,,,1.037199974,-1.333699942,9.659999847,,,424,1.990699947,-0.313799977,9.639999848
1.683E+18,8.517058105,0.886500001,1.188799977,0.134199992,,,0.996299982,-1.345700026,9.662599564,,,425,1.882799983,-0.156900048,9.796799555
1.683E+18,8.537058105,0.864099979,1.200399995,0.179700002,,,0.959800005,-1.347499967,9.665999413,,,426,1.823899984,-0.147099972,9.845699415
1.683E+18,8.557058105,0.980599999,0.994899988,0.635599971,,,0.921799958,-1.338099957,9.670999527,,,427,1.902399957,-0.343199968,10.3065995
1.683E+18,8.577058105,1.250100017,0.721399963,1.374300003,,,0.877799988,-1.319599986,9.677700043,,,428,2.127900004,-0.598200023,11.05200005
1.683E+18,8.597056396,1.345799923,0.530099988,1.798399925,,,0.831200004,-1.295099974,9.685099602,,,429,2.176999927,-0.764999986,11.48349953
1.683E+18,8.617058105,1.400099993,0.569999993,1.654399991,,,0.796499968,-1.266199946,9.691800117,,,430,2.19659996,-0.696199954,11.34620011
1.683E+18,8.637058105,1.784999967,0.616100013,1.050999999,,,0.78429997,-1.233899951,9.69699955,,,431,2.569299936,-0.617799938,10.74799955
1.683E+18,8.657058105,2.230399847,0.295399994,1.40899992,,,0.780099988,-1.197600007,9.701899529,,,432,3.010499835,-0.902200013,11.11089945
1.683E+18,8.677058105,2.502799988,0.30399999,2.080499887,,,0.762799978,-1.166999936,9.706999779,,,433,3.265599966,-0.862999946,11.78749967
1.683E+18,8.69705957,2.086499929,0.402999997,1.919399977,,,0.737699986,-1.148299932,9.71119976,,,434,2.824199915,-0.745299935,11.63059974
1.683E+18,8.717058105,1.295499921,0.385999978,1.719200015,,,0.7245,-1.121500015,9.715299606,,,435,2.019999921,-0.735500038,11.43449962
1.683E+18,8.737058105,0.855799973,0.363599986,1.253799915,,,0.713199973,-1.089299917,9.719799995,,,436,1.568999946,-0.725699931,10.97359991
1.683E+18,8.757058105,0.557999969,0.1523,-0.152400002,,,0.726499975,-1.044700027,9.72369957,,,437,1.284499943,-0.892400026,9.571299568
1.683E+18,8.777058105,0.758399963,-0.405499995,-0.754899979,,,0.761599958,-0.977199972,9.727999687,,,438,1.519999921,-1.382699966,8.973099709
1.683E+18,8.797058105,1.252499938,-0.830899954,-0.181299999,,,0.787199974,-0.904799998,9.732999802,,,439,2.039699912,-1.735699952,9.551699802
1.683E+18,8.817056396,1.40109992,-1.099300027,0.412699997,,,0.805299997,-0.842299998,9.737099648,,,440,2.206399918,-1.941600025,10.14979964
1.683E+18,8.837058105,1.035899997,-1.334800005,0.673500001,,,0.817499995,-0.783399999,9.741000175,,,441,1.853399992,-2.118200004,10.41450018
1.683E+18,8.857058105,0.685699999,-1.475999951,0.522199988,,,0.824400008,-0.720600009,9.745299339,,,442,1.510100007,-2.19659996,10.26749933
1.683E+18,8.877058105,0.492699981,-1.440400004,0.018999999,,,0.840900004,-0.658199966,9.748299599,,,443,1.333599985,-2.09859997,9.767299598
1.683E+18,8.89705957,0.367899984,-1.348899961,-0.628499985,,,0.877399981,-0.602599978,9.748700142,,,444,1.245299965,-1.951499939,9.120200157
1.683E+18,8.917058105,0.081799999,-1.44599998,-1.127699971,,,0.91839999,-0.554499984,9.747699738,,,445,1.000199988,-2.000499964,8.619999766
1.683E+18,8.937058105,-0.110799998,-1.328799963,-1.655999899,,,0.95419997,-0.514800012,9.746500015,,,446,0.843399972,-1.843599975,8.090500116
1.683E+18,8.957056396,-0.1963,-1.038699985,-1.79279995,,,0.970999956,-0.491099983,9.745999336,,,447,0.774699956,-1.529799968,7.953199387
1.683E+18,8.977058105,-0.065899998,-0.841099977,-1.567999959,,,0.968099952,-0.48269999,9.746699333,,,448,0.902199954,-1.323799968,8.178699374
1.683E+18,8.997056396,0.194899991,-0.621399999,-1.40170002,,,0.962199986,-0.486699998,9.747099876,,,449,1.157099977,-1.108099997,8.345399857
1.683E+18,9.017056396,0.371199995,-0.433299989,-1.293200016,,,0.96239996,-0.498199999,9.746500015,,,450,1.333599955,-0.931499988,8.453299999
1.683E+18,9.037058105,0.348999977,-0.319499999,-1.154799938,,,0.964999974,-0.513999999,9.745499611,,,451,1.313999951,-0.833499998,8.590699673
1.683E+18,9.057058105,0.167599991,-0.3028,-1.192700028,,,0.969899952,-0.530600011,9.744099617,,,452,1.137499943,-0.833400011,8.551399589
1.683E+18,9.077058105,0.133499995,-0.204300001,-1.259699941,,,0.9745,-0.550700009,9.742499352,,,453,1.107999995,-0.75500001,8.482799411
1.683E+18,9.097058105,0.150899991,-0.155900002,-0.96359998,,,0.976799965,-0.57949996,9.740599632,,,454,1.127699956,-0.735399961,8.776999652
1.683E+18,9.117058105,0.100299999,0.0704,-0.549099982,,,0.978399992,-0.619499981,9.737999916,,,455,1.078699991,-0.549099982,9.188899934
1.683E+18,9.137058105,0.109200001,0.259599984,-0.065799996,,,0.979199946,-0.661599994,9.735099792,,,456,1.088399947,-0.40200001,9.669299796
1.683E+18,9.157058105,0.267199993,0.739199996,0.163000003,,,0.978199959,-0.709699988,9.731800079,,,457,1.245399952,0.029500008,9.894800082
1.683E+18,9.177058105,0.360199988,1.096199989,0.106899999,,,0.973399997,-0.752999961,9.729100227,,,458,1.333599985,0.343200028,9.836000226
1.683E+18,9.197058105,0.271799982,1.193799973,-0.0084,,,0.973499954,-0.781899989,9.726799965,,,459,1.245299935,0.411899984,9.718399965
1.683E+18,9.217058105,0.159699991,1.33099997,0.072999999,,,0.987599969,-0.801400006,9.723799706,,,460,1.14729996,0.529599965,9.796799704
1.683E+18,9.237056396,-0.0006,1.466099977,0.086599998,,,1.010699987,-0.818899989,9.719900131,,,461,1.010099987,0.647199988,9.806500129
1.683E+18,9.257058105,0.0026,1.428300023,0.560000002,,,1.02699995,-0.8301,9.717299461,,,462,1.02959995,0.598200023,10.27729946
1.683E+18,9.27705957,0.201299995,1.54489994,1.119400024,,,1.024399996,-0.838799953,9.716799736,,,463,1.225699991,0.706099987,10.83619976
1.683E+18,9.297056396,0.409399986,1.639599919,1.510999918,,,1.012400031,-0.845299959,9.717499733,,,464,1.421800017,0.79429996,11.22849965
1.683E+18,9.31705957,0.716899991,1.431100011,1.392799973,,,1.008899927,-0.842700005,9.718099594,,,465,1.725799918,0.588400006,11.11089957
1.683E+18,9.33705957,1.275900006,0.83069998,1.354499936,,,1.028499961,-0.83069998,9.717100143,,,466,2.304399967,0,11.07160008
1.683E+18,9.357058105,1.351499915,0.602199972,2.191599846,,,1.070599914,-0.817900002,9.713600159,,,467,2.422099829,-0.21570003,11.9052
1.683E+18,9.377058105,1.153299928,0.574899971,3.315199852,,,1.111899972,-0.829899967,9.707900047,,,468,2.2651999,-0.254999995,13.0230999
1.683E+18,9.397058105,0.97299999,0.709699988,3.868499994,,,1.135299921,-0.847000003,9.703800201,,,469,2.108299911,-0.137300014,13.5723002
1.683E+18,9.417058105,0.601899981,0.481699973,3.249199867,,,1.123999953,-0.844500005,9.705299377,,,470,1.725899935,-0.362800032,12.95449924
1.683E+18,9.437058105,0.586499989,-0.0071,1.373600006,,,1.129599929,-0.806699991,9.707900047,,,471,1.716099918,-0.813799991,11.08150005
1.683E+18,9.457058105,0.864600003,-0.728699982,-0.078699999,,,1.165300012,-0.742199957,9.708799362,,,472,2.029900014,-1.47089994,9.630099364
1.683E+18,9.477058105,1.109899998,-1.413200021,-0.478399992,,,1.223999977,-0.675499976,9.706399918,,,473,2.333899975,-2.088699996,9.227999926
1.683E+18,9.497056396,0.973999977,-1.708199978,0.139599994,,,1.251999974,-0.625699997,9.706199646,,,474,2.225999951,-2.333899975,9.84579964
1.683E+18,9.517072021,0.807799995,-1.701299906,0.50819999,,,1.23179996,-0.603199959,9.710199356,,,475,2.039599955,-2.304499865,10.21839935
1.683E+18,9.537058105,0.429800004,-1.769599915,-0.204399988,,,1.188199997,-0.583899975,9.716799736,,,476,1.618000001,-2.353499889,9.512399748
1.683E+18,9.557058105,0.473999977,-1.886099935,-1.297500014,,,1.163599968,-0.555700004,9.721399307,,,477,1.637599945,-2.441799939,8.423899293
1.683E+18,9.577058105,1.013800025,-2.092099905,-1.524199963,,,1.163200021,-0.536000013,9.722599983,,,478,2.177000046,-2.628099918,8.198400021
1.683E+18,9.597056396,1.531299949,-1.992799997,-1.358399987,,,1.155699968,-0.537299991,9.723400116,,,479,2.686999917,-2.530099988,8.365000129
1.683E+18,9.617058105,1.664999962,-1.744099975,-1.271799922,,,1.129799962,-0.560400009,9.725199699,,,480,2.794799924,-2.304499984,8.453399777
1.683E+18,9.637058105,1.547999978,-1.407400012,-1.431399941,,,1.089900017,-0.592999995,9.727799416,,,481,2.637899995,-2.000400007,8.296399474
1.683E+18,9.65705957,1.286499977,-1.184700012,-1.815099955,,,1.057099938,-0.629399955,9.729100227,,,482,2.343599916,-1.814099967,7.914000273
1.683E+18,9.677058105,1.173200011,-0.93809998,-1.774699926,,,1.042999983,-0.670099974,9.727899551,,,483,2.216199994,-1.608199954,7.953199625
1.683E+18,9.697058105,0.939699948,-0.550499976,-1.350399971,,,1.031299949,-0.72420001,9.725299835,,,484,1.970999897,-1.274699986,8.374899864
1.683E+18,9.71705957,0.606700003,-0.296900004,-0.779299974,,,1.011299968,-0.781699955,9.722899437,,,485,1.617999971,-1.07859996,8.943599463
1.683E+18,9.737058105,0.557200015,-0.138400003,-0.326900005,,,0.982299984,-0.832300007,9.721699715,,,486,1.539499998,-0.970700011,9.394799709
1.683E+18,9.757058105,0.983199954,-0.0155,-0.296000004,,,0.958399951,-0.876800001,9.720199585,,,487,1.941599905,-0.8923,9.424199581
1.683E+18,9.777058105,1.536499977,0.182099998,-0.547599971,,,0.954299986,-0.917599976,9.716799736,,,488,2.490799963,-0.735499978,9.169199765
1.683E+18,9.797056396,1.671599984,0.309499979,-0.720099986,,,0.956399977,-0.956799984,9.712800026,,,489,2.627999961,-0.647300005,8.99270004
1.683E+18,9.817058105,1.35619998,0.324599981,-0.647899985,,,0.958000004,-0.991400003,9.709199905,,,490,2.314199984,-0.666800022,9.06129992
1.683E+18,9.837058105,1.003000021,0.378800005,-0.320600003,,,0.958199978,-1.02609992,9.705599785,,,491,1.961199999,-0.647299916,9.384999782
1.683E+18,9.857058105,0.888699949,0.702899992,-0.032299999,,,0.954899967,-1.065699935,9.701600075,,,492,1.843599916,-0.362799942,9.669300076
1.683E+18,9.877058105,0.660600007,1.087299943,0.0206,,,0.947599947,-1.106899977,9.697699547,,,493,1.608199954,-0.019600034,9.718299547
1.683E+18,9.897058105,0.343199998,1.130800009,-0.104699999,,,0.941399992,-1.130800009,9.695599556,,,494,1.28459999,0,9.590899557
1.683E+18,9.917058105,0.195799991,1.136600018,-0.0069,,,0.931799948,-1.136600018,9.695799828,,,495,1.12759994,0,9.688899828
1.683E+18,9.937058105,0.3046,1.13409996,0.334999979,,,0.921099961,-1.13409996,9.697099686,,,496,1.225699961,0,10.03209966
1.683E+18,9.957056396,0.531599998,1.124199986,0.568099976,,,0.909799993,-1.124199986,9.699399948,,,497,1.441399992,0,10.26749992
1.683E+18,9.977058105,0.894400001,0.985899985,0.740399957,,,0.890299976,-1.103600025,9.703499794,,,498,1.784699976,-0.11770004,10.44389975
1.683E+18,9.997056396,1.190899968,0.803200006,0.774800003,,,0.868399978,-1.077799916,9.708399773,,,499,2.059299946,-0.27459991,10.48319978
1.683E+18,10.01705957,1.40929997,0.699299991,0.887699962,,,0.846099973,-1.052299976,9.713199615,,,500,2.255399942,-0.352999985,10.60089958
1.683E+18,10.03705957,1.501299977,0.612500012,1.344699979,,,0.822799981,-1.034199953,9.717100143,,,501,2.324099958,-0.421699941,11.06180012
1.683E+18,10.05705811,1.412599921,0.414199978,2.125499964,,,0.793799996,-1.022199988,9.720799446,,,502,2.206399918,-0.60800001,11.84629941
1.683E+18,10.07705811,1.477199912,0.202899992,2.994199991,,,0.74879998,-1.016899943,9.724899292,,,503,2.225999892,-0.813999951,12.71909928
1.683E+18,10.09705811,2.056099892,-0.085099995,3.804099798,,,0.699499965,-1.013100028,9.729000092,,,504,2.755599856,-1.098200023,13.53309989
1.683E+18,10.11705811,2.547999859,-0.100299999,3.348899841,,,0.648899972,-1.007799983,9.733099937,,,505,3.196899831,-1.108099982,13.08199978
1.683E+18,10.13705811,2.157299995,-0.052299999,-0.242499992,,,0.647300005,-0.987099946,9.735300064,,,506,2.8046,-1.039399944,9.492800072
1.683E+18,10.15705811,1.669699907,-0.826299965,-3.174299955,,,0.732800007,-0.92899996,9.734899521,,,507,2.402499914,-1.755299926,6.560599566
1.683E+18,10.17705957,1.291100025,-1.86559999,-3.239099979,,,0.846599996,-0.870399952,9.731100082,,,508,2.137700021,-2.735999942,6.492000103
1.683E+18,10.19705957,0.644400001,-2.11500001,-0.950199962,,,0.904999971,-0.856299996,9.727099419,,,509,1.549399972,-2.971300006,8.776899457
1.683E+18,10.21705811,0.103,-1.675399899,1.452299953,,,0.867799997,-0.893899977,9.727099419,,,510,0.970799997,-2.569299877,11.17939937
1.683E+18,10.2370564,0.037699997,-1.006799936,2.802700043,,,0.776199996,-0.944599986,9.730099678,,,511,0.813899994,-1.951399922,12.53279972
1.683E+18,10.25705811,0.701200008,-0.654500008,2.406899929,,,0.691299975,-0.97329998,9.733699799,,,512,1.392499983,-1.627799988,12.14059973
1.683E+18,10.27705811,1.814899921,-0.570299983,0.34709999,,,0.705299973,-0.959399998,9.734000206,,,513,2.520199895,-1.529699981,10.0811002
1.683E+18,10.2970564,2.157999992,-0.812599957,-0.844999969,,,0.79369998,-0.932899952,9.729800224,,,514,2.951699972,-1.745499909,8.884800255
1.683E+18,10.31705811,1.712499976,-0.90959996,-1.418200016,,,0.876399994,-0.914399981,9.724499702,,,515,2.58889997,-1.823999941,8.306299686
1.683E+18,10.33705811,0.703599989,-0.905200005,-1.551599979,,,0.924199998,-0.908999979,9.720499992,,,516,1.627799988,-1.814199984,8.168900013
1.683E+18,10.35705957,0.254799992,-0.602999985,-1.068699956,,,0.941499949,-0.916999996,9.718099594,,,517,1.19629994,-1.519999981,8.649399638
1.683E+18,10.37705957,0.191799998,-0.324699998,-0.390299976,,,0.935899973,-0.940199971,9.716400146,,,518,1.127699971,-1.264899969,9.326100171
1.683E+18,10.39705811,0.327299982,-0.2676,-0.074599996,,,0.937599957,-0.958099961,9.714499474,,,519,1.264899939,-1.225699961,9.639899477
1.683E+18,10.41705811,0.764099956,-0.379899979,0.112599999,,,0.942200005,-0.963499963,9.713600159,,,520,1.706299961,-1.343399942,9.826200157
1.683E+18,10.43705957,1.28339994,-0.557900012,0.338099986,,,0.942599952,-0.962099969,9.713699341,,,521,2.225999892,-1.519999981,10.05179933
1.683E+18,10.45705811,1.354099989,-0.611799955,0.052999999,,,0.940599978,-0.957199991,9.714300156,,,522,2.294699967,-1.568999946,9.767300155
1.683E+18,10.47705811,1.121299982,-0.679899991,-0.241299987,,,0.947799981,-0.947899997,9.714499474,,,523,2.069099963,-1.627799988,9.473199487
1.683E+18,10.4970564,0.747299969,-0.862399995,-0.280999988,,,0.958899975,-0.932099998,9.715000153,,,524,1.706199944,-1.794499993,9.434000164
1.683E+18,10.51705811,0.520299971,-1.05219996,-0.615499973,,,0.970200002,-0.908999979,9.716099739,,,525,1.490499973,-1.961199939,9.100599766
1.683E+18,10.53706104,0.395199984,-1.200699925,-0.988299966,,,0.987399995,-0.887999952,9.716300011,,,526,1.38259998,-2.088699877,8.728000045
1.683E+18,10.55705811,0.331900001,-1.206499934,-1.253099918,,,1.001699924,-0.872399986,9.716199875,,,527,1.333599925,-2.07889992,8.463099957
1.683E+18,10.57705811,0.319999993,-1.184399962,-1.389799953,,,1.013700008,-0.865099967,9.715600014,,,528,1.333700001,-2.049499929,8.325800061
1.683E+18,10.5970564,0.478699982,-1.114799976,-1.310400009,,,1.021600008,-0.866099954,9.714699745,,,529,1.50029999,-1.98089993,8.404299736
1.683E+18,10.61705811,0.611899972,-0.942699969,-0.788899958,,,1.025699973,-0.881299973,9.712900162,,,530,1.637599945,-1.823999941,8.924000204
1.683E+18,10.63705811,0.6972,-0.723999977,-0.022599999,,,1.01880002,-0.903799951,9.71159935,,,531,1.716000021,-1.627799928,9.688999351
1.683E+18,10.65705811,0.604399979,-0.536199987,0.477899998,,,1.003799915,-0.924899995,9.711099625,,,532,1.608199894,-1.461099982,10.18899962
1.683E+18,10.67705811,0.530200005,-0.524100006,0.4296,,,0.999499977,-0.936999977,9.710399628,,,533,1.529699981,-1.461099982,10.13999963
1.683E+18,10.69705811,0.612399995,-0.513799965,0.029199999,,,1.015399933,-0.9375,9.70870018,,,534,1.627799928,-1.451299965,9.737900179
1.683E+18,10.71705811,0.838799953,-0.406099975,-0.270700008,,,1.053799987,-0.937299967,9.704699516,,,535,1.89259994,-1.343399942,9.433999509
1.683E+18,10.73705811,1.019199967,-0.171700001,-0.098099999,,,1.098899961,-0.946099997,9.698800087,,,536,2.118099928,-1.117799997,9.600700088
1.683E+18,10.75705811,1.288900018,-0.035599999,0.692099988,,,1.133299947,-0.964599967,9.69299984,,,537,2.422199965,-1.000199966,10.38509983
1.683E+18,10.77705811,1.464399934,-0.054199997,1.755699992,,,1.153800011,-0.985199988,9.688499451,,,538,2.618199944,-1.039399985,11.44419944
1.683E+18,10.7970564,1.422799945,0.016099999,2.896999836,,,1.166100025,-1.006500006,9.68489933,,,539,2.58889997,-0.990400007,12.58189917
1.683E+18,10.8170564,1.239300013,0.109399997,3.450799942,,,1.182799935,-1.031199932,9.680199623,,,540,2.422099948,-0.921799935,13.13099957
1.683E+18,10.83705811,1.220799923,0.051799998,4.005700111,,,1.211099982,-1.051999927,9.674499512,,,541,2.431899905,-1.000199929,13.68019962
1.683E+18,10.8570564,1.468500018,-0.038799997,4.815099716,,,1.238099933,-1.06919992,9.669199944,,,542,2.706599951,-1.107999917,14.48429966
1.683E+18,10.87705811,1.64349997,-0.023899999,5.105199814,,,1.268999934,-1.084100008,9.663499832,,,543,2.912499905,-1.108000007,14.76869965
1.683E+18,10.89705811,1.413299918,0.079499997,3.926399946,,,1.322600007,-1.089599967,9.65569973,,,544,2.735899925,-1.01009997,13.58209968
1.683E+18,10.91705811,0.760699987,0.1215,1.338999987,,,1.416299939,-1.072700024,9.644299507,,,545,2.176999927,-0.951200023,10.98329949
1.683E+18,10.93705811,0.213199988,-0.255400002,-0.763499975,,,1.542099953,-1.038999915,9.628699303,,,546,1.755299941,-1.294399917,8.865199327
1.683E+18,10.95705811,-0.081,-0.843899965,-1.071699977,,,1.65989995,-0.999599993,9.61329937,,,547,1.57889995,-1.843499959,8.541599393
1.683E+18,10.97705811,-0.224199995,-0.785299957,-0.218899995,,,1.724599957,-0.979799986,9.603899956,,,548,1.500399962,-1.765099943,9.384999961
1.683E+18,10.9970564,-0.51699996,-0.494399995,0.736199975,,,1.742799997,-0.986299992,9.599999428,,,549,1.225800037,-1.480699986,10.3361994
1.683E+18,11.01705811,-1.165899992,-0.42929998,0.714699984,,,1.734699965,-0.98269999,9.601799965,,,550,0.568799973,-1.411999971,10.31649995
1.683E+18,11.03705811,-1.264899969,-0.769199967,-0.386999995,,,1.735599995,-0.946799994,9.605199814,,,551,0.470700026,-1.715999961,9.218199819
1.683E+18,11.05705811,-0.736199975,-1.118600011,-1.413699985,,,1.775699973,-0.901499987,9.60229969,,,552,1.039499998,-2.020099998,8.188599706
1.683E+18,11.07705811,-0.470499992,-1.255199909,-1.839699984,,,1.823799968,-0.862999976,9.59679985,,,553,1.353299975,-2.118199885,7.757099867
1.683E+18,11.0970564,-0.654399991,-1.398399949,-2.102400064,,,1.850799918,-0.827600002,9.59469986,,,554,1.196399927,-2.225999951,7.492299795
1.683E+18,11.11705811,-0.682799995,-1.520999908,-2.476300001,,,1.859599948,-0.793199956,9.595899582,,,555,1.176799953,-2.314199865,7.119599581
1.683E+18,11.13705811,-0.080600001,-1.387799978,-2.566499949,,,1.855599999,-0.779399991,9.597799301,,,556,1.774999999,-2.167199969,7.031299353
1.683E+18,11.15705811,0.5255,-0.94509995,-2.215899944,,,1.837799907,-0.790499985,9.600299835,,,557,2.363299906,-1.735599935,7.384399891
1.683E+18,11.17705811,0.635899961,-0.654199958,-1.856999993,,,1.805899978,-0.816699982,9.604199409,,,558,2.441799939,-1.47089994,7.747199416
1.683E+18,11.19705811,0.469599992,-0.443499982,-1.833699942,,,1.766299963,-0.831299961,9.610300064,,,559,2.235899955,-1.274799943,7.776600122
1.683E+18,11.21705811,0.206900001,-0.431400001,-1.715199947,,,1.715099931,-0.833599985,9.619400024,,,560,1.921999931,-1.264999986,7.904200077
1.683E+18,11.23705811,0.125599995,-0.392499983,-1.664499998,,,1.668900013,-0.833199978,9.62749958,,,561,1.794500008,-1.225699961,7.962999582
1.683E+18,11.25705811,0.2245,-0.232799992,-1.532199979,,,1.638700008,-0.836099982,9.632499695,,,562,1.863200009,-1.068899974,8.100299716
1.683E+18,11.27705811,0.296000004,-0.0296,-0.997699976,,,1.606400013,-0.843099952,9.637299538,,,563,1.902400017,-0.872699952,8.639599562
1.683E+18,11.2970564,0.393099993,-0.126800001,-0.484099984,,,1.568099976,-0.843999982,9.643499374,,,564,1.961199969,-0.970799983,9.15939939
1.683E+18,11.3170564,0.495999992,-0.030599998,-0.0999,,,1.524099946,-0.832300007,9.651599884,,,565,2.020099938,-0.862900006,9.551699884
1.683E+18,11.33705811,0.549099982,0.115399994,0.148800001,,,1.49059999,-0.821500003,9.657799721,,,566,2.039699972,-0.706100009,9.806599721
1.683E+18,11.35705811,0.431199998,0.133399993,0.331200004,,,1.471199989,-0.810000002,9.661699295,,,567,1.902399987,-0.676600009,9.992899299
1.683E+18,11.37705811,0.286899984,0.126599997,0.113600001,,,1.468400002,-0.79339999,9.663499832,,,568,1.755299985,-0.666799992,9.777099833
1.683E+18,11.39705811,0.192499995,0.119999997,-0.162,,,1.474499941,-0.767199993,9.664699554,,,569,1.666999936,-0.647199996,9.502699554
1.683E+18,11.41705811,0.316599995,0.263199985,0.197899997,,,1.468099952,-0.743799984,9.667499542,,,570,1.784699947,-0.480599999,9.865399539
1.683E+18,11.43705811,0.433099985,0.420899987,1.027999997,,,1.449699998,-0.734699965,9.670999527,,,571,1.882799983,-0.313799977,10.69899952
1.683E+18,11.4570564,0.607899964,0.477999985,2.054899931,,,1.431800008,-0.73299998,9.673799515,,,572,2.039699972,-0.254999995,11.72869945
1.683E+18,11.47705811,0.500999987,0.269999981,3.022599936,,,1.411199927,-0.731000006,9.67689991,,,573,1.912199914,-0.461000025,12.69949985
1.683E+18,11.4970564,0.636900008,0.1259,3.932799816,,,1.402799964,-0.724099994,9.678699493,,,574,2.039699972,-0.598199993,13.61149931
1.683E+18,11.5170564,1.121699929,-0.358999997,5.412699699,,,1.398499966,-0.719599962,9.679599762,,,575,2.520199895,-1.07859996,15.09229946
1.683E+18,11.53705811,1.37650001,-0.806499958,5.950900078,,,1.388899922,-0.723199964,9.680799484,,,576,2.765399933,-1.529699922,15.63169956
1.683E+18,11.55705811,1.369599938,-0.966699958,4.204699993,,,1.385999918,-0.719999969,9.681399345,,,577,2.755599856,-1.686699927,13.88609934
1.683E+18,11.57705811,1.057600021,-0.949799955,3.088399887,,,1.403800011,-0.707499981,9.679800034,,,578,2.461400032,-1.657299936,12.76819992
1.683E+18,11.5970564,0.25029999,-0.725299954,2.363100052,,,1.406899929,-0.706299961,9.67939949,,,579,1.657199919,-1.431599915,12.04249954
1.683E+18,11.61705811,-1.088799953,-0.52759999,0.51819998,,,1.402599931,-0.698199987,9.680600166,,,580,0.313799977,-1.225799978,10.19880015
1.683E+18,11.6370564,-2.120800018,-0.769400001,-1.699499965,,,1.404899955,-0.671999991,9.682099342,,,581,-0.715900064,-1.441399992,7.982599378
1.683E+18,11.65705811,-2.03399992,-1.09589994,-2.740200043,,,1.416099906,-0.629999995,9.683300018,,,582,-0.617900014,-1.725899935,6.943099976
1.683E+18,11.67705811,-1.072799921,-0.991899967,-2.143499851,,,1.416000009,-0.60649997,9.684800148,,,583,0.343200088,-1.598399937,7.541300297
1.683E+18,11.69705811,-0.324399978,-0.464999974,-0.861699998,,,1.393299937,-0.613699973,9.687699318,,,584,1.068899959,-1.078699946,8.82599932
1.683E+18,11.71705811,-0.257999986,-0.220199987,0.201099992,,,1.346599936,-0.622999966,9.693699837,,,585,1.08859995,-0.843199953,9.894799829
1.683E+18,11.73705811,-0.363499999,-0.321799994,0.32069999,,,1.295099974,-0.609799981,9.701600075,,,586,0.931599975,-0.931599975,10.02230006
1.683E+18,11.75705811,-0.113499999,-0.482299984,-0.457800001,,,1.280499935,-0.576699972,9.705499649,,,587,1.166999936,-1.058999956,9.247699648
1.683E+18,11.77705811,0.0244,-0.604399979,-1.13259995,,,1.309199929,-0.542899966,9.70359993,,,588,1.333599929,-1.147299945,8.57099998
1.683E+18,11.79705811,0.0027,-0.42839998,-1.461499929,,,1.350499988,-0.522799969,9.699099541,,,589,1.353199987,-0.951199949,8.237599611
1.683E+18,11.81705811,-0.457899988,-0.298700005,-1.575500011,,,1.379699945,-0.515199959,9.695399284,,,590,0.921799958,-0.813899964,8.119899273
1.683E+18,11.83705811,-0.842700005,-0.214099988,-1.43659997,,,1.391899943,-0.511500001,9.693799973,,,591,0.549199939,-0.725599989,8.257200003
1.683E+18,11.85705811,-1.007699966,-0.0047,-1.005200028,,,1.390100002,-0.514899969,9.693900108,,,592,0.382400036,-0.519599969,8.68870008
1.683E+18,11.87705811,-1.072999954,0.293799996,-0.720499992,,,1.386799932,-0.529100001,9.693599701,,,593,0.313799977,-0.235300004,8.973099709
1.683E+18,11.89705811,-1.121299982,0.464699984,-0.876800001,,,1.386099935,-0.543099999,9.692899704,,,594,0.264799953,-0.078400016,8.816099703
1.683E+18,11.91705811,-1.075899959,0.408199996,-1.533199906,,,1.389699936,-0.54549998,9.692299843,,,595,0.313799977,-0.137299985,8.159099936
1.683E+18,11.93705811,-0.883300006,0.324299991,-2.219399929,,,1.393299937,-0.540099978,9.692099571,,,596,0.509999931,-0.215799987,7.472699642
1.683E+18,11.9570564,-0.612199962,0.386700004,-2.277499914,,,1.396799922,-0.543599963,9.691399574,,,597,0.78459996,-0.156899959,7.41389966
1.683E+18,11.97705811,-0.470499992,0.551599979,-1.992799997,,,1.39230001,-0.561399996,9.690999985,,,598,0.921800017,-0.009800017,7.698199987
1.683E+18,11.9970564,-0.362599999,0.711699963,-1.473099947,,,1.382499933,-0.584199965,9.691100121,,,599,1.019899935,0.127499998,8.218000174
1.683E+18,12.0170564,-0.225199997,0.795300007,-0.905599952,,,1.362800002,-0.608999968,9.692299843,,,600,1.137600005,0.186300039,8.786699891
1.683E+18,12.03705811,-0.062399998,0.817099988,-0.368399978,,,1.337199926,-0.630800009,9.694499969,,,601,1.274799928,0.18629998,9.326099992
1.683E+18,12.05705811,0.142999992,0.927399993,0.061899997,,,1.318099976,-0.652799964,9.695599556,,,602,1.461099967,0.274600029,9.757499553
1.683E+18,12.07705811,0.471199989,1.030200005,0.209299996,,,1.313499928,-0.667299986,9.695300102,,,603,1.784699917,0.362900019,9.904600099
1.683E+18,12.0970564,0.542699993,0.837199986,0.123599999,,,1.330299973,-0.67049998,9.692799568,,,604,1.872999966,0.166700006,9.816399567
1.683E+18,12.11705811,0.428299993,0.791799963,0.0392,,,1.356400013,-0.674099982,9.688899994,,,605,1.784700006,0.117699981,9.728099994
1.683E+18,12.13705811,0.206499994,0.919399977,0.308299989,,,1.382099986,-0.684099972,9.684599876,,,606,1.58859998,0.235300004,9.992899865
1.683E+18,12.15705811,-0.141099989,0.930199981,0.781799972,,,1.396399975,-0.694899976,9.681799889,,,607,1.255299985,0.235300004,10.46359986
1.683E+18,12.17705811,-0.315499991,0.89289999,0.988999963,,,1.403999925,-0.696799994,9.680500031,,,608,1.088499933,0.196099997,10.66949999
1.683E+18,12.19705811,-0.440999985,0.835399985,1.27609992,,,1.421700001,-0.698099971,9.677800179,,,609,0.980700016,0.137300014,10.9539001
1.683E+18,12.2170564,-0.292299986,0.751999974,2.485299826,,,1.439700007,-0.703000009,9.674799919,,,610,1.147400022,0.048999965,12.16009974
1.683E+18,12.23705811,-0.166299999,0.828999996,3.702199936,,,1.441200018,-0.711299956,9.673999786,,,611,1.274900019,0.11770004,13.37619972
1.683E+18,12.25705811,0.096199997,0.50999999,4.466300011,,,1.433599949,-0.715999961,9.674799919,,,612,1.529799946,-0.20599997,14.14109993
1.683E+18,12.27705811,0.573300004,0.067000002,4.631199837,,,1.427099943,-0.70449996,9.676599503,,,613,2.000399947,-0.637499958,14.30779934
1.683E+18,12.29705811,1.043200016,-0.249699995,3.855000019,,,1.427999973,-0.681800008,9.678099632,,,614,2.471199989,-0.931500003,13.53309965
1.683E+18,12.31705811,1.157299995,-0.394699991,2.133599997,,,1.470799923,-0.654500008,9.673500061,,,615,2.628099918,-1.049199998,11.80710006
1.683E+18,12.33705811,0.8495,-0.358999997,0.466399997,,,1.543200016,-0.631299973,9.663799286,,,616,2.392700016,-0.99029997,10.13019928
1.683E+18,12.35705811,0.190200001,-0.502799988,-0.825599968,,,1.623899937,-0.615099967,9.651599884,,,617,1.814099938,-1.117899954,8.825999916
1.683E+18,12.37705811,-0.540600002,-0.504700005,-1.324199915,,,1.697799921,-0.593499959,9.640199661,,,618,1.157199919,-1.098199964,8.315999746
1.683E+18,12.39705811,-0.8574,-0.518000007,-0.954599977,,,1.74000001,-0.580199957,9.633500099,,,619,0.882600009,-1.098199964,8.678900123
1.683E+18,12.41705811,-0.701999962,-0.422399998,-0.295699984,,,1.751299977,-0.577799976,9.631599426,,,620,1.049300015,-1.000199974,9.335899442
1.683E+18,12.43705811,-0.211199999,-0.361099988,0.290899992,,,1.740999937,-0.580199957,9.633399963,,,621,1.529799938,-0.941299945,9.924299955
1.683E+18,12.45705811,0.052299999,-0.343499988,0.923099995,,,1.712799907,-0.578199983,9.638500214,,,622,1.765099905,-0.921699971,10.56160021
1.683E+18,12.47705811,0.114099994,-0.414899975,0.61439997,,,1.690199971,-0.565699995,9.643300056,,,623,1.804299966,-0.98059997,10.25770003
1.683E+18,12.49705811,0.070799999,-0.473999977,0.141499996,,,1.684499979,-0.545799971,9.645400047,,,624,1.755299978,-1.019799948,9.786900043
1.683E+18,12.5170564,0.076899998,-0.434499979,-0.448899984,,,1.67839992,-0.526499987,9.647500038,,,625,1.755299918,-0.960999966,9.198600054
1.683E+18,12.53705811,0.106699996,-0.440799981,-0.949999988,,,1.677999973,-0.510399997,9.648499489,,,626,1.784699969,-0.951199979,8.698499501
1.683E+18,12.55705811,0.206900001,-0.442099988,-1.333400011,,,1.675899982,-0.499299973,9.649399757,,,627,1.882799983,-0.941399962,8.315999746
1.683E+18,12.57705811,0.378800005,-0.341899991,-1.756399989,,,1.670699954,-0.49149999,9.650699615,,,628,2.049499959,-0.833399981,7.894299626
1.683E+18,12.5970564,0.426999986,-0.212899998,-1.893399954,,,1.671599984,-0.493099988,9.650499344,,,629,2.09859997,-0.705999985,7.75709939
1.683E+18,12.61705811,0.416299999,-0.096000001,-1.775099993,,,1.672399998,-0.502099991,9.649899483,,,630,2.088699996,-0.598099992,7.87479949
1.683E+18,12.63705811,0.414099991,-0.0462,-1.707199931,,,1.664799929,-0.512600005,9.65059948,,,631,2.07889992,-0.558800004,7.943399549
1.683E+18,12.65705811,0.483699977,-0.018299999,-1.6595999,,,1.654099941,-0.520999968,9.651999474,,,632,2.137799919,-0.539299967,7.992399573
1.683E+18,12.67705811,0.298599988,-0.102699995,-1.788800001,,,1.643000007,-0.52489996,9.653699875,,,633,1.941599995,-0.627599955,7.864899874
1.683E+18,12.69705811,0.088799998,-0.0999,-1.868099928,,,1.637099981,-0.527700007,9.654600143,,,634,1.725899979,-0.627600007,7.786500216
1.683E+18,12.71705811,-0.0232,-0.072499998,-1.662699938,,,1.631500006,-0.535399973,9.655099869,,,635,1.608300006,-0.607899971,7.992399931
1.683E+18,12.73705811,-0.051799998,-0.0034,-1.165400028,,,1.611099958,-0.545700014,9.657899857,,,636,1.559299961,-0.549100013,8.492499828
1.683E+18,12.75705811,-0.078599997,0.092599995,-0.728899956,,,1.578999996,-0.553499997,9.662799835,,,637,1.500399999,-0.460900001,8.933899879
1.683E+18,12.77705811,-0.1523,0.1118,-0.261599988,,,1.5546,-0.562900007,9.666199684,,,638,1.4023,-0.451100007,9.404599696
1.683E+18,12.79705811,0.065499999,-0.060699999,-0.114599995,,,1.55250001,-0.566900015,9.66629982,,,639,1.618000008,-0.627600014,9.551699825
1.683E+18,12.81705811,0.312099993,-0.052999999,-0.093199998,,,1.560899973,-0.574499965,9.664499283,,,640,1.872999966,-0.627499964,9.571299285
1.683E+18,12.83705811,0.593899965,0.216999993,0.231600001,,,1.563499928,-0.589699984,9.663199425,,,641,2.157399893,-0.372699991,9.894799426
1.683E+18,12.85705811,0.71239996,0.538999975,0.967199981,,,1.552899957,-0.617399991,9.663199425,,,642,2.265299916,-0.078400016,10.63039941
1.683E+18,12.87705811,0.61500001,0.786899984,1.613299966,,,1.532599926,-0.649599969,9.664299965,,,643,2.147599936,0.137300014,11.27759993
1.683E+18,12.89705811,0.389999986,0.803299963,1.768799901,,,1.512399912,-0.675799966,9.665699959,,,644,1.902399898,0.127499998,11.43449986
1.683E+18,12.91705811,0.537599981,0.773000002,1.905799985,,,1.501999974,-0.694499969,9.665999413,,,645,2.039599955,0.078500032,11.5717994
1.683E+18,12.93705811,0.991599977,0.611099958,2.660699844,,,1.48939991,-0.718999982,9.666099548,,,646,2.480999887,-0.107900023,12.32679939
1.683E+18,12.95705811,1.271399975,0.470999986,4.159399986,,,1.46449995,-0.745599985,9.667900085,,,647,2.735899925,-0.274599999,13.82730007
1.683E+18,12.97705811,1.01609993,0.4727,5.01609993,,,1.406000018,-0.77669996,9.674099922,,,648,2.422099948,-0.30399996,14.69019985
1.683E+18,12.9970564,0.486900002,0.210799992,4.177299976,,,1.356699944,-0.799199998,9.67939949,,,649,1.843599945,-0.588400006,13.85669947
1.683E+18,13.0170564,0.47389999,-0.116099998,3.351799965,,,1.340199947,-0.805599988,9.681099892,,,650,1.814099938,-0.921699986,13.03289986
1.683E+18,13.03705811,0.649699986,-0.0276,3.026499987,,,1.321399927,-0.815699995,9.682899475,,,651,1.971099913,-0.843299994,12.70939946
1.683E+18,13.05705811,0.062399998,0.058199998,1.758399963,,,1.300599933,-0.813299954,9.685899734,,,652,1.362999931,-0.755099956,11.4442997
1.683E+18,13.07705811,-0.368599981,-0.017099999,-0.350600004,,,1.300199986,-0.806599975,9.686499596,,,653,0.931600004,-0.823699974,9.335899591
1.683E+18,13.0970564,-0.782799959,-0.262199998,-1.948499918,,,1.322199941,-0.777199984,9.685899734,,,654,0.539399981,-1.039399981,7.737399817
1.683E+18,13.11705811,-0.627399981,-0.475299984,-2.085700035,,,1.343199968,-0.740700006,9.685899734,,,655,0.715799987,-1.215999991,7.600199699
1.683E+18,13.13705811,-0.310099989,-0.362699986,-1.146600008,,,1.3398,-0.715900004,9.688199997,,,656,1.029700011,-1.078599989,8.541599989
1.683E+18,13.15705811,-0.243599996,-0.188299999,-0.298799992,,,1.312600017,-0.694199979,9.693499565,,,657,1.069000021,-0.882499978,9.394699574
1.683E+18,13.17705811,-0.386899978,-0.151099995,0.088100001,,,1.289099932,-0.662799954,9.698900223,,,658,0.902199954,-0.813899949,9.787000224
1.683E+18,13.19705811,-0.556299984,-0.350499988,0.0039,,,1.272199988,-0.610399961,9.704500198,,,659,0.715900004,-0.960899949,9.708400198
1.683E+18,13.21705811,-0.483399987,-0.502499998,-0.283399999,,,1.277799964,-0.546700001,9.70759964,,,660,0.794399977,-1.049199998,9.424199641
1.683E+18,13.23705811,-0.493999988,-0.415199995,-0.723899961,,,1.307899952,-0.486900002,9.706799507,,,661,0.813899964,-0.902099997,8.982899547
1.683E+18,13.25705811,-0.758399963,-0.399499983,-1.12319994,,,1.34679997,-0.433899999,9.703999519,,,662,0.588400006,-0.833399981,8.58079958
1.683E+18,13.27705811,-0.979399979,-0.429699987,-1.473399997,,,1.381500006,-0.38409999,9.701199532,,,663,0.402100027,-0.813799977,8.227799535
1.683E+18,13.29705811,-1.038299918,-0.402099997,-1.550599933,,,1.40109992,-0.343099982,9.699899673,,,664,0.362800002,-0.745199978,8.149299741
1.683E+18,13.31705811,-1.008899927,-0.320800006,-1.393199921,,,1.410899997,-0.316499978,9.699399948,,,665,0.40200007,-0.637299985,8.306200027
1.683E+18,13.33705811,-0.896099985,-0.096599996,-1.353600025,,,1.415899992,-0.305399984,9.698999405,,,666,0.519800007,-0.40199998,8.34539938
1.683E+18,13.35705811,-0.892099977,0.135299996,-1.207199931,,,1.411899924,-0.301999986,9.699699402,,,667,0.519799948,-0.166699991,8.492499471
1.683E+18,13.37705811,-0.947899997,0.181699991,-1.140499949,,,1.398999929,-0.299400002,9.701700211,,,668,0.451099932,-0.117700011,8.561200261
1.683E+18,13.39705811,-1.043599963,0.096000001,-1.348399997,,,1.386899948,-0.292099983,9.70359993,,,669,0.343299985,-0.196099982,8.355199933
1.683E+18,13.41705811,-0.907399952,-0.009099999,-1.300799966,,,1.378099918,-0.284999996,9.70510006,,,670,0.470699966,-0.294099996,8.404300094
1.683E+18,13.43705811,-0.619099975,-0.1074,-1.234099984,,,1.36439991,-0.284799993,9.706999779,,,671,0.745299935,-0.392199993,8.472899795
1.683E+18,13.45705811,-0.43719998,-0.203799993,-1.167500019,,,1.34920001,-0.286500007,9.70909977,,,672,0.91200003,-0.4903,8.541599751
1.683E+18,13.47705811,-0.244399995,-0.144699991,-1.012599945,,,1.332899928,-0.296499997,9.711099625,,,673,1.088499933,-0.441199988,8.69849968
1.683E+18,13.4970564,-0.165999994,0.122399993,-0.632099986,,,1.313399911,-0.318599999,9.712999344,,,674,1.147399917,-0.196200006,9.080899358
1.683E+18,13.5170564,-0.196699992,0.299999982,-0.456999987,,,1.295099974,-0.349099994,9.714399338,,,675,1.098399982,-0.049100012,9.25739935
1.683E+18,13.53705811,-0.139300004,0.3829,-0.5352,,,1.28670001,-0.3829,9.714300156,,,676,1.147400007,0,9.179100156
1.683E+18,13.55705811,-0.074199997,0.57069999,-0.298999995,,,1.280399919,-0.423599988,9.713399887,,,677,1.206199922,0.147100002,9.414399892
1.683E+18,13.5770564,-0.059999999,0.831599951,0.054099999,,,1.266199946,-0.468799978,9.713199615,,,678,1.206199948,0.362799972,9.767299615
1.683E+18,13.5970564,-0.073399998,1.05279994,0.672100008,,,1.250199914,-0.513399959,9.712999344,,,679,1.176799916,0.539399981,10.38509935
1.683E+18,13.61705811,-0.078699999,1.192799926,1.33949995,,,1.235899925,-0.555299997,9.712499619,,,680,1.157199927,0.637499928,11.05199957
1.683E+18,13.63705811,0.027199998,1.246599913,1.811199903,,,1.227900028,-0.589599967,9.711500168,,,681,1.255100027,0.656999946,11.52270007
1.683E+18,13.65705811,0.3125,0.786699951,2.557600021,,,1.226999998,-0.610199988,9.710399628,,,682,1.539499998,0.176499963,12.26799965
1.683E+18,13.67705811,0.649800003,0.666299999,3.695199966,,,1.223099947,-0.617299974,9.710399628,,,683,1.87289995,0.049000025,13.40559959
1.683E+18,13.69705811,0.727299988,0.781899989,3.567699909,,,1.214299917,-0.634799957,9.710399628,,,684,1.941599905,0.147100031,13.27809954
1.683E+18,13.71705811,0.880599976,0.545799971,3.178999901,,,1.237499952,-0.643899977,9.706899643,,,685,2.118099928,-0.098100007,12.88589954
1.683E+18,13.7370564,0.951699972,0.145099998,3.336299896,,,1.244899988,-0.635499954,9.706500053,,,686,2.19659996,-0.490399957,13.04279995
1.683E+18,13.75705811,1.154999971,-0.168099999,2.905799866,,,1.257300019,-0.626100004,9.705499649,,,687,2.412299991,-0.794200003,12.61129951
1.683E+18,13.77705811,1.145900011,-0.108799994,2.085199833,,,1.286099911,-0.61680001,9.702300072,,,688,2.431999922,-0.725600004,11.7874999
1.683E+18,13.79705811,0.969500005,-0.035399999,0.746599972,,,1.325099945,-0.611799955,9.697400093,,,689,2.29459995,-0.647199955,10.44400007
1.683E+18,13.8170564,0.88259995,-0.074699998,-0.540399969,,,1.38259995,-0.601899981,9.68999958,,,690,2.2651999,-0.676599979,9.149599612
1.683E+18,13.83705811,0.396999985,-0.338699996,-1.110199928,,,1.44659996,-0.592799962,9.681200027,,,691,1.843599945,-0.931499958,8.571000099
1.683E+18,13.85705811,-0.012999999,-0.59829998,-1.070799947,,,1.513499975,-0.588199973,9.671199799,,,692,1.500499976,-1.186499953,8.600399852
1.683E+18,13.87705811,-0.570499957,-0.507799983,-0.319399983,,,1.551100016,-0.590499997,9.665100098,,,693,0.980600059,-1.09829998,9.345700115
1.683E+18,13.89705811,-1.114899993,-0.222899988,0.492199987,,,1.536599994,-0.590999961,9.667399406,,,694,0.421700001,-0.813899949,10.15959939
1.683E+18,13.91705811,-1.196399927,-0.302899987,0.732499957,,,1.510199904,-0.579599977,9.672299385,,,695,0.313799977,-0.882499963,10.40479934
1.683E+18,13.93705811,-0.683299959,-0.681100011,0.1127,,,1.507099986,-0.554499984,9.674200058,,,696,0.823800027,-1.235599995,9.786900058
1.683E+18,13.95705811,-0.009,-0.91869998,-0.689700007,,,1.528999925,-0.522799969,9.672499657,,,697,1.519999925,-1.441499949,8.982799649
1.683E+18,13.97705811,0.43629998,-0.975899994,-1.078799963,,,1.554399967,-0.504799962,9.669499397,,,698,1.990699947,-1.480699956,8.590699434
1.683E+18,13.9970564,0.461699992,-0.796399951,-1.08829999,,,1.558399916,-0.497999996,9.669199944,,,699,2.020099908,-1.294399947,8.580899954
1.683E+18,14.0170564,0.28549999,-0.556400001,-0.893599987,,,1.548299909,-0.502600014,9.670499802,,,700,1.833799899,-1.059000015,8.776899815
1.683E+18,14.03705811,0.151799992,-0.287900001,-0.581200004,,,1.534799933,-0.516200006,9.671999931,,,701,1.686599925,-0.804100007,9.090799928
1.683E+18,14.05705811,0.084199995,-0.151199996,-0.611299992,,,1.523999929,-0.5352,9.672699928,,,702,1.608199924,-0.686399996,9.061399937
1.683E+18,14.07705811,0.105299994,-0.096599996,-0.95389998,,,1.522499919,-0.550499976,9.671999931,,,703,1.627799913,-0.647099972,8.718099952
1.683E+18,14.0970564,0.0044,0.024,-1.296000004,,,1.525399923,-0.563300014,9.670800209,,,704,1.529799923,-0.539300013,8.374800205
1.683E+18,14.11705811,-0.185399994,0.125,-1.274999976,,,1.528899908,-0.576099992,9.669499397,,,705,1.343499914,-0.451099992,8.394499421
1.683E+18,14.13705811,-0.518999994,0.263699979,-1.166499972,,,1.529099941,-0.587300003,9.6687994,,,706,1.010099947,-0.323600024,8.502299428
1.683E+18,14.15705811,-0.66049999,0.301200002,-1.233899951,,,1.533299923,-0.595399976,9.667699814,,,707,0.872799933,-0.294199973,8.433799863
1.683E+18,14.17705811,-0.525200009,0.275399983,-1.40989995,,,1.535300016,-0.598999977,9.667099953,,,708,1.010100007,-0.323599994,8.257200003
1.683E+18,14.19705811,-0.308200002,0.189799994,-1.527599931,,,1.534099936,-0.601700008,9.667200089,,,709,1.225899935,-0.411900014,8.139600158
1.683E+18,14.21705811,-0.090599999,0.166999996,-1.439299941,,,1.532199979,-0.608299971,9.666999817,,,710,1.44159998,-0.441299975,8.227699876
1.683E+18,14.23705811,-0.02,0.289000005,-0.930299997,,,1.520399928,-0.622399986,9.668000221,,,711,1.500399929,-0.333399981,8.737700224
1.683E+18,14.25705811,0.079399996,0.4736,-0.442000002,,,1.49940002,-0.640299976,9.670100212,,,712,1.578800015,-0.166699976,9.22810021
1.683E+18,14.27705811,0.113499999,0.517099977,0.035599999,,,1.475099921,-0.654399991,9.6729002,,,713,1.58859992,-0.137300014,9.708500199
1.683E+18,14.29705811,0.421099991,0.477299988,0.346499979,,,1.451799989,-0.663599968,9.67579937,,,714,1.872899979,-0.18629998,10.02229935
1.683E+18,14.31705811,0.660899997,0.493900001,0.433099985,,,1.437600017,-0.670399964,9.677499771,,,715,2.098500013,-0.176499963,10.11059976
1.683E+18,14.33705811,0.647799969,0.569599986,0.844500005,,,1.431100011,-0.67750001,9.677899361,,,716,2.07889998,-0.107900023,10.52239937
1.683E+18,14.35705811,0.443999976,0.650200009,1.352800012,,,1.419199944,-0.6796,9.679499626,,,717,1.863199919,-0.029399991,11.03229964
1.683E+18,14.37705811,0.289000005,0.497599989,1.71359992,,,1.407499909,-0.674099982,9.681599617,,,718,1.696499914,-0.176499993,11.39519954
1.683E+18,14.39705811,0.521799982,0.232799992,2.300299883,,,1.400200009,-0.664299965,9.683400154,,,719,1.921999991,-0.431499973,11.98370004
1.683E+18,14.41705811,1.066399932,0.0296,3.513599873,,,1.385200024,-0.657199979,9.68599987,,,720,2.451599956,-0.627599979,13.19959974
1.683E+18,14.43705811,1.423499942,0.033199999,4.774199963,,,1.351699948,-0.660899997,9.690499306,,,721,2.77519989,-0.627699997,14.46469927
1.683E+18,14.45705811,1.511799932,-0.0867,5.308700085,,,1.312399983,-0.668299973,9.695399284,,,722,2.824199915,-0.754999973,15.00409937
1.683E+18,14.47705811,1.355000019,-0.146300003,4.90389967,,,1.292699933,-0.667599976,9.69810009,,,723,2.647699952,-0.813899979,14.60199976
1.683E+18,14.4970564,0.987899959,-0.174199998,3.647399902,,,1.287099957,-0.659200013,9.699399948,,,724,2.274999917,-0.833400011,13.34679985
1.683E+18,14.5170564,0.492399991,-0.041499998,1.745899916,,,1.302099943,-0.644899964,9.698299408,,,725,1.794499934,-0.686399963,11.44419932
1.683E+18,14.53705811,0.102199994,-0.0469,-0.281299978,,,1.329399943,-0.629700005,9.695599556,,,726,1.431599937,-0.676600005,9.414299577
1.683E+18,14.55705811,-0.281199992,-0.094399996,-2.130199909,,,1.369799972,-0.611599982,9.691199303,,,727,1.08859998,-0.705999978,7.560999393
1.683E+18,14.57705811,-0.621299982,-0.3759,-2.29279995,,,1.405799985,-0.594900012,9.687099457,,,728,0.784500003,-0.970800012,7.394299507
1.683E+18,14.5970564,-0.657499969,-0.0218,-1.351799965,,,1.402799964,-0.595999956,9.687399864,,,729,0.745299995,-0.617799956,8.335599899
1.683E+18,14.61705811,-0.728899956,0.266000003,-0.238199994,,,1.366400003,-0.609200001,9.691800117,,,730,0.637500048,-0.343199998,9.453600124
1.683E+18,14.63705811,-1.051900029,0.247999996,0.1074,,,1.316699982,-0.601000011,9.699199677,,,731,0.264799953,-0.353000015,9.806599677
1.683E+18,14.65705811,-1.027400017,-0.068599999,-0.310200006,,,1.292099953,-0.559000015,9.704999924,,,732,0.264699936,-0.627600014,9.394799918
1.683E+18,14.67705811,-0.583499968,-0.355299979,-0.920599997,,,1.299299955,-0.497799993,9.707399368,,,733,0.715799987,-0.853099972,8.786799371
1.683E+18,14.69705811,-0.271499991,-0.485899985,-1.303200006,,,1.320799947,-0.435900003,9.707499504,,,734,1.049299955,-0.921799988,8.404299498
1.683E+18,14.71705811,-0.244799986,-0.410999984,-1.614799976,,,1.352999926,-0.38319999,9.705200195,,,735,1.108199939,-0.794199973,8.090400219
1.683E+18,14.73705811,-0.391000003,-0.388599992,-1.54519999,,,1.371599913,-0.336999983,9.704299927,,,736,0.98059991,-0.725599974,8.159099936
1.683E+18,14.75705811,-0.619199991,-0.417099983,-1.467599988,,,1.374300003,-0.298700005,9.705200195,,,737,0.755100012,-0.715799987,8.237600207
1.683E+18,14.77705811,-0.629399955,-0.42719999,-1.546899915,,,1.37469995,-0.268999994,9.705999374,,,738,0.745299995,-0.696199983,8.15909946
1.683E+18,14.79705811,-0.511699975,-0.386299998,-1.518000007,,,1.37469995,-0.250999987,9.706500053,,,739,0.862999976,-0.637299985,8.188500047
1.683E+18,14.81705811,-0.560799956,-0.360100001,-1.370899916,,,1.37469995,-0.247799993,9.706600189,,,740,0.813899994,-0.607899994,8.335700274
1.683E+18,14.83705811,-0.692499995,-0.2377,-1.360399961,,,1.378899932,-0.252599984,9.705900192,,,741,0.686399937,-0.490299985,8.345500231
1.683E+18,14.85705811,-0.894499958,-0.142499998,-1.184299946,,,1.375100017,-0.259499997,9.706199646,,,742,0.480600059,-0.401999995,8.5218997
1.683E+18,14.87705811,-0.945199966,-0.137099996,-0.990499973,,,1.35710001,-0.264899999,9.708600044,,,743,0.411900043,-0.401999995,8.718100071
1.683E+18,14.89705811,-0.749199986,-0.131099999,-0.86559999,,,1.337599993,-0.270899981,9.71119976,,,744,0.588400006,-0.40199998,8.845599771
1.683E+18,14.91705811,-0.440499991,-0.168599993,-0.837799966,,,1.323099971,-0.282399982,9.712800026,,,745,0.88259998,-0.450999975,8.87500006
1.683E+18,14.93705811,-0.141499996,-0.122299999,-0.896799982,,,1.318300009,-0.299299985,9.712999344,,,746,1.176800013,-0.421599984,8.816199362
1.683E+18,14.95705811,-0.029399998,-0.093599997,-0.788899958,,,1.314099908,-0.318100005,9.712900162,,,747,1.284699909,-0.411700003,8.924000204
1.683E+18,14.97705811,-0.071800001,0.027999999,-0.592899978,,,1.307399988,-0.341800004,9.712999344,,,748,1.235599987,-0.313800005,9.120099366
1.683E+18,14.99705811,-0.171999991,0.253600001,-0.102499999,,,1.299700022,-0.371299982,9.712999344,,,749,1.127700031,-0.117699981,9.610499345
1.683E+18,15.01705811,-0.249299988,0.455499977,0.279799998,,,1.288800001,-0.406499982,9.712999344,,,750,1.039500013,0.048999995,9.992799342
1.683E+18,15.03705811,-0.317299992,0.605799973,0.495599985,,,1.278299928,-0.439099997,9.712999344,,,751,0.960999936,0.166699976,10.20859933
1.683E+18,15.05705811,-0.263999999,0.763899982,0.516099989,,,1.274099946,-0.469699979,9.712100029,,,752,1.010099947,0.294200003,10.22820002
1.683E+18,15.07705811,-0.235100001,0.843699992,0.654999971,,,1.27459991,-0.500400007,9.710499763,,,753,1.039499909,0.343299985,10.36549973
1.683E+18,15.0970564,-0.158199996,0.745399952,1.127499938,,,1.27609992,-0.529699981,9.708799362,,,754,1.117899925,0.215699971,10.8362993
1.683E+18,15.11705811,-0.120299995,0.566900015,1.56069994,,,1.277400017,-0.557099998,9.707099915,,,755,1.157100022,0.009800017,11.26779985
1.683E+18,15.1370564,0.463399976,0.369399995,2.484200001,,,1.282099962,-0.575399995,9.705399513,,,756,1.745499939,-0.206,12.18959951
1.683E+18,15.15705811,0.865799963,0.639199972,3.593799829,,,1.281700015,-0.599999964,9.703899384,,,757,2.147499979,0.039200008,13.29769921
1.683E+18,15.17705811,1.088400006,0.6699,4.116499901,,,1.284699917,-0.640500009,9.701000214,,,758,2.373099923,0.029399991,13.81750011
1.683E+18,15.19705811,1.07159996,0.494199991,4.374499798,,,1.291700006,-0.670799971,9.697999954,,,759,2.363299966,-0.176599979,14.07249975
1.683E+18,15.21705811,1.088400006,0.399299979,4.393499851,,,1.27489996,-0.693499982,9.698599815,,,760,2.363299966,-0.294200003,14.09209967
1.683E+18,15.23705811,1.061499953,0.335799992,3.629299879,,,1.272300005,-0.708400011,9.697899818,,,761,2.333799958,-0.372600019,13.3271997
1.683E+18,15.25705811,0.826900005,0.301299989,2.199599981,,,1.291199923,-0.703399956,9.695699692,,,762,2.118099928,-0.402099967,11.89529967
1.683E+18,15.27705811,0.325499982,0.171800002,0.124599993,,,1.331699967,-0.681699991,9.691800117,,,763,1.657199949,-0.509899989,9.816400111
1.683E+18,15.2970564,-0.141299993,-0.283899993,-1.576999903,,,1.386699915,-0.637799978,9.687099457,,,764,1.245399922,-0.921699971,8.110099554
1.683E+18,15.3170564,-0.2861,-0.825999975,-1.965699911,,,1.433499932,-0.585999966,9.683499336,,,765,1.147399932,-1.411999941,7.717799425
1.683E+18,15.33705811,-0.227799997,-0.745799959,-1.042500019,,,1.453699946,-0.558399975,9.682199478,,,766,1.22589995,-1.304199934,8.639699459
1.683E+18,15.35705811,-0.427100003,-0.32069999,0.229099989,,,1.427299976,-0.57159996,9.685299873,,,767,1.000199974,-0.89229995,9.914399862
1.683E+18,15.3770564,-0.732800007,-0.14639999,0.705199957,,,1.389899969,-0.588999987,9.689700127,,,768,0.657099962,-0.735399976,10.39490008
1.683E+18,15.39705811,-0.663599968,-0.291099995,0.064499997,,,1.369699955,-0.58160001,9.69299984,,,769,0.706099987,-0.872700006,9.757499836
1.683E+18,15.41705811,-0.267699987,-0.730199993,-0.759899974,,,1.375899911,-0.55430001,9.693799973,,,770,1.108199924,-1.284500003,8.933899999
1.683E+18,15.43705811,-0.057599999,-0.870700002,-1.121799946,,,1.391299963,-0.531499982,9.692799568,,,771,1.333699964,-1.402199984,8.570999622
1.683E+18,15.45705811,-0.204999998,-0.742899954,-1.493499994,,,1.40139997,-0.522099972,9.6918993,,,772,1.196399972,-1.264999926,8.198399305
1.683E+18,15.47705811,-0.453999996,-0.61589998,-1.406199932,,,1.395399928,-0.521600008,9.692799568,,,773,0.941399932,-1.137499988,8.286599636
1.683E+18,15.4970564,-0.452899992,-0.391499996,-1.603399992,,,1.384499907,-0.530299962,9.693900108,,,774,0.931599915,-0.921799958,8.090500116
1.683E+18,15.5170564,-0.260100007,-0.193700001,-1.838999987,,,1.378000021,-0.541700006,9.694199562,,,775,1.117900014,-0.735400006,7.855199575
1.683E+18,15.53705811,-0.062299997,-0.040899999,-2.054100037,,,1.376399994,-0.557200015,9.693499565,,,776,1.314099997,-0.598100014,7.639399529
1.683E+18,15.55705811,-0.0049,0.1162,-1.954699993,,,1.377799988,-0.577099979,9.692199707,,,777,1.372899988,-0.460899979,7.737499714
1.683E+18,15.57705811,-0.0647,0.295699984,-1.532899976,,,1.368899941,-0.599699974,9.691999435,,,778,1.304199941,-0.30399999,8.15909946
1.683E+18,15.5970564,-0.193800002,0.4921,-1.230199933,,,1.350999951,-0.619599998,9.693299294,,,779,1.157199949,-0.127499998,8.46309936
1.683E+18,15.61705811,-0.220499992,0.533800006,-1.144199967,,,1.328699946,-0.631900012,9.695599556,,,780,1.108199954,-0.098100007,8.551399589
1.683E+18,15.63705811,-0.084699996,0.576099992,-1.048399925,,,1.310500026,-0.634899974,9.697899818,,,781,1.22580003,-0.058799982,8.649499893
1.683E+18,15.65705811,0.213100001,0.435599983,-0.89349997,,,1.296999931,-0.631799996,9.699899673,,,782,1.510099933,-0.196200013,8.806399703
1.683E+18,15.67705811,0.343400002,0.340799987,-0.581799984,,,1.284399986,-0.625199974,9.701999664,,,783,1.627799988,-0.284399986,9.12019968
1.683E+18,15.69705811,0.308299989,0.317499995,-0.202699989,,,1.260699987,-0.621499956,9.705299377,,,784,1.568999976,-0.30399996,9.502599388
1.683E+18,15.71705811,0.375999987,0.423999995,0.234799996,,,1.232200027,-0.620099962,9.70909977,,,785,1.608200014,-0.196099967,9.943899766
1.683E+18,15.73705811,0.361499995,0.542100012,0.270899981,,,1.207399964,-0.620499969,9.712200165,,,786,1.568899959,-0.078399956,9.983100146
1.683E+18,15.75705811,0.469699979,0.394099981,0.43629998,,,1.197299957,-0.619599998,9.713500023,,,787,1.666999936,-0.225500017,10.1498
1.683E+18,15.77705811,0.689700007,0.397299975,0.846699953,,,1.183300018,-0.622799993,9.715000153,,,788,1.873000026,-0.225500017,10.56170011
1.683E+18,15.79705811,0.840999961,0.426599979,1.403399944,,,1.159500003,-0.632499993,9.717199326,,,789,2.000499964,-0.205900013,11.12059927
1.683E+18,15.81705811,0.917499959,0.649100006,2.009299994,,,1.131999969,-0.649100006,9.719399452,,,790,2.049499929,0,11.72869945
1.683E+18,15.83705811,0.905099988,0.682099998,2.762899876,,,1.105199933,-0.672299981,9.720899582,,,791,2.010299921,0.009800017,12.48379946
1.683E+18,15.85705811,1.014400005,0.502099991,3.457899809,,,1.084100008,-0.688499987,9.722099304,,,792,2.098500013,-0.186399996,13.17999911
1.683E+18,15.87705811,1.24029994,0.2245,4.701600075,,,1.064199924,-0.695199966,9.723899841,,,793,2.304499865,-0.470699966,14.42549992
1.683E+18,15.89705811,1.166100025,0.0548,5.404599667,,,1.030499935,-0.701999962,9.726999283,,,794,2.19659996,-0.647199962,15.13159895
1.683E+18,15.91705811,1.195599914,-0.168599993,4.69659996,,,1.010800004,-0.704099953,9.728899956,,,795,2.206399918,-0.872699946,14.42549992
1.683E+18,15.93705811,1.146899939,-0.465599984,3.940499783,,,1.010499954,-0.691399992,9.729899406,,,796,2.157399893,-1.156999975,13.67039919
1.683E+18,15.95705811,1.165199995,-0.604099989,3.166199923,,,1.021600008,-0.680399954,9.729499817,,,797,2.186800003,-1.284499943,12.89569974
1.683E+18,15.97705811,0.852400005,-0.480999976,1.794199944,,,1.040199995,-0.666299999,9.728499413,,,798,1.8926,-1.147299975,11.52269936
1.683E+18,15.9970564,0.094299994,-0.681699991,0.333900005,,,1.062799931,-0.642099977,9.72769928,,,799,1.157099925,-1.323799968,10.06159928
1.683E+18,16.01705811,-0.663100004,-0.818099976,-1.658499956,,,1.074999928,-0.593999982,9.729399681,,,800,0.411899924,-1.412099957,8.070899725
1.683E+18,16.03705811,-0.825699985,-1.083099961,-2.612499952,,,1.080699921,-0.53490001,9.732199669,,,801,0.254999936,-1.617999971,7.119699717
1.683E+18,16.05706104,-0.708899975,-0.82979995,-2.547099829,,,1.071699977,-0.493999988,9.735300064,,,802,0.362800002,-1.323799938,7.188200235
1.683E+18,16.07705811,-0.509899974,-0.470899999,-2.412299871,,,1.059100032,-0.470399976,9.73789978,,,803,0.549200058,-0.941299975,7.325599909
1.683E+18,16.09705811,-0.585399985,-0.36649999,-2.609899998,,,1.056100011,-0.447399974,9.739299774,,,804,0.470700026,-0.813899964,7.129399776
1.683E+18,16.11705811,-0.586399972,-0.362800002,-2.375499964,,,1.057099938,-0.421700001,9.740300179,,,805,0.470699966,-0.784500003,7.364800215
1.683E+18,16.13705811,-0.497799993,-0.144199997,-1.994899988,,,1.046999931,-0.404799998,9.742099762,,,806,0.549199939,-0.548999995,7.747199774
1.683E+18,16.15705811,-0.3134,0.027199998,-1.564399958,,,1.039099932,-0.399899989,9.743199348,,,807,0.725699931,-0.372699991,8.178799391
1.683E+18,16.17705811,-0.308099985,0.035,-1.310099959,,,1.033800006,-0.397799999,9.743800163,,,808,0.725700021,-0.362799998,8.433700204
1.683E+18,16.19705811,-0.377099991,0.0876,-1.52609992,,,1.034099936,-0.3917,9.744099617,,,809,0.656999946,-0.304099999,8.217999697
1.683E+18,16.21705811,-0.509299994,0.091699995,-1.573799968,,,1.048599958,-0.385899991,9.742699623,,,810,0.539299965,-0.294199996,8.168899655
1.683E+18,16.23705811,-0.719899952,0.191,-1.463199973,,,1.072999954,-0.387099981,9.739999771,,,811,0.353100002,-0.196099982,8.276799798
1.683E+18,16.25705811,-0.960199952,0.221599996,-1.167299986,,,1.087599993,-0.388399988,9.738399506,,,812,0.127400041,-0.166799992,8.57109952
1.683E+18,16.27705811,-1.261600018,0.201099992,-1.097899914,,,1.094900012,-0.387400001,9.737599373,,,813,-0.166700006,-0.186300009,8.639699459
1.683E+18,16.29705811,-1.261500001,0.207099989,-0.812599957,,,1.104599953,-0.383599997,9.736599922,,,814,-0.156900048,-0.176500008,8.923999965
1.683E+18,16.31705811,-1.040699959,0.175099999,-0.557200015,,,1.109399915,-0.380999982,9.736199379,,,815,0.068699956,-0.205899984,9.178999364
1.683E+18,16.33705811,-0.805499971,0.114799999,-0.477599978,,,1.119300008,-0.379599988,9.735099792,,,816,0.313800037,-0.26479999,9.257499814
1.683E+18,16.35705811,-0.62439996,0.0933,-0.535899997,,,1.124499917,-0.377700001,9.734600067,,,817,0.500099957,-0.284400001,9.19870007
1.683E+18,16.37705811,-0.522599995,0.143999994,-0.418599993,,,1.120800018,-0.379399985,9.734899521,,,818,0.598200023,-0.235399991,9.316299528
1.683E+18,16.39705811,-0.417999983,0.335999995,-0.291700006,,,1.114300013,-0.38499999,9.735499382,,,819,0.69630003,-0.048999995,9.443799376
1.683E+18,16.41705811,-0.385399997,0.4833,-0.173999995,,,1.111099958,-0.395099998,9.7354002,,,820,0.725699961,0.088200003,9.561400205
1.683E+18,16.43705811,-0.357899994,0.56099999,-0.153699994,,,1.112999916,-0.404100001,9.734799385,,,821,0.755099922,0.156899989,9.581099391
1.683E+18,16.45705811,-0.523299992,0.644699991,-0.271400005,,,1.111699939,-0.409399986,9.734799385,,,822,0.588399947,0.235300004,9.46339938
1.683E+18,16.47705811,-0.551499963,0.710599959,-0.0162,,,1.110399961,-0.416399986,9.734600067,,,823,0.558899999,0.294199973,9.718400067
1.683E+18,16.4970564,-0.358799994,0.866799951,0.552100003,,,1.104099989,-0.425499976,9.734899521,,,824,0.745299995,0.441299975,10.28699952
1.683E+18,16.5170564,-0.159199998,0.904599965,1.24729991,,,1.090899944,-0.433799982,9.736100197,,,825,0.931699947,0.470799983,10.98340011
1.683E+18,16.53705811,0.088799998,0.842799962,1.716899991,,,1.078099966,-0.440699995,9.737199783,,,826,1.166899964,0.402099967,11.45409977
1.683E+18,16.55705811,0.425899982,0.755099952,1.97149992,,,1.074399948,-0.441299975,9.737599373,,,827,1.500299931,0.313799977,11.70909929
1.683E+18,16.57705811,0.462499976,0.771799982,2.118700027,,,1.077000022,-0.438299984,9.737400055,,,828,1.539499998,0.333499998,11.85610008
1.683E+18,16.5970564,0.49939999,0.683799982,2.600199938,,,1.089100003,-0.428799987,9.736499786,,,829,1.588499993,0.254999995,12.33669972
1.683E+18,16.61705811,0.458599985,0.58039999,2.894999981,,,1.100600004,-0.413699985,9.735899925,,,830,1.559199989,0.166700006,12.63089991
1.683E+18,16.63705811,0.594500005,0.268999994,2.574199915,,,1.131399989,-0.396499991,9.732999802,,,831,1.725899994,-0.127499998,12.30719972
1.683E+18,16.65705811,0.822399974,-0.039099999,3.233500004,,,1.158499956,-0.372699976,9.730799675,,,832,1.98089993,-0.411799975,12.96429968
1.683E+18,16.67705811,0.974099994,-0.159400001,3.411399841,,,1.173499942,-0.360300004,9.729499817,,,833,2.147599936,-0.519700006,13.14089966
1.683E+18,16.69705811,0.918299973,-0.078599997,3.031800032,,,1.199899912,-0.352799982,9.726499557,,,834,2.118199885,-0.431399979,12.75829959
1.683E+18,16.71705811,0.50940001,-0.0462,2.143699884,,,1.236099958,-0.345999986,9.72219944,,,835,1.745499969,-0.392199986,11.86589932
1.683E+18,16.7370564,0.109499998,-0.070099995,0.571699977,,,1.29279995,-0.331900001,9.715299606,,,836,1.402299948,-0.401999995,10.28699958
1.683E+18,16.75705811,-0.236299992,-0.345699996,-1.037199974,,,1.364099979,-0.31129998,9.706299782,,,837,1.127799988,-0.656999975,8.669099808
1.683E+18,16.77705811,-0.290600002,-0.731299996,-1.949000001,,,1.437999964,-0.288499981,9.696299553,,,838,1.147399962,-1.019799978,7.747299552
1.683E+18,16.79705811,-0.3847,-0.870899975,-1.815099955,,,1.483099937,-0.2764,9.689899445,,,839,1.098399937,-1.147299975,7.87479949
1.683E+18,16.81705811,-0.516799986,-0.538899958,-0.823699951,,,1.487699986,-0.284799993,9.688899994,,,840,0.970899999,-0.823699951,8.865200043
1.683E+18,16.83705811,-0.631699979,-0.291099995,0.105099998,,,1.465199947,-0.306999981,9.691599846,,,841,0.833499968,-0.598099977,9.796699844
1.683E+18,16.85705811,-0.390699983,-0.352200001,0.180299997,,,1.439999938,-0.324399978,9.694899559,,,842,1.049299955,-0.676599979,9.875199556
1.683E+18,16.87705811,-0.049999997,-0.403899997,-0.243499994,,,1.422899961,-0.331499994,9.697099686,,,843,1.372899964,-0.735399991,9.453599691
1.683E+18,16.89705811,-0.054199997,-0.444700003,-0.695199966,,,1.417299986,-0.339699984,9.697699547,,,844,1.363099989,-0.784399986,9.00249958
1.683E+18,16.91705811,-0.322299987,-0.496099979,-1.235199928,,,1.41079998,-0.347199976,9.698399544,,,845,1.088499993,-0.843299955,8.463199615
1.683E+18,16.93705811,-0.460399985,-0.646099985,-1.589299917,,,1.401899934,-0.354099989,9.699399948,,,846,0.941499949,-1.000199974,8.110100031
1.683E+18,16.95705811,-0.515699983,-0.70449996,-1.855599999,,,1.388499975,-0.364399999,9.701000214,,,847,0.872799993,-1.068899959,7.845400214
1.683E+18,16.97705811,-0.408199996,-0.588800013,-1.995000005,,,1.369300008,-0.381999999,9.703000069,,,848,0.961100012,-0.970800012,7.708000064
1.683E+18,16.99705811,-0.206699997,-0.254000008,-1.761899948,,,1.344299912,-0.412799984,9.705200195,,,849,1.137599915,-0.666799992,7.943300247
1.683E+18,17.01705811,0.0559,0.0515,-1.47939992,,,1.316900015,-0.453500003,9.70720005,,,850,1.372800015,-0.402000003,8.227800131
1.683E+18,17.03705811,0.221199989,0.157899991,-1.314599991,,,1.288900018,-0.491299987,9.70909977,,,851,1.510100007,-0.333399996,8.394499779
1.683E+18,17.05705811,0.208700001,0.118899994,-1.296999931,,,1.262199998,-0.520999968,9.711099625,,,852,1.470899999,-0.402099974,8.414099693
1.683E+18,17.07705811,0.32159999,0.14289999,-1.161499977,,,1.237499952,-0.544999957,9.712900162,,,853,1.559099942,-0.402099967,8.551400185
1.683E+18,17.0970564,0.58099997,0.259200007,-0.731399953,,,1.213500023,-0.573000014,9.714300156,,,854,1.794499993,-0.313800007,8.982900202
1.683E+18,17.11705811,0.853699982,0.367399991,-0.32979998,,,1.195799947,-0.602800012,9.714699745,,,855,2.049499929,-0.235400021,9.384899765
1.683E+18,17.13705811,0.81309998,0.362699986,0.071499996,,,1.177600026,-0.627499998,9.715399742,,,856,1.990700006,-0.264800012,9.786899738
1.683E+18,17.15705811,0.652199984,0.361399978,0.227799997,,,1.161899924,-0.645799994,9.716099739,,,857,1.814099908,-0.284400016,9.943899736
1.683E+18,17.1770564,0.670099974,0.497799993,0.620299995,,,1.153800011,-0.664499998,9.715799332,,,858,1.823899984,-0.166700006,10.33609933
1.683E+18,17.19705811,0.747699976,0.68720001,1.179799914,,,1.144899964,-0.68720001,9.715299606,,,859,1.89259994,0,10.89509952
1.683E+18,17.21705811,0.693699956,0.814999998,1.66989994,,,1.130200028,-0.707099974,9.715499878,,,860,1.823899984,0.107900023,11.38539982
1.683E+18,17.2370564,0.630299985,0.945499957,1.747499943,,,1.115199924,-0.719999969,9.716300011,,,861,1.745499909,0.225499988,11.46379995
1.683E+18,17.25705811,0.58919996,1.000999928,1.76669991,,,1.107200027,-0.726499975,9.716799736,,,862,1.696399987,0.274499953,11.48349965
1.683E+18,17.27705811,0.737399995,0.737999976,2.335500002,,,1.106099963,-0.728199959,9.716799736,,,863,1.843499959,0.009800017,12.05229974
