time,seconds_elapsed,z,y,x,,,z,y,x,,t,z,y,x
1.683E+18,0.036427246,1.848099947,-0.216600001,-0.120899998,,,8.615499496,4.492300034,1.327099919,,1,10.46359944,4.275700033,1.206199922
1.683E+18,0.056411621,1.848099947,-0.216600001,-0.120899998,,,8.615499496,4.492300034,1.327099919,,2,10.46359944,4.275700033,1.206199922
1.683E+18,0.076417969,1.848099947,-0.216600001,-0.120899998,,,8.615499496,4.492300034,1.327099919,,3,10.46359944,4.275700033,1.206199922
1.683E+18,0.096413086,0.0207,-0.0242,0.191699997,,,1.048099995,-1.221199989,9.673600197,,4,1.068799995,-1.245399989,9.865300193
1.683E+18,0.116413086,0.068899997,-0.0051,0.240799993,,,1.049000025,-1.220600009,9.673600197,,5,1.117900021,-1.225700009,9.91440019
1.683E+18,0.136413086,0.141399994,-0.0061,0.192299992,,,1.054999948,-1.219699979,9.673099518,,6,1.196399942,-1.225799979,9.86539951
1.683E+18,0.156413086,0.121399999,0.0195,0.143899992,,,1.065099955,-1.215999961,9.672499657,,7,1.186499953,-1.19649996,9.816399649
1.683E+18,0.176413086,0.171099991,0.0241,0.135600001,,,1.084100008,-1.210699916,9.670999527,,8,1.255199999,-1.186599916,9.806599528
1.683E+18,0.196413086,0.140199989,0.0352,0.117299996,,,1.105099916,-1.202199936,9.669699669,,9,1.245299906,-1.166999936,9.786999665
1.683E+18,0.216413086,0.037099998,-0.0137,0.107999995,,,1.110199928,-1.202199936,9.669099808,,10,1.147299927,-1.215899936,9.777099803
1.683E+18,0.236413086,0.074499995,-0.0058,0.118899994,,,1.121799946,-1.200299978,9.668000221,,11,1.19629994,-1.206099978,9.786900215
1.683E+18,0.256411621,0.0647,-0.0337,0.1655,,,1.161000013,-1.22149992,9.660699844,,12,1.225700013,-1.25519992,9.826199844
1.683E+18,0.276413086,0.1171,0.033199999,0.14639999,,,1.177299976,-1.209999919,9.660200119,,13,1.294399977,-1.176799919,9.806600109
1.683E+18,0.296413086,0.1127,0.032199997,0.146799996,,,1.191499949,-1.199199915,9.659799576,,14,1.304199949,-1.166999917,9.806599572
1.683E+18,0.316414795,0.110399999,0.0128,0.147100002,,,1.20359993,-1.189599991,9.659500122,,15,1.313999929,-1.176799991,9.806600124
1.683E+18,0.336413086,0.108499996,0.0713,0.186499998,,,1.215299964,-1.179399967,9.65929985,,16,1.32379996,-1.108099967,9.845799848
1.683E+18,0.356413086,0.030299999,-0.046799999,0.274699986,,,1.224799991,-1.169199944,9.65929985,,17,1.255099989,-1.215999942,9.933999836
1.683E+18,0.376413086,0.200199991,-0.072899997,0.166999996,,,1.241299987,-1.152799964,9.659199715,,18,1.441499978,-1.225699961,9.82619971
1.683E+18,0.396413086,0.288300008,-0.064199999,-0.0178,,,1.270799994,-1.132099986,9.657799721,,19,1.559100002,-1.196299985,9.639999721
1.683E+18,0.416413086,0.201999992,-0.166199997,-0.162900001,,,1.298299909,-1.118399978,9.65569973,,20,1.500299901,-1.284599975,9.492799729
1.683E+18,0.436413086,0.304899991,-0.061099999,-0.169699997,,,1.322899938,-1.11559999,9.652699471,,21,1.627799928,-1.176699989,9.482999474
1.683E+18,0.456413086,0.069600001,0.0092,0.075599998,,,1.322899938,-1.117399931,9.652500153,,22,1.392499939,-1.108199931,9.728100151
1.683E+18,0.476413086,-0.0372,0.066699997,0.122999996,,,1.312099934,-1.115999937,9.654099464,,23,1.274899933,-1.04929994,9.77709946
1.683E+18,0.496413086,-0.145400003,0.143600002,0.149599999,,,1.29279995,-1.114400029,9.656899452,,24,1.147399947,-0.970800027,9.806499451
1.683E+18,0.516413086,0.0046,-0.082199998,0.167300001,,,1.270099998,-1.123899937,9.658800125,,25,1.274699998,-1.206099935,9.826100126
1.683E+18,0.536424072,0.162199989,0.0513,0.154299989,,,1.240100026,-1.129999995,9.661999702,,26,1.402300015,-1.078699995,9.816299692
1.683E+18,0.556413086,0.161799997,0.266499996,-0.105499998,,,1.201300025,-1.129499912,9.666999817,,27,1.363100022,-0.862999916,9.561499819
1.683E+18,0.576413086,-0.0055,0.041200001,0.216799989,,,1.162699938,-1.159099936,9.668199539,,28,1.157199938,-1.117899936,9.884999529
1.683E+18,0.596413086,0.141399994,-0.1708,0.307999998,,,1.143199921,-1.202000022,9.665299416,,29,1.284599915,-1.372800022,9.973299414
1.683E+18,0.616413086,0.130199999,-0.042599998,0.093899995,,,1.125,-1.232200027,9.663599968,,30,1.255199999,-1.274800025,9.757499963
1.683E+18,0.636413086,-0.015699999,-0.0083,-0.139300004,,,1.104200006,-1.266499996,9.661600113,,31,1.088500006,-1.274799996,9.522300109
1.683E+18,0.656413086,-0.435699999,-0.194099993,-0.280900002,,,1.082899928,-1.325899959,9.656000137,,32,0.647199929,-1.519999951,9.375100136
1.683E+18,0.676413086,-0.546199977,-0.468799978,-0.0447,,,1.065899968,-1.413999915,9.645400047,,33,0.519699991,-1.882799894,9.600700047
1.683E+18,0.696413086,-0.17369999,-0.538100004,0.440699995,,,1.066100001,-1.511399984,9.630599976,,34,0.892400011,-2.049499989,10.07129997
1.683E+18,0.716413086,0.0051,-0.0211,0.534399986,,,1.093199968,-1.58709991,9.615399361,,35,1.098299968,-1.608199909,10.14979935
1.683E+18,0.736411621,-0.203599989,0.308599979,0.251599997,,,1.125399947,-1.632499933,9.604000092,,36,0.921799958,-1.323899955,9.855600089
1.683E+18,0.756413086,-0.172099993,0.0056,-0.052999999,,,1.172399998,-1.653100014,9.594900131,,37,1.000300005,-1.647500014,9.541900132
1.683E+18,0.776413086,-0.022399999,-0.167899996,-0.068799995,,,1.199199915,-1.656099916,9.591099739,,38,1.176799916,-1.823999912,9.522299744
1.683E+18,0.796413086,0.305299997,-0.159899995,-0.036899999,,,1.234300017,-1.644400001,9.588600159,,39,1.539600015,-1.804299995,9.55170016
1.683E+18,0.816413086,0.302599996,-0.229499996,0.0062,,,1.26639998,-1.64349997,9.584599495,,40,1.568999976,-1.872999966,9.590799495
1.683E+18,0.836411621,0.037499998,-0.1875,0.1219,,,1.29610002,-1.665899992,9.576700211,,41,1.333600018,-1.853399992,9.69860021
1.683E+18,0.856413086,0.190200001,-0.066399999,0.290999979,,,1.329699993,-1.708499908,9.564599991,,42,1.519899994,-1.774899907,9.85559997
1.683E+18,0.876413086,0.146799996,0.216399997,0.172700003,,,1.333899975,-1.756099939,9.555399895,,43,1.480699971,-1.539699942,9.728099898
1.683E+18,0.896413086,-0.0037,0.343499988,0.4639,,,1.317799926,-1.804699898,9.548600197,,44,1.314099926,-1.461199909,10.0125002
1.683E+18,0.916413086,-0.074900001,0.478799999,0.289499998,,,1.281199932,-1.841899991,9.546500206,,45,1.206299931,-1.363099992,9.836000204
1.683E+18,0.936413086,-0.720600009,0.550399959,-0.1175,,,1.24029994,-1.893899918,9.541699409,,46,0.519699931,-1.343499959,9.42419941
1.683E+18,0.956413086,-0.263699979,0.0089,0.309799999,,,1.224699974,-1.9799999,9.526199341,,47,0.960999995,-1.9710999,9.83599934
1.683E+18,0.976413086,0.607199967,-0.333599985,0.818399966,,,1.236400008,-2.059099913,9.507899284,,48,1.843599975,-2.392699897,10.32629925
1.683E+18,0.996413086,0.540300012,-0.167300001,0.618499994,,,1.234599948,-2.088099957,9.501799583,,49,1.77489996,-2.255399957,10.12029958
1.683E+18,1.016413086,0.401899993,0.199699998,0.370199978,,,1.235700011,-2.072700024,9.505000114,,50,1.637600005,-1.873000026,9.875200093
1.683E+18,1.036424072,-0.040399998,0.232799992,-0.14379999,,,1.246699929,-2.047100067,9.509200096,,51,1.206299931,-1.814300075,9.365400106
1.683E+18,1.056413086,-0.181299999,-0.173500001,-0.119999997,,,1.269899964,-2.052599907,9.504899979,,52,1.088599965,-2.226099908,9.384899981
1.683E+18,1.076413086,-0.035,-0.532400012,0.082599998,,,1.280399919,-2.076099873,9.498399734,,53,1.245399918,-2.608499885,9.580999732
1.683E+18,1.096413086,-0.255199999,-0.259000003,0.435499996,,,1.265299916,-2.084699869,9.49849987,,54,1.010099918,-2.343699872,9.933999866
1.683E+18,1.116413086,-0.0054,-0.098099999,0.199599996,,,1.270399928,-2.07889986,9.499099731,,55,1.264999928,-2.17699986,9.698699728
1.683E+18,1.136413086,-0.079700001,-0.189499989,0.07,,,1.27609992,-2.065899849,9.501199722,,56,1.19639992,-2.255399838,9.571199723
1.683E+18,1.156413086,-0.159400001,-0.302899987,0.124399997,,,1.26759994,-2.050600052,9.505700111,,57,1.108199939,-2.353500038,9.630100109
1.683E+18,1.176413086,-0.065099999,-0.346199989,0.099699996,,,1.251699924,-2.03670001,9.510700226,,58,1.186599925,-2.3829,9.610400222
1.683E+18,1.196413086,0.0361,-0.372399986,0.1435,,,1.238600016,-2.020299911,9.515899658,,59,1.274700016,-2.392699897,9.659399658
1.683E+18,1.216413086,-0.15609999,-0.245199993,0.127700001,,,1.225000024,-2.000400066,9.521900177,,60,1.068900034,-2.24560006,9.649600178
1.683E+18,1.236413086,-0.205499992,-0.194600001,0.054099999,,,1.215600014,-1.98239994,9.526899338,,61,1.010100022,-2.176999941,9.580999337
1.683E+18,1.256413086,-0.143600002,-0.065399997,0.168899998,,,1.222299933,-1.96449995,9.529699326,,62,1.078699932,-2.029899947,9.698599324
1.683E+18,1.276413086,-0.158399999,-0.066399999,0.273200005,,,1.227299929,-1.943899989,9.533299446,,63,1.06889993,-2.010299988,9.806499451
1.683E+18,1.296413086,-0.319099993,-0.0491,0.254999995,,,1.211499929,-1.912099957,9.541799545,,64,0.892399937,-1.961199958,9.796799541
1.683E+18,1.316413086,-0.496999979,-0.224399999,-0.0195,,,1.193300009,-1.874199986,9.551599503,,65,0.69630003,-2.098599985,9.532099502
1.683E+18,1.336413086,-0.354399979,-0.13409999,-0.497499973,,,1.17809999,-1.846699953,9.558799744,,66,0.823700011,-1.980799943,9.061299771
1.683E+18,1.356413086,0.091899998,-0.300999999,0.0572,,,1.143700004,-1.84649992,9.562999725,,67,1.235600002,-2.147499919,9.620199725
1.683E+18,1.376413086,0.173799992,-0.157499999,0.469399989,,,1.120599985,-1.862599969,9.562699318,,68,1.294399977,-2.020099968,10.03209931
1.683E+18,1.396413086,-0.0104,0.0231,0.428499997,,,1.098899961,-1.866699934,9.564399719,,69,1.08849996,-1.843599934,9.992899716
1.683E+18,1.416416504,-0.075499997,0.062199999,0.265199989,,,1.075699925,-1.847000003,9.570799828,,70,1.000199929,-1.784800004,9.835999817
1.683E+18,1.436413086,0.038199998,0.039899997,0.126599997,,,1.030699968,-1.814899921,9.581899643,,71,1.068899967,-1.774999924,9.70849964
1.683E+18,1.456413086,-0.2095,-0.144500002,0.066699997,,,0.993999958,-1.777499914,9.59280014,,72,0.784499958,-1.921999916,9.659500137
1.683E+18,1.476413086,-0.059299998,-0.194199994,0.135299996,,,0.951699972,-1.747399926,9.602600098,,73,0.892399974,-1.94159992,9.737900093
1.683E+18,1.496413086,0.064599998,-0.088699996,0.127899989,,,0.915999949,-1.725499988,9.609999657,,74,0.980599947,-1.814199984,9.737899646
1.683E+18,1.516413086,0.044,-0.077599995,0.237799987,,,0.867899954,-1.707099915,9.617799759,,75,0.911899954,-1.784699909,9.855599746
1.683E+18,1.536424072,0.133599997,-0.0073,0.298899978,,,0.817599952,-1.689199924,9.62539959,,76,0.951199949,-1.696499924,9.924299568
1.683E+18,1.556413086,0.068099998,-0.0493,0.057799999,,,0.775200009,-1.676599979,9.631099701,,77,0.843300007,-1.725899979,9.6888997
1.683E+18,1.576413086,0.019099999,-0.1175,-0.054699998,,,0.735899985,-1.667299986,9.635799408,,78,0.754999984,-1.784799986,9.58109941
1.683E+18,1.596413086,-0.065399997,-0.061799999,0.028099999,,,0.692999959,-1.654299974,9.641200066,,79,0.627599962,-1.716099974,9.669300064
1.683E+18,1.616413086,-0.0145,-0.035499997,0.160300002,,,0.65200001,-1.641299963,9.646299362,,80,0.63750001,-1.67679996,9.806599364
1.683E+18,1.636413086,-0.105699994,-0.091600001,0.264599979,,,0.615700006,-1.634299994,9.649799347,,81,0.510000013,-1.725899994,9.914399326
1.683E+18,1.656413086,-0.231600001,-0.0484,0.33949998,,,0.574800014,-1.628399968,9.653299332,,82,0.343200013,-1.676799968,9.992799312
1.683E+18,1.676413086,-0.358899981,0.0069,0.238600001,,,0.53549999,-1.625,9.656199455,,83,0.176600009,-1.6181,9.894799456
1.683E+18,1.696413086,-0.116599999,-0.0069,0.148800001,,,0.518700004,-1.620899916,9.657799721,,84,0.402100004,-1.627799916,9.806599721
1.683E+18,1.716413086,0.026999999,0.033399999,0.068499997,,,0.512300014,-1.612299919,9.659599304,,85,0.539300013,-1.57889992,9.728099301
1.683E+18,1.736413086,-0.0167,-0.0148,0.075999998,,,0.497299999,-1.603199959,9.661899567,,86,0.480599999,-1.617999959,9.737899564
1.683E+18,1.756413086,-0.0079,-0.082199998,0.037099998,,,0.498199999,-1.604499936,9.661600113,,87,0.4903,-1.686699934,9.698700111
1.683E+18,1.776413086,-0.021199999,-0.040799998,0.047899999,,,0.511500001,-1.606599927,9.660599709,,88,0.490300002,-1.647399925,9.708499707
1.683E+18,1.796413086,0.040599998,-0.0036,0.30399999,,,0.50849998,-1.61439991,9.659399986,,89,0.549099978,-1.61799991,9.963399976
1.683E+18,1.816413086,-0.0438,0.028999999,0.323499978,,,0.494899988,-1.617699981,9.659599304,,90,0.451099988,-1.588699982,9.983099282
1.683E+18,1.836413086,-0.25029999,-0.293199986,0.035599999,,,0.485599995,-1.599399924,9.663099289,,91,0.235300004,-1.89259991,9.698699288
1.683E+18,1.856413086,-0.201799989,-0.0106,0.079899997,,,0.525399983,-1.617200017,9.657999992,,92,0.323599994,-1.627800017,9.737899989
1.683E+18,1.876413086,-0.278999984,-0.031799998,0.149999991,,,0.553600013,-1.674499989,9.646699905,,93,0.274600029,-1.706299987,9.796699896
1.683E+18,1.896413086,-0.162299991,0.039000001,0.084100001,,,0.564399958,-1.686499953,9.644000053,,94,0.402099967,-1.647499952,9.728100054
1.683E+18,1.916413086,-0.085900001,0.1479,0.0735,,,0.546799958,-1.687600017,9.644800186,,95,0.460899957,-1.539700016,9.718300186
1.683E+18,1.936413086,0.143999994,0.1184,0.45629999,,,0.522799969,-1.697299957,9.644399643,,96,0.666799963,-1.578899957,10.10069963
1.683E+18,1.956413086,0.163399994,0.069799997,0.24939999,,,0.503399968,-1.697699904,9.645400047,,97,0.666799963,-1.627899908,9.894800037
1.683E+18,1.976413086,0.342599988,-0.0021,0.0722,,,0.500699997,-1.694299936,9.646100044,,98,0.843299985,-1.696399936,9.718300045
1.683E+18,1.996413086,0.309599996,-0.105099998,0.082999997,,,0.504199982,-1.699199915,9.64509964,,99,0.813799977,-1.804299913,9.728099637
1.683E+18,2.016413086,0.342999995,-0.0506,0.057699997,,,0.529699981,-1.71449995,9.640999794,,100,0.872699976,-1.76509995,9.698699791
1.683E+18,2.036424072,0.45389998,0.152099997,0.145799994,,,0.585500002,-1.75059998,9.631299973,,101,1.039399981,-1.598499984,9.777099967
1.683E+18,2.056411621,0.185900003,0.186199993,0.224099994,,,0.637799978,-1.784699917,9.621699333,,102,0.823699981,-1.598499924,9.845799327
1.683E+18,2.076413086,-0.0484,0.203599989,0.1875,,,0.656399965,-1.792299986,9.618999481,,103,0.607999966,-1.588699996,9.806499481
1.683E+18,2.096413086,-0.035799999,0.136099994,0.1373,,,0.663500011,-1.783599973,9.620200157,,104,0.627700012,-1.647499979,9.757500157
1.683E+18,2.116413086,0.046799999,0.096099995,0.291999996,,,0.659099996,-1.773000002,9.62239933,,105,0.705899995,-1.676900007,9.914399326
1.683E+18,2.136413086,0.109699994,0.108599998,0.219999999,,,0.655099988,-1.756099939,9.625800133,,106,0.764799982,-1.647499941,9.845800132
1.683E+18,2.156413086,0.208299994,0.087899998,0.246299997,,,0.664299965,-1.735399961,9.628899574,,107,0.872599959,-1.647499964,9.875199571
1.683E+18,2.176413086,0.145699993,0.042599998,0.22299999,,,0.677999973,-1.709699988,9.632599831,,108,0.823699966,-1.66709999,9.855599821
1.683E+18,2.196413086,0.0069,0.030999999,0.139899999,,,0.689300001,-1.678499937,9.637299538,,109,0.696200001,-1.647499938,9.777199537
1.683E+18,2.216413086,-0.1131,-0.0579,0.135499999,,,0.701499999,-1.648299932,9.641599655,,110,0.588399999,-1.706199933,9.777099654
1.683E+18,2.236413086,-0.118299998,-0.071899995,0.063999996,,,0.716499984,-1.624599934,9.644499779,,111,0.598199986,-1.696499929,9.708499774
1.683E+18,2.256413086,-0.135999992,-0.167599991,0.120499998,,,0.724399984,-1.607299924,9.646800041,,112,0.588399991,-1.774899915,9.76730004
1.683E+18,2.276413086,-0.127399996,-0.159400001,0.030399999,,,0.725600004,-1.59589994,9.648599625,,113,0.598200008,-1.755299941,9.678999623
1.683E+18,2.296413086,0.015799999,-0.136600003,0.176699996,,,0.729399979,-1.589299917,9.649399757,,114,0.745199978,-1.72589992,9.826099753
1.683E+18,2.316413086,-0.102299996,-0.096799999,0.1655,,,0.729999959,-1.579999924,9.650899887,,115,0.627699964,-1.676799923,9.816399887
1.683E+18,2.336413086,-0.123299994,-0.086300001,0.164099991,,,0.731299996,-1.570899963,9.652299881,,116,0.608000003,-1.657199964,9.816399872
1.683E+18,2.356413086,-0.122199997,-0.152699992,0.065399997,,,0.74000001,-1.563399911,9.652899742,,117,0.617800012,-1.716099903,9.718299739
1.683E+18,2.376413086,-0.2051,-0.165099993,-0.157700002,,,0.754299998,-1.570599914,9.65059948,,118,0.549199998,-1.735699907,9.492899477
1.683E+18,2.396413086,0.0418,-0.037299998,0.0277,,,0.72299999,-1.580699921,9.651299477,,119,0.76479999,-1.617999919,9.678999476
1.683E+18,2.416413086,0.078599997,0.046699997,0.201799989,,,0.676400006,-1.586399913,9.653800011,,120,0.755000003,-1.539699916,9.855599999
1.683E+18,2.436413086,-0.043199997,-0.067900002,0.288800001,,,0.651199996,-1.589399934,9.654999733,,121,0.607999999,-1.657299936,9.943799734
1.683E+18,2.456413086,-0.0175,-0.081099994,0.297699988,,,0.645099998,-1.585999966,9.656000137,,122,0.627599997,-1.66709996,9.953700125
1.683E+18,2.476413086,0.0722,-0.141299993,0.207499996,,,0.643599987,-1.574699998,9.657899857,,123,0.715799987,-1.715999991,9.865399852
1.683E+18,2.496413086,0.0766,-0.171899989,0.185800001,,,0.639199972,-1.563699961,9.659999847,,124,0.715799972,-1.73559995,9.845799848
1.683E+18,2.516413086,0.166500002,-0.188799992,0.321799994,,,0.637600005,-1.556699991,9.66119957,,125,0.804100007,-1.745499983,9.982999563
1.683E+18,2.536424072,0.0766,-0.1065,0.32099998,,,0.639199972,-1.550799966,9.662099838,,126,0.715799972,-1.657299966,9.983099818
1.683E+18,2.556413086,-0.034600001,-0.091899998,0.144500002,,,0.652399957,-1.545699954,9.661999702,,127,0.617799956,-1.637599953,9.806499705
1.683E+18,2.576413086,-0.071800001,-0.083299994,0.076899998,,,0.669999957,-1.544499993,9.660999298,,128,0.598199956,-1.627799988,9.737899296
1.683E+18,2.596413086,-0.062799998,-0.071099997,0.165600002,,,0.670799971,-1.546899915,9.660599709,,129,0.607999973,-1.617999911,9.82619971
1.683E+18,2.616413086,-0.184599996,-0.0581,0.135600001,,,0.655399978,-1.550099969,9.661099434,,130,0.470799983,-1.608199969,9.796699435
1.683E+18,2.636413086,-0.185800001,-0.007,0.037299998,,,0.646699965,-1.55219996,9.661299706,,131,0.460899964,-1.55919996,9.698599704
1.683E+18,2.656413086,-0.087399997,-0.011899999,0.126299992,,,0.646399975,-1.556999922,9.660599709,,132,0.558999978,-1.568899921,9.786899701
1.683E+18,2.676413086,-0.042199999,-0.0167,0.273900002,,,0.640399992,-1.562099934,9.660200119,,133,0.598199993,-1.578799933,9.934100121
1.683E+18,2.696413086,-0.0076,-0.017199999,0.145999998,,,0.635299981,-1.56159997,9.660599709,,134,0.627699981,-1.578799969,9.806599706
1.683E+18,2.716413086,0.116999999,-0.064999998,0.0385,,,0.638000011,-1.562799931,9.660200119,,135,0.75500001,-1.627799928,9.698700119
1.683E+18,2.736413086,0.018099999,-0.079499997,0.068799995,,,0.638899982,-1.567899942,9.65929985,,136,0.656999981,-1.64739994,9.728099845
1.683E+18,2.756413086,0.0018,-0.1228,0.098899998,,,0.635499954,-1.573599935,9.658599854,,137,0.637299954,-1.696399935,9.757499851
1.683E+18,2.776413086,0.031599998,-0.093099996,0.080299996,,,0.62529999,-1.583799958,9.657599449,,138,0.656899989,-1.676899955,9.737899445
1.683E+18,2.796413086,0.164299995,-0.0274,0.1017,,,0.610300004,-1.600399971,9.655799866,,139,0.774599999,-1.627799971,9.757499866
1.683E+18,2.816413086,0.241399989,0.027799999,0.172499999,,,0.601799965,-1.616499901,9.653699875,,140,0.843199953,-1.588699901,9.826199874
1.683E+18,2.836413086,0.090499997,0.022599999,0.272599995,,,0.595899999,-1.630899906,9.65170002,,141,0.686399996,-1.608299907,9.924300015
1.683E+18,2.856413086,0.0111,0.0118,0.146699995,,,0.59679997,-1.639699936,9.650099754,,142,0.607899969,-1.627899936,9.796799749
1.683E+18,2.876413086,0.024,-0.0482,-0.0083,,,0.603500009,-1.648199916,9.648200035,,143,0.627500009,-1.696399916,9.639900035
1.683E+18,2.896413086,0.071199998,-0.0062,0.0625,,,0.605300009,-1.66079998,9.645999908,,144,0.676500008,-1.66699998,9.708499908
1.683E+18,2.916413086,0.091199994,0.0513,0.173599988,,,0.604900002,-1.679199934,9.642799377,,145,0.696099997,-1.627899934,9.816399366
1.683E+18,2.936413086,0.154599994,0.069399998,0.196699992,,,0.610199988,-1.697299957,9.639299393,,146,0.764799982,-1.62789996,9.835999385
1.683E+18,2.956413086,0.208399996,0.034699999,0.160300002,,,0.6153,-1.711599946,9.636400223,,147,0.823699996,-1.676899947,9.796700224
1.683E+18,2.976413086,0.19749999,0.0744,0.171999991,,,0.616299987,-1.722000003,9.63449955,,148,0.813799977,-1.647600003,9.806499541
1.683E+18,2.996413086,0.0792,0.046599999,0.174099997,,,0.616999984,-1.733299971,9.632399559,,149,0.696199983,-1.686699972,9.806499556
1.683E+18,3.016413086,0.062199999,0.046699997,0.097899996,,,0.62409997,-1.743299961,9.630199432,,150,0.686299969,-1.696599964,9.728099428
1.683E+18,3.036424072,0.0062,0.098799996,0.1105,,,0.631099999,-1.756099939,9.627399445,,151,0.637299999,-1.657299943,9.737899445
1.683E+18,3.056413086,0.0199,0.085199997,0.251100004,,,0.636999965,-1.771899939,9.624099731,,152,0.656899964,-1.686699942,9.875199735
1.683E+18,3.076413086,-0.089199997,0.045299999,0.262699991,,,0.638399959,-1.781099916,9.622300148,,153,0.549199961,-1.735799916,9.885000139
1.683E+18,3.096413086,0.063599996,0.061699998,0.164299995,,,0.642399967,-1.777899981,9.622699738,,154,0.705999963,-1.716199983,9.786999732
1.683E+18,3.116413086,-0.063999996,0.022399999,0.171599999,,,0.632699966,-1.768000007,9.625100136,,155,0.568699971,-1.745600007,9.796700135
1.683E+18,3.136413086,0.046599999,-0.0309,0.179799989,,,0.620099962,-1.763599992,9.626699448,,156,0.666699961,-1.794499991,9.806499436
1.683E+18,3.156413086,0.035299998,-0.0524,0.169100001,,,0.611899972,-1.761699915,9.627599716,,157,0.64719997,-1.814099915,9.796699718
1.683E+18,3.176413086,0.057999998,-0.033099998,0.159099996,,,0.608699977,-1.761399984,9.627900124,,158,0.666699976,-1.794499982,9.78700012
1.683E+18,3.196413086,0.117699996,-0.003,0.208199993,,,0.607899964,-1.762099981,9.627799988,,159,0.725599959,-1.765099981,9.835999981
1.683E+18,3.216413086,0.033099998,0.0095,0.208399996,,,0.604200006,-1.764799953,9.62749958,,160,0.637300003,-1.755299953,9.835899577
1.683E+18,3.236413086,-0.023899999,0.047899999,0.169,,,0.602499962,-1.764099956,9.627799988,,161,0.578599963,-1.716199957,9.796799988
1.683E+18,3.256413086,-0.051999997,0.009,0.159099996,,,0.601199985,-1.764400005,9.627799988,,162,0.549199987,-1.755400006,9.786899984
1.683E+18,3.276413086,-0.0275,-0.070099995,0.089999996,,,0.596300006,-1.763599992,9.628299713,,163,0.568800006,-1.833699986,9.718299709
1.683E+18,3.296413086,0.041099999,-0.031399999,0.079499997,,,0.586399972,-1.763099909,9.62899971,,164,0.627499972,-1.794499908,9.708499707
1.683E+18,3.316413086,0.114499994,0.029099999,0.177000001,,,0.571799994,-1.764899969,9.629499435,,165,0.686299987,-1.73579997,9.806499436
1.683E+18,3.336413086,0.100999996,0.02,0.244899988,,,0.555999994,-1.765599966,9.630299568,,166,0.65699999,-1.745599966,9.875199556
1.683E+18,3.356413086,0.162799999,-0.022699999,0.214099988,,,0.543200016,-1.761999965,9.631699562,,167,0.706000015,-1.784699963,9.84579955
1.683E+18,3.376413086,0.251199991,0.0392,0.173099995,,,0.533199966,-1.755399942,9.633500099,,168,0.784399956,-1.716199942,9.806600094
1.683E+18,3.396413086,0.209099993,0.045199998,0.171999991,,,0.526300013,-1.75150001,9.63449955,,169,0.735400006,-1.706300013,9.806499541
1.683E+18,3.416413086,0.118499994,-0.0085,0.092799999,,,0.528699994,-1.746799946,9.635299683,,170,0.647199988,-1.755299945,9.728099681
1.683E+18,3.436413086,0.1219,-0.110399999,0.132299989,,,0.5449,-1.742999911,9.635099411,,171,0.6668,-1.85339991,9.7673994
1.683E+18,3.456413086,0.105999999,-0.091299996,0.103699997,,,0.560799956,-1.742399931,9.634200096,,172,0.666799955,-1.833699927,9.737900093
1.683E+18,3.476413086,0.0177,-0.166099995,0.134299994,,,0.570599973,-1.746099949,9.63299942,,173,0.588299973,-1.912199944,9.767299414
1.683E+18,3.496413086,0.171399996,0.0647,0.175300002,,,0.583599985,-1.751399994,9.631299973,,174,0.75499998,-1.686699994,9.806599975
1.683E+18,3.516413086,0.071499996,-0.049599998,0.217599988,,,0.595200002,-1.764499903,9.628199577,,175,0.666699998,-1.8140999,9.845799565
1.683E+18,3.536424072,0.226699993,-0.023399999,0.170499995,,,0.60679996,-1.771099925,9.626199722,,176,0.833499953,-1.794499924,9.796699718
1.683E+18,3.556413086,0.135499999,-0.066699997,0.072499998,,,0.619499981,-1.76699996,9.626199722,,177,0.75499998,-1.833699957,9.69869972
1.683E+18,3.576413086,0.030599998,-0.0403,0.082199998,,,0.626399994,-1.764099956,9.626299858,,178,0.656999992,-1.804399956,9.708499856
1.683E+18,3.596413086,-0.1127,-0.0462,0.159400001,,,0.622699976,-1.75819993,9.627599716,,179,0.509999976,-1.80439993,9.786999717
1.683E+18,3.616413086,-0.192900002,-0.072899997,0.196799994,,,0.614600003,-1.750999928,9.6293993,,180,0.421700001,-1.823899925,9.826199293
1.683E+18,3.636413086,-0.039499998,-0.131799996,0.177399993,,,0.618099988,-1.750899911,9.629199982,,181,0.578599989,-1.882699907,9.806599975
1.683E+18,3.656413086,0.0163,-0.063099995,0.121199995,,,0.630899966,-1.760899901,9.626599312,,182,0.647199966,-1.823999897,9.747799307
1.683E+18,3.676413086,-0.0678,0.016099999,0.133299991,,,0.636599958,-1.771499991,9.624199867,,183,0.568799958,-1.755399993,9.757499859
1.683E+18,3.696413086,-0.184699997,-0.0155,0.252299994,,,0.635800004,-1.778999925,9.622900009,,184,0.451100007,-1.794499924,9.875200003
1.683E+18,3.716413086,-0.229999989,-0.022,0.262499988,,,0.632099986,-1.782299995,9.622499466,,185,0.402099997,-1.804299995,9.884999454
1.683E+18,3.736413086,-0.19659999,-0.0814,0.183699995,,,0.627999961,-1.781799912,9.622900009,,186,0.431399971,-1.863199912,9.806600004
1.683E+18,3.756413086,-0.109399997,-0.043499999,0.074999996,,,0.619300008,-1.780399919,9.623700142,,187,0.509900011,-1.823899917,9.698700137
1.683E+18,3.776413086,0.0132,-0.049999997,0.172700003,,,0.604600012,-1.783800006,9.623999596,,188,0.617800012,-1.833800003,9.796699598
1.683E+18,3.796413086,0.088799998,0.063299999,0.2315,,,0.587700009,-1.789199948,9.624099731,,189,0.676500008,-1.72589995,9.855599731
1.683E+18,3.816413086,0.061899997,0.0568,0.280399978,,,0.575399995,-1.792599916,9.624199867,,190,0.637299992,-1.735799916,9.904599845
1.683E+18,3.836413086,-0.090599999,-0.121099994,0.093599997,,,0.571099997,-1.791099906,9.624699593,,191,0.480499998,-1.9121999,9.71829959
1.683E+18,3.856413086,0.0089,-0.056199998,0.044299997,,,0.579400003,-1.787299991,9.624899864,,192,0.588300003,-1.843499988,9.669199862
1.683E+18,3.876413086,-0.055,-0.0418,0.202399999,,,0.584599972,-1.79189992,9.623700142,,193,0.529599972,-1.833699919,9.826100141
1.683E+18,3.896416504,-0.0034,0.041299999,0.203199998,,,0.581999958,-1.796700001,9.623000145,,194,0.578599958,-1.755400002,9.826200143
1.683E+18,3.916413086,0.088399999,0.0133,0.174400002,,,0.588199973,-1.798099995,9.62239933,,195,0.676599972,-1.784799995,9.796799332
1.683E+18,3.936413086,0.104999997,-0.120899998,0.0801,,,0.610799968,-1.810899973,9.618599892,,196,0.715799965,-1.931799971,9.698699892
1.683E+18,3.956413086,0.197599992,0.087499999,0.067000002,,,0.645699978,-1.833099961,9.612099648,,197,0.84329997,-1.745599963,9.679099649
1.683E+18,3.976413086,0.114599995,-0.082800001,0.230499998,,,0.669799984,-1.858899951,9.605500221,,198,0.784399979,-1.941699952,9.836000219
1.683E+18,3.996413086,0.072700001,0.0088,0.1039,,,0.672499955,-1.862299919,9.604599953,,199,0.745199956,-1.853499919,9.708499953
1.683E+18,4.016413086,0.0184,-0.071400002,0.012999999,,,0.667899966,-1.850600004,9.607199669,,200,0.686299967,-1.922000006,9.620199668
1.683E+18,4.036424072,0.153999999,-0.036699999,0.109699994,,,0.65990001,-1.846099973,9.608599663,,201,0.813900009,-1.882799972,9.718299657
1.683E+18,4.056413086,0.165099993,-0.019199999,0.147699997,,,0.648799956,-1.843999982,9.609799385,,202,0.813899949,-1.863199981,9.757499382
1.683E+18,4.076413086,0.0429,0.034699999,0.204599991,,,0.633700013,-1.839100003,9.611700058,,203,0.676600013,-1.804400004,9.816300049
1.683E+18,4.096413086,-0.0242,-0.029399998,0.251899987,,,0.622399986,-1.833799958,9.613499641,,204,0.598199986,-1.863199957,9.865399629
1.683E+18,4.116413086,-0.057399999,-0.055299997,0.181699991,,,0.616400003,-1.827499986,9.615099907,,205,0.559000004,-1.882799983,9.796799898
1.683E+18,4.136413086,0.051999997,-0.069299996,0.063099995,,,0.61469996,-1.823300004,9.616000175,,206,0.666699957,-1.8926,9.679100171
1.683E+18,4.156413086,0.053099997,-0.090599999,0.160799995,,,0.613599956,-1.82159996,9.616399765,,207,0.666699953,-1.912199959,9.77719976
1.683E+18,4.176413086,0.089199997,-0.0757,0.208499998,,,0.606999993,-1.816899896,9.617699623,,208,0.696199991,-1.892599896,9.826199621
1.683E+18,4.196413086,-0.037299998,-0.091899998,0.167400002,,,0.596300006,-1.810499907,9.61950016,,209,0.559000008,-1.902399905,9.786900163
1.683E+18,4.216413086,-0.0229,-0.078899994,0.097199999,,,0.591699958,-1.803799987,9.621099472,,210,0.568799958,-1.882699981,9.718299471
1.683E+18,4.236413086,0.014599999,-0.053999998,0.027799999,,,0.593299985,-1.799299955,9.621799469,,211,0.607899984,-1.853299953,9.649599468
1.683E+18,4.256413086,-0.014699999,0.0021,0.086199999,,,0.593299985,-1.796700001,9.622300148,,212,0.578599986,-1.794600001,9.708500147
1.683E+18,4.276413086,-0.0854,0.0008,0.212899998,,,0.585599959,-1.795399904,9.623000145,,213,0.500199959,-1.794599904,9.835900143
1.683E+18,4.296413086,-0.069499999,-0.002,0.163000003,,,0.579400003,-1.792599916,9.62389946,,214,0.509900004,-1.794599916,9.786899462
1.683E+18,4.316413086,-0.050699998,-0.0341,0.14289999,,,0.580199957,-1.789899945,9.624400139,,215,0.529499959,-1.823999945,9.767300129
1.683E+18,4.336413086,-0.080499999,-0.0137,0.231399998,,,0.580599964,-1.790599942,9.624199867,,216,0.500099964,-1.804299942,9.855599865
1.683E+18,4.356413086,-0.021199999,0.025999999,0.2412,,,0.5801,-1.791199923,9.624099731,,217,0.558900001,-1.765199924,9.865299731
1.683E+18,4.376413086,0.037799999,0.054499999,0.172399998,,,0.579999983,-1.790199995,9.624300003,,218,0.617799982,-1.735699996,9.796700001
1.683E+18,4.396413086,0.0164,0.0254,0.160999998,,,0.581699967,-1.780799985,9.625999451,,219,0.598099967,-1.755399985,9.786999449
1.683E+18,4.416411621,-0.0528,0.036899999,0.161299989,,,0.582399964,-1.782499909,9.625599861,,220,0.529599965,-1.745599911,9.78689985
1.683E+18,4.436413086,-0.132100001,-0.0112,0.15169999,,,0.583199978,-1.783299923,9.62539959,,221,0.451099977,-1.794499923,9.77709958
1.683E+18,4.456413086,-0.047799997,-0.001,0.181400001,,,0.587099969,-1.783699989,9.625100136,,222,0.539299972,-1.784699989,9.806500137
1.683E+18,4.476413086,0.029299999,0.0286,0.18159999,,,0.588400006,-1.78399992,9.625,,223,0.617700005,-1.75539992,9.80659999
1.683E+18,4.496413086,0.050499998,0.0175,0.181199998,,,0.586899996,-1.782699943,9.625299454,,224,0.637399994,-1.765199943,9.806499451
1.683E+18,4.516413086,0.0149,-0.006,0.141000003,,,0.583199978,-1.778699994,9.626299858,,225,0.598099978,-1.784699994,9.767299861
1.683E+18,4.536424072,0.043899998,-0.088,0.13059999,,,0.583599985,-1.775200009,9.626899719,,226,0.627499983,-1.863200009,9.75749971
1.683E+18,4.556413086,0.0995,-0.060799997,0.130400002,,,0.586899996,-1.772899985,9.627099991,,227,0.686399996,-1.833699983,9.757499993
1.683E+18,4.576413086,0.100699998,0.035399999,0.17899999,,,0.585699975,-1.771199942,9.62749958,,228,0.686399974,-1.735799942,9.806499571
1.683E+18,4.596413086,0.114099994,-0.015899999,0.188199997,,,0.582099974,-1.768799901,9.628199577,,229,0.696199968,-1.7846999,9.816399574
1.683E+18,4.616413086,0.053999998,-0.059699997,0.108999997,,,0.583299994,-1.764199972,9.628899574,,230,0.637299992,-1.823899969,9.737899572
1.683E+18,4.636413086,0.080299996,-0.071899995,0.138099998,,,0.586399972,-1.761799932,9.629199982,,231,0.666699968,-1.833699927,9.76729998
1.683E+18,4.656413086,0.076200001,-0.031599998,0.12879999,,,0.590600014,-1.762899995,9.628699303,,232,0.666800015,-1.794499993,9.757499292
1.683E+18,4.676413086,-0.0028,0.0088,0.17809999,,,0.591199994,-1.764199972,9.628499985,,233,0.588399994,-1.755399972,9.806599975
1.683E+18,4.696413086,0.015699999,0.0082,0.207499996,,,0.592199981,-1.763499975,9.628499985,,234,0.607899981,-1.755299975,9.835999981
1.683E+18,4.716413086,0.021,-0.0129,0.18779999,,,0.596700013,-1.761999965,9.628499985,,235,0.617700012,-1.774899964,9.816299975
1.683E+18,4.736413086,-0.0033,-0.036499999,0.14819999,,,0.601499975,-1.757999897,9.62899971,,236,0.598199975,-1.794499896,9.7771997
1.683E+18,4.756413086,-0.034699999,-0.050099999,0.177000001,,,0.603500009,-1.754199982,9.629499435,,237,0.56880001,-1.80429998,9.806499436
1.683E+18,4.776413086,0.0524,0.035,0.156899989,,,0.604499996,-1.751099944,9.630000114,,238,0.656899996,-1.716099944,9.786900103
1.683E+18,4.796413086,0.069299996,0.033299997,0.225400001,,,0.607299984,-1.7493999,9.630199432,,239,0.676599979,-1.716099903,9.855599433
1.683E+18,4.816413086,-0.0218,0.0603,0.215399995,,,0.610199988,-1.747099996,9.630399704,,240,0.588399988,-1.686799996,9.845799699
1.683E+18,4.836413086,-0.0374,0.055799998,0.214900002,,,0.615999997,-1.742499948,9.630899429,,241,0.578599997,-1.686699949,9.845799431
1.683E+18,4.856413086,-0.103199996,0.050099999,0.175099999,,,0.622900009,-1.736799955,9.631400108,,242,0.519700013,-1.686699957,9.806500107
1.683E+18,4.876413086,-0.0625,0.084199995,0.262999982,,,0.631299973,-1.73179996,9.631799698,,243,0.568799973,-1.647599965,9.89479968
1.683E+18,4.896413086,-0.104099996,0.089199997,0.292400002,,,0.64349997,-1.726899981,9.631899834,,244,0.539399974,-1.637699984,9.924299836
1.683E+18,4.916413086,-0.114699997,-0.0045,0.145599991,,,0.663899958,-1.721300006,9.63149929,,245,0.549199961,-1.725800006,9.777099282
1.683E+18,4.936413086,-0.026999999,-0.083799995,0.067400001,,,0.693899989,-1.710699916,9.631299973,,246,0.66689999,-1.794499911,9.698699974
1.683E+18,4.956413086,-0.065799996,-0.131799996,0.175099999,,,0.713099957,-1.701900005,9.631400108,,247,0.64729996,-1.833700001,9.806500107
1.683E+18,4.976413086,-0.0669,-0.128700003,0.184599996,,,0.723999977,-1.695199966,9.631799698,,248,0.657099977,-1.823899969,9.816399693
1.683E+18,4.996413086,0.179099992,-0.0253,0.0381,,,0.742599964,-1.690799952,9.631099701,,249,0.921699956,-1.716099951,9.669199701
1.683E+18,5.016413086,1.463099957,0.063099995,-0.0484,,,0.762899995,-1.690999985,9.629499435,,250,2.225999951,-1.627899989,9.581099436
1.683E+18,5.036424072,0.052699998,-0.168499991,0.363099992,,,0.751299977,-1.694599986,9.629799843,,251,0.803999975,-1.863099977,9.992899835
1.683E+18,5.056413086,0.417099983,-0.317000002,0.303900003,,,0.749799967,-1.693199992,9.630199432,,252,1.166899949,-2.010199994,9.934099436
1.683E+18,5.076413086,0.572399974,-0.057599999,0.1558,,,0.770999968,-1.67809999,9.631099701,,253,1.343399942,-1.735699989,9.786899701
1.683E+18,5.096413086,0.303200006,-0.022299999,0.151299998,,,0.765599966,-1.654500008,9.63560009,,254,1.068799973,-1.676800007,9.786900088
1.683E+18,5.116413086,-0.107599996,-0.037799999,0.166599989,,,0.745000005,-1.638999939,9.639900208,,255,0.637400009,-1.676799938,9.806500196
1.683E+18,5.136413086,-0.482499987,-0.067999996,0.038399998,,,0.737399995,-1.638199925,9.640600204,,256,0.254900008,-1.706199922,9.679000203
1.683E+18,5.156413086,-0.160999998,-0.027999999,0.118699998,,,0.759199977,-1.638999939,9.638799667,,257,0.598199978,-1.666999938,9.757499665
1.683E+18,5.176413086,-0.500699997,-0.051799998,0.286799997,,,0.785099983,-1.634799957,9.637399673,,258,0.284399986,-1.686599955,9.924199671
1.683E+18,5.196413086,-0.7051,0.051399998,0.139599994,,,0.79339999,-1.630299926,9.637499809,,259,0.08829999,-1.578899927,9.777099803
1.683E+18,5.216413086,-0.098200001,0.128199995,0.083899997,,,0.833700001,-1.628600001,9.634399414,,260,0.7355,-1.500400007,9.718299411
1.683E+18,5.236413086,0.110799998,-0.044299997,0.109099999,,,0.889400005,-1.632499933,9.628799438,,261,1.000200003,-1.676799931,9.737899438
1.683E+18,5.256413086,0.230099991,-0.0129,0.191499993,,,0.926999986,-1.634499907,9.624899864,,262,1.157099977,-1.647399907,9.816399857
1.683E+18,5.276413086,0.364899993,0.036899999,0.202899992,,,0.958899975,-1.62559998,9.623299599,,263,1.323799968,-1.588699982,9.826199591
1.683E+18,5.296413086,0.296099991,-0.0035,0.143600002,,,0.988499999,-1.604699969,9.623799324,,264,1.28459999,-1.608199969,9.767399326
1.683E+18,5.316413086,0.169499993,-0.0089,0.180600002,,,1.007200003,-1.579599977,9.625999451,,265,1.176699996,-1.588499976,9.806599453
1.683E+18,5.336413086,-0.0098,0.0037,0.206999987,,,1.019899964,-1.55309999,9.62899971,,266,1.010099964,-1.54939999,9.835999697
1.683E+18,5.356413086,0.098299995,0.033999998,0.223099992,,,1.029399991,-1.52459991,9.632499695,,267,1.127699986,-1.490599912,9.855599687
1.683E+18,5.376413086,0.0088,0.035999998,0.307199985,,,1.030599952,-1.497200012,9.636699677,,268,1.039399952,-1.461200014,9.943899661
1.683E+18,5.396413086,-0.0568,-0.0429,0.330599993,,,1.017799973,-1.467199922,9.64260006,,269,0.960999973,-1.510099921,9.973200053
1.683E+18,5.416413086,-0.0254,0.0129,0.246099994,,,1.006099939,-1.434899926,9.64869976,,270,0.98069994,-1.421999927,9.894799754
1.683E+18,5.436413086,-0.0229,-0.022399999,0.289599985,,,1.003600001,-1.399399996,9.6541996,,271,0.980700001,-1.421799995,9.943799585
1.683E+18,5.456413086,-0.182999998,-0.059999999,0.166899994,,,1.00669992,-1.361799955,9.65929985,,272,0.823699921,-1.421799954,9.826199844
1.683E+18,5.476413086,-0.210299999,0.0298,-0.052099999,,,1.024199963,-1.324299932,9.662599564,,273,0.813899964,-1.294499932,9.610499565
1.683E+18,5.496413086,-0.178499997,0.0298,-0.111999996,,,1.05129993,-1.29489994,9.663700104,,274,0.872799933,-1.265099941,9.551700108
1.683E+18,5.516413086,-0.038899999,0.040599998,0.0061,,,1.078400016,-1.276199937,9.663199425,,275,1.039500017,-1.235599939,9.669299425
1.683E+18,5.536424072,0.0594,-0.0012,0.212499991,,,1.0977,-1.263800025,9.662699699,,276,1.157099999,-1.265000025,9.87519969
1.683E+18,5.556413086,0.035999998,-0.064899996,0.241599992,,,1.111299992,-1.24909997,9.663000107,,277,1.14729999,-1.313999966,9.904600099
1.683E+18,5.576413086,0.054899998,-0.068899997,0.043699998,,,1.121799946,-1.225399971,9.66479969,,278,1.176699944,-1.294299968,9.708499689
1.683E+18,5.596413086,0.047199998,0.0221,-0.0568,,,1.129499912,-1.198899984,9.667300224,,279,1.17669991,-1.176799985,9.610500224
1.683E+18,5.616413086,0.047799997,-0.0068,0.058399998,,,1.128899932,-1.179799914,9.669699669,,280,1.176699929,-1.186599914,9.728099667
1.683E+18,5.636413086,0.0148,-0.0112,0.095199995,,,1.122699976,-1.165499926,9.672100067,,281,1.137499976,-1.176699925,9.767300062
1.683E+18,5.656413086,0.0059,0.023499999,0.101999998,,,1.111999989,-1.151199937,9.675099373,,282,1.117899988,-1.127699938,9.777099371
1.683E+18,5.676413086,0.075999998,-0.064599998,0.099599995,,,1.100700021,-1.141499996,9.677499771,,283,1.176700018,-1.206099994,9.777099766
1.683E+18,5.696413086,0.131799996,-0.021299999,0.098200001,,,1.093899965,-1.135699987,9.678999901,,284,1.225699961,-1.156999987,9.777199902
1.683E+18,5.716413086,0.061699998,-0.066100001,0.174999997,,,1.085600019,-1.130200028,9.680600166,,285,1.147300016,-1.19630003,9.855600163
1.683E+18,5.736413086,0.0051,-0.1303,0.280900002,,,1.073499918,-1.124799967,9.682499886,,286,1.078599918,-1.255099967,9.963399887
1.683E+18,5.756413086,0.051199999,-0.0004,0.191100001,,,1.066699982,-1.117399931,9.684100151,,287,1.11789998,-1.117799931,9.875200152
1.683E+18,5.776413086,0.106699996,0.077599995,0.1303,,,1.060099959,-1.107299924,9.68599987,,288,1.166799955,-1.029699929,9.816299871
1.683E+18,5.796413086,0.0682,0.019199999,0.157499999,,,1.049700022,-1.09799993,9.688199997,,289,1.117900021,-1.078799931,9.845699996
1.683E+18,5.816413086,0.042300001,-0.016999999,0.0583,,,1.046199918,-1.090999961,9.689399719,,290,1.088499919,-1.10799996,9.747699719
1.683E+18,5.836413086,-0.016999999,0.016099999,-0.001,,,1.046700001,-1.085099936,9.68999958,,291,1.029700002,-1.068999937,9.68899958
1.683E+18,5.856413086,-0.021,0.0138,0.115599997,,,1.040899992,-1.082700014,9.690899849,,292,1.019899992,-1.068900014,9.806499846
1.683E+18,5.876413086,-0.0263,-0.024799999,0.280900002,,,1.026499987,-1.083199978,9.692399979,,293,1.000199987,-1.107999977,9.97329998
1.683E+18,5.896413086,-0.0024,0.0023,0.239899993,,,1.012400031,-1.08099997,9.694099426,,294,1.010000031,-1.07869997,9.933999419
1.683E+18,5.916413086,-0.0287,-0.043299999,0.169200003,,,0.999599993,-1.074599981,9.696199417,,295,0.970899994,-1.11789998,9.86539942
1.683E+18,5.936413086,-0.065200001,-0.0098,0.137899995,,,0.987099946,-1.068799973,9.69810009,,296,0.921899945,-1.078599973,9.836000085
1.683E+18,5.956413086,0.031999998,-0.0024,0.20539999,,,0.977999985,-1.066399932,9.699199677,,297,1.009999983,-1.068799932,9.904599667
1.683E+18,5.976413086,0.0095,0.015999999,0.204599991,,,0.971099973,-1.065299988,9.700099945,,298,0.980599972,-1.049299989,9.904699937
1.683E+18,5.996413086,0.0043,0.0024,0.164399996,,,0.966399968,-1.061499953,9.701000214,,299,0.970699967,-1.059099953,9.86540021
1.683E+18,6.016413086,-0.010799999,-0.042300001,0.075099997,,,0.961999953,-1.055899978,9.701999664,,300,0.951199953,-1.098199978,9.777099662
1.683E+18,6.036424072,0.072299995,-0.016799999,0.093800001,,,0.957299948,-1.051999927,9.702899933,,301,1.029599942,-1.068799926,9.796699934
1.683E+18,6.056413086,0.033599999,0.0118,0.131999999,,,0.946999967,-1.05129993,9.703999519,,302,0.980599966,-1.03949993,9.835999519
1.683E+18,6.076413086,-0.032199997,-0.055799998,0.179899991,,,0.934399962,-1.05219996,9.70510006,,303,0.902199965,-1.107999958,9.88500005
1.683E+18,6.096413086,-0.039299998,-0.026699999,0.208099991,,,0.921899974,-1.051900029,9.706299782,,304,0.882599976,-1.078600029,9.914399773
1.683E+18,6.116413086,-0.048299998,0.0208,0.157899991,,,0.911300004,-1.050499916,9.707499504,,305,0.863000005,-1.029699916,9.865399495
1.683E+18,6.136413086,-0.057299998,0.116899997,0.166500002,,,0.900699973,-1.048499942,9.70870018,,306,0.843399975,-0.931599945,9.875200182
1.683E+18,6.156413086,0.015699999,0.0858,0.184599996,,,0.886399984,-1.046800017,9.710199356,,307,0.902099984,-0.961000018,9.894799352
1.683E+18,6.176413086,0.028899999,0.0232,0.261500001,,,0.873199999,-1.043099999,9.711799622,,308,0.902099999,-1.0199,9.973299623
1.683E+18,6.196413086,0.0429,0.0095,0.2509,,,0.868999958,-1.039199948,9.712599754,,309,0.911899958,-1.029699949,9.963499755
1.683E+18,6.216413086,-0.0106,-0.0252,0.172299996,,,0.873600006,-1.033800006,9.71269989,,310,0.863000006,-1.059000006,9.884999886
1.683E+18,6.236413086,-0.0099,-0.0317,0.054699998,,,0.882699966,-1.027400017,9.712599754,,311,0.872799966,-1.059100017,9.767299753
1.683E+18,6.256413086,-0.0337,-0.018099999,0.103499994,,,0.886899948,-1.021299958,9.712900162,,312,0.853199948,-1.039399957,9.816400155
1.683E+18,6.276413086,-0.131400004,0.055799998,0.180600002,,,0.876699984,-1.016899943,9.71420002,,313,0.74529998,-0.961099945,9.894800022
1.683E+18,6.296413086,-0.161799997,0.030299999,0.178299993,,,0.858099997,-1.010999918,9.716499329,,314,0.6963,-0.980699919,9.894799322
1.683E+18,6.316413086,-0.159199998,-0.0077,0.126399994,,,0.835900009,-1.002300024,9.719399452,,315,0.676700011,-1.010000024,9.845799446
1.683E+18,6.336413086,-0.032499999,-0.027199998,0.143399999,,,0.817099988,-0.992599964,9.722000122,,316,0.78459999,-1.019799963,9.865400121
1.683E+18,6.356413086,0.065799996,-0.033799998,0.171299994,,,0.806899965,-0.986000001,9.723499298,,317,0.872699961,-1.0198,9.894799292
1.683E+18,6.376413086,0.080899999,-0.068300001,0.111499995,,,0.801599979,-0.98089999,9.724399567,,318,0.882499978,-1.049199991,9.835899562
1.683E+18,6.396413086,0.081299998,-0.091600001,0.052299999,,,0.801199973,-0.977199972,9.72480011,,319,0.88249997,-1.068799973,9.777100109
1.683E+18,6.416413086,0.0142,-0.101899996,0.150199994,,,0.799699962,-0.976799965,9.724999428,,320,0.813899962,-1.078699961,9.875199422
1.683E+18,6.436413086,0.016999999,-0.169100001,0.199099988,,,0.796799958,-0.978199959,9.725099564,,321,0.813799957,-1.14729996,9.924199551
1.683E+18,6.456413086,0.085900001,-0.079799995,0.159999996,,,0.796599984,-0.979199946,9.724999428,,322,0.882499985,-1.058999941,9.884999424
1.683E+18,6.476413086,0.121099994,0.0008,0.121299997,,,0.800599992,-0.98149997,9.724499702,,323,0.921699986,-0.98069997,9.845799699
1.683E+18,6.496413086,0.093699999,0.0077,0.250200003,,,0.808399975,-0.988399982,9.723099709,,324,0.902099974,-0.980699982,9.973299712
1.683E+18,6.516413086,-0.030199999,0.0656,0.231999993,,,0.814700007,-0.997199953,9.721699715,,325,0.784500008,-0.931599952,9.953699708
1.683E+18,6.536424072,-0.122099996,0.158199996,0.1052,,,0.818399966,-1.001600027,9.720899582,,326,0.69629997,-0.843400031,9.826099582
1.683E+18,6.556413086,-0.144099995,0.137999997,0.036699999,,,0.82069999,-1.000999928,9.720799446,,327,0.676599994,-0.862999931,9.757499445
1.683E+18,6.576413086,-0.124699995,0.046999998,0.065899998,,,0.82099998,-0.998199999,9.721099854,,328,0.696299985,-0.951200001,9.786999851
1.683E+18,6.596413086,-0.0115,-0.143199995,0.202299997,,,0.815699995,-0.994299948,9.721899986,,329,0.804199995,-1.137499943,9.924199983
1.683E+18,6.616413086,-0.0156,-0.2456,0.250400007,,,0.809899986,-0.98999995,9.722799301,,330,0.794299986,-1.23559995,9.973199308
1.683E+18,6.636413086,0.080699995,-0.228699997,0.0836,,,0.81159997,-0.987199962,9.722999573,,331,0.892299965,-1.215899959,9.806599572
1.683E+18,6.656413086,0.145999998,-0.156599998,0.0254,,,0.814899981,-0.99059999,9.722299576,,332,0.960899979,-1.147199988,9.747699575
1.683E+18,6.676413086,0.157199994,0.032699998,0.2227,,,0.813600004,-1.003499985,9.721099854,,333,0.970799997,-0.970799986,9.943799853
1.683E+18,6.696413086,0.091399997,0.139200002,0.351899981,,,0.810699999,-1.021799922,9.719499588,,334,0.902099997,-0.88259992,10.07139957
1.683E+18,6.716413086,0.0035,0.140599996,0.343199998,,,0.810299993,-1.032999992,9.718299866,,335,0.813799992,-0.892399997,10.06149986
1.683E+18,6.736413086,-0.069499999,0.130999997,0.137699991,,,0.814799964,-1.033299923,9.717899323,,336,0.745299965,-0.902299926,9.855599314
1.683E+18,6.756413086,-0.0788,0.117899999,0.0106,,,0.824099958,-1.029899955,9.717499733,,337,0.745299958,-0.911999956,9.728099733
1.683E+18,6.776413086,-0.104899995,0.078099996,0.089599997,,,0.830599964,-1.029399991,9.717000008,,338,0.725699969,-0.951299995,9.806600004
1.683E+18,6.796413086,-0.0381,0.100199997,0.188099995,,,0.832499981,-1.031800032,9.716599464,,339,0.79439998,-0.931600034,9.90469946
1.683E+18,6.816413086,0.020399999,0.1105,0.296000004,,,0.832699955,-1.032299995,9.716499329,,340,0.853099953,-0.921799995,10.01249933
1.683E+18,6.836413086,0.0319,0.066399999,0.28549999,,,0.83099997,-1.027400017,9.717199326,,341,0.86289997,-0.961000018,10.00269932
1.683E+18,6.856413086,0.047599997,-0.0111,0.147599995,,,0.834899962,-1.01849997,9.71780014,,342,0.882499959,-1.02959997,9.865400136
1.683E+18,6.876413086,0.074699998,-0.0107,0.039799999,,,0.847000003,-1.00909996,9.717700005,,343,0.921700001,-1.01979996,9.757500004
1.683E+18,6.896413086,0.094499998,-0.0165,0.089099996,,,0.856599987,-1.003299952,9.717399597,,344,0.951099984,-1.019799951,9.806499593
1.683E+18,6.916413086,0.111699998,0.0298,0.196899995,,,0.859099984,-1.000699997,9.717499733,,345,0.970799983,-0.970899997,9.914399728
1.683E+18,6.936413086,0.118000001,0.035799999,0.186999992,,,0.862499952,-0.996799946,9.717599869,,346,0.980499953,-0.960999947,9.90459986
1.683E+18,6.956413086,0.0845,-0.0005,0.176899999,,,0.866699994,-0.989899993,9.717899323,,347,0.951199993,-0.990399993,9.894799322
1.683E+18,6.976413086,0.092999995,-0.0072,0.205699995,,,0.867899954,-0.983099997,9.718500137,,348,0.960899949,-0.990299997,9.924200132
1.683E+18,6.996413086,0.107499994,-0.041899998,0.097799994,,,0.872999966,-0.977799952,9.718599319,,349,0.98049996,-1.01969995,9.816399314
1.683E+18,7.016413086,0.112399995,-0.026899999,0.146799996,,,0.877999961,-0.97329998,9.718599319,,350,0.990399957,-1.000199979,9.865399316
1.683E+18,7.036424072,0.143600002,0.0605,0.127800003,,,0.885999978,-0.972499967,9.717899323,,351,1.02959998,-0.911999967,9.845699325
1.683E+18,7.056413086,0.201999992,0.042099997,0.177900001,,,0.896200001,-0.973800004,9.716899872,,352,1.098199993,-0.931700006,9.894799873
1.683E+18,7.076413086,0.130099997,0.024999999,0.208799988,,,0.90929997,-0.976199985,9.715399742,,353,1.039399967,-0.951199986,9.92419973
1.683E+18,7.096413086,0.084699996,0.0341,0.190599993,,,0.925300002,-0.975600004,9.713999748,,354,1.009999998,-0.941500004,9.904599741
1.683E+18,7.116413086,-0.0173,-0.025599999,0.172199994,,,0.939099967,-0.974599957,9.712800026,,355,0.921799967,-1.000199957,9.88500002
1.683E+18,7.136413086,-0.085099995,-0.0198,0.162900001,,,0.948099971,-0.970599949,9.712299347,,356,0.862999976,-0.990399949,9.875199348
1.683E+18,7.156413086,-0.119099997,-0.026899999,0.241099998,,,0.952699959,-0.963499963,9.712499619,,357,0.833599962,-0.990399962,9.953599617
1.683E+18,7.176413086,-0.182099998,-0.0156,0.152400002,,,0.956900001,-0.955199957,9.712900162,,358,0.774800003,-0.970799956,9.865300164
1.683E+18,7.196413086,-0.167999998,0.100899994,0.0048,,,0.96239996,-0.944299996,9.713500023,,359,0.794399962,-0.843400002,9.718300023
1.683E+18,7.216413086,-0.205699995,0.044799998,0.141299993,,,0.960799992,-0.93719995,9.714300156,,360,0.755099997,-0.892399952,9.855600148
1.683E+18,7.236413086,-0.191699997,-0.036599997,0.356299996,,,0.956699967,-0.934099972,9.715000153,,361,0.764999971,-0.97069997,10.07130015
1.683E+18,7.256413086,-0.154200003,0.0165,0.37559998,,,0.958399951,-0.928499997,9.715399742,,362,0.804199949,-0.911999997,10.09099972
1.683E+18,7.276413086,-0.148100004,-0.0021,0.247599989,,,0.961999953,-0.91959995,9.715899467,,363,0.813899949,-0.92169995,9.963499457
1.683E+18,7.296413086,-0.109999999,-0.005,0.138599992,,,0.963199973,-0.906899989,9.716899872,,364,0.853199974,-0.911899989,9.855499864
1.683E+18,7.316413086,-0.1043,-0.0089,0.0093,,,0.957499981,-0.89319998,9.718799591,,365,0.853199981,-0.90209998,9.728099591
1.683E+18,7.336413086,-0.033999998,-0.029899999,0.066,,,0.94599998,-0.882099986,9.720899582,,366,0.911999982,-0.911999986,9.786899582
1.683E+18,7.356413086,0.0117,-0.066599995,0.201099992,,,0.9296,-0.87469995,9.723199844,,367,0.9413,-0.941299945,9.924299836
1.683E+18,7.376413086,0.039999999,-0.061999999,0.198899999,,,0.91109997,-0.869599998,9.725399971,,368,0.951099969,-0.931599997,9.92429997
1.683E+18,7.396413086,-0.0071,-0.028199999,0.157199994,,,0.889699996,-0.864099979,9.727799416,,369,0.882599995,-0.892299978,9.884999409
1.683E+18,7.416413086,-0.046699997,-0.0427,0.076499999,,,0.870399952,-0.859399974,9.729999542,,370,0.823699955,-0.902099974,9.806499541
1.683E+18,7.436413086,0.0264,-0.0288,-0.062399998,,,0.856099963,-0.853699982,9.731800079,,371,0.882499963,-0.882499982,9.669400081
1.683E+18,7.456413086,0.0189,-0.0149,-0.073799998,,,0.843999982,-0.84799999,9.733300209,,372,0.862899981,-0.86289999,9.659500211
1.683E+18,7.476413086,0.068999998,-0.065499999,0.032899998,,,0.833099961,-0.846399963,9.734399796,,373,0.90209996,-0.911899962,9.767299794
1.683E+18,7.496413086,0.195799991,-0.1708,0.130400002,,,0.824000001,-0.848999977,9.734999657,,374,1.019799992,-1.019799978,9.865399659
1.683E+18,7.516413086,0.230700001,-0.138699993,0.090999998,,,0.818499982,-0.851599991,9.735199928,,375,1.049199983,-0.990299985,9.826199926
1.683E+18,7.536424072,0.223699987,-0.145499989,0.169499993,,,0.815699995,-0.854699969,9.735199928,,376,1.039399981,-1.000199959,9.904699922
1.683E+18,7.556413086,0.20189999,-0.157399997,0.248799995,,,0.817799985,-0.862399995,9.73429966,,377,1.019699976,-1.019799992,9.983099654
1.683E+18,7.576413086,0.155000001,-0.0977,0.191499993,,,0.825599968,-0.872999966,9.732699394,,378,0.98059997,-0.970699966,9.924199387
1.683E+18,7.596413086,0.035700001,-0.019099999,0.252200007,,,0.836899996,-0.883099973,9.730799675,,379,0.872599997,-0.902199972,9.982999682
1.683E+18,7.616413086,-0.150600001,-0.057699997,0.283499986,,,0.846899986,-0.893399954,9.729000092,,380,0.696299985,-0.951099951,10.01250008
1.683E+18,7.636413086,-0.266000003,0.035599999,0.117899999,,,0.854399979,-0.898599982,9.727899551,,381,0.588399976,-0.862999983,9.84579955
1.683E+18,7.656413086,-0.25,0.030199999,0.069600001,,,0.85799998,-0.902899981,9.727199554,,382,0.60799998,-0.872699982,9.796799555
1.683E+18,7.676413086,-0.135199994,0.0207,0.129600003,,,0.860899985,-0.913100004,9.725999832,,383,0.725699991,-0.892400004,9.855599836
1.683E+18,7.696413086,-0.014599999,0.052499998,0.131400004,,,0.867799997,-0.925300002,9.724199295,,384,0.853199998,-0.872800004,9.855599299
1.683E+18,7.716413086,0.047799997,0.055799998,0.231299996,,,0.873899996,-0.938399971,9.722399712,,385,0.921699993,-0.882599972,9.953699708
1.683E+18,7.736413086,0.038399998,0.057,0.261700004,,,0.873600006,-0.949399948,9.721399307,,386,0.912000004,-0.892399948,9.983099312
1.683E+18,7.756413086,0.032899998,0.132200003,0.2227,,,0.869199991,-0.955899954,9.721099854,,387,0.902099989,-0.823699951,9.943799853
1.683E+18,7.776413086,0.043199997,0.050699998,0.233199999,,,0.868799984,-0.96269995,9.720499992,,388,0.911999982,-0.911999952,9.953699991
1.683E+18,7.796413086,0.134900004,0.037,0.175499991,,,0.875,-0.968699992,9.719299316,,389,1.009900004,-0.931699991,9.894799307
1.683E+18,7.816413086,0.208299994,0.062699996,0.128399998,,,0.889999986,-0.974699974,9.717399597,,390,1.09829998,-0.911999978,9.845799595
1.683E+18,7.836413086,0.157899991,0.135899991,0.149499997,,,0.90109998,-0.979299963,9.715899467,,391,1.058999971,-0.843399972,9.865399465
1.683E+18,7.856413086,0.0105,0.108499996,0.179199994,,,0.90139997,-0.981299996,9.715600014,,392,0.91189997,-0.8728,9.894800007
1.683E+18,7.876413086,-0.045599997,0.106899999,0.149299994,,,0.898799956,-0.979699969,9.715999603,,393,0.853199959,-0.87279997,9.865299597
1.683E+18,7.896413086,-0.044799998,0.046299998,0.198100001,,,0.898000002,-0.977899969,9.716300011,,394,0.853200004,-0.931599971,9.914400011
1.683E+18,7.916413086,0.0285,0.0067,0.208399996,,,0.902999997,-0.977599978,9.715899467,,395,0.931499997,-0.970899979,9.924299464
1.683E+18,7.936413086,0.030599998,0.0372,0.130699992,,,0.910699964,-0.978699982,9.715000153,,396,0.941299962,-0.941499982,9.845700145
1.683E+18,7.956413086,-0.005,0.056499999,0.101899996,,,0.917099953,-0.978399992,9.714499474,,397,0.912099953,-0.921899993,9.81639947
1.683E+18,7.976413086,-0.024499999,0.064800002,0.091899998,,,0.916899979,-0.976799965,9.714599609,,398,0.89239998,-0.911999963,9.806499608
1.683E+18,7.996413086,0.016799999,0.0058,0.130899996,,,0.914699972,-0.976599991,9.714900017,,399,0.931499971,-0.970799991,9.845800012
1.683E+18,8.016413086,0.009099999,-0.041699998,0.189699993,,,0.912599981,-0.978100002,9.714900017,,400,0.92169998,-1.0198,9.904600009
1.683E+18,8.036424072,-0.011299999,-0.0021,0.150600001,,,0.913499951,-0.978399992,9.714799881,,401,0.902199952,-0.980499992,9.865399882
1.683E+18,8.056413086,-0.0018,0.068099998,0.121399999,,,0.913800001,-0.980199993,9.714599609,,402,0.912000001,-0.912099995,9.835999608
1.683E+18,8.076413086,-0.0052,-0.0072,0.209299996,,,0.907399952,-0.983199954,9.714900017,,403,0.902199952,-0.990399954,9.924200013
1.683E+18,8.096413086,0.0219,0.034499999,0.159899995,,,0.899800003,-0.985699952,9.715299606,,404,0.921700003,-0.951199953,9.875199601
1.683E+18,8.116413086,0.0264,0.045599997,0.100699998,,,0.895299971,-0.987099946,9.715600014,,405,0.921699971,-0.941499949,9.816300012
1.683E+18,8.136413086,-0.0162,-0.068999998,0.27699998,,,0.888999999,-0.98999995,9.715899467,,406,0.872799998,-1.058999948,9.992899448
1.683E+18,8.156413086,0.0425,0.021399999,0.130099997,,,0.888999999,-0.992299974,9.71570015,,407,0.931499999,-0.970899975,9.845800146
1.683E+18,8.176413086,0.045299999,0.059,0.061899997,,,0.895999968,-0.99059999,9.715199471,,408,0.941299967,-0.93159999,9.777099468
1.683E+18,8.196413086,0.017099999,-0.0381,0.287499994,,,0.894799948,-0.99149996,9.715199471,,409,0.911899947,-1.029599961,10.00269946
1.683E+18,8.216413086,-0.0175,-0.075399995,0.316699982,,,0.890299976,-0.993399978,9.715399742,,410,0.872799976,-1.068799973,10.03209972
1.683E+18,8.236413086,0.0105,-0.0009,0.149700001,,,0.891599953,-0.989499986,9.71570015,,411,0.902099953,-0.990399986,9.86540015
1.683E+18,8.256413086,0.006,-0.036399998,0.080799997,,,0.896200001,-0.983399987,9.715899467,,412,0.902200001,-1.019799985,9.796699464
1.683E+18,8.276413086,0.069699995,-0.0195,0.031999998,,,0.900999963,-0.980699956,9.71570015,,413,0.970699959,-1.000199957,9.747700147
1.683E+18,8.296413086,0.065700002,-0.0094,0.091199994,,,0.904999971,-0.980999947,9.715299606,,414,0.970699973,-0.990399946,9.8064996
1.683E+18,8.316413086,0.009,-0.048799999,0.218499988,,,0.902899981,-0.980799973,9.715600014,,415,0.91189998,-1.029599972,9.934100002
1.683E+18,8.336413086,-0.0165,-0.090700001,0.227699995,,,0.899100006,-0.978100002,9.716199875,,416,0.882600006,-1.068800002,9.94389987
1.683E+18,8.356413086,0.014,-0.077699997,0.099399999,,,0.898000002,-0.971599996,9.716899872,,417,0.912000001,-1.049299993,9.816299871
1.683E+18,8.376413086,0.055099998,-0.103399999,0.118199997,,,0.895999968,-0.965399981,9.717700005,,418,0.951099966,-1.06879998,9.835900001
1.683E+18,8.396413086,-0.002,-0.174499989,0.078599997,,,0.894400001,-0.963,9.718099594,,419,0.892400001,-1.137499988,9.796699591
1.683E+18,8.416413086,-0.055799998,-0.126199991,-0.0288,,,0.899199963,-0.962199986,9.71780014,,420,0.843399964,-1.088399976,9.689000141
1.683E+18,8.436413086,-0.088,-0.056499999,0.079300001,,,0.90199995,-0.96329999,9.717399597,,421,0.813999951,-1.019799989,9.796699598
1.683E+18,8.456413086,-0.153200001,-0.049799997,0.256199986,,,0.898599982,-0.969999969,9.717000008,,422,0.745399982,-1.019799966,9.973199993
1.683E+18,8.476413086,-0.159199998,-0.047699999,0.226699993,,,0.894699991,-0.97209996,9.717199326,,423,0.735499993,-1.019799959,9.943899319
1.683E+18,8.496413086,-0.126800001,-0.0197,0.138899997,,,0.901499987,-0.970699966,9.7166996,,424,0.774699986,-0.990399966,9.855599597
1.683E+18,8.516413086,0,0.040199999,0.169399992,,,0.912,-0.97179997,9.715600014,,425,0.912,-0.931599971,9.885000005
1.683E+18,8.536424072,0.053599998,0.034199998,0.268299997,,,0.917099953,-0.975600004,9.714699745,,426,0.970699951,-0.941400006,9.982999742
1.683E+18,8.556413086,0.041099999,0.0255,0.190200001,,,0.919799984,-0.976699948,9.714399338,,427,0.960899983,-0.951199949,9.904599339
1.683E+18,8.576413086,-0.0093,-0.085000001,0.042999998,,,0.921299994,-0.973999977,9.714499474,,428,0.911999994,-1.058999978,9.757499471
1.683E+18,8.596413086,0.131899998,0.221999988,0.112499997,,,0.927100003,-0.977099955,9.713699341,,429,1.059,-0.755099967,9.826199338
1.683E+18,8.616413086,0.0506,-0.037599999,0.25059998,,,0.929999948,-0.982199967,9.712900162,,430,0.980599947,-1.019799966,9.963500142
1.683E+18,8.636413086,0.061799999,0.081,0.191699997,,,0.928499997,-0.983199954,9.712900162,,431,0.990299996,-0.902199954,9.904600158
1.683E+18,8.656413086,0.023499999,0.109499998,0.181699991,,,0.927599967,-0.982299984,9.71309948,,432,0.951099966,-0.872799985,9.894799471
1.683E+18,8.676413086,0.0059,0.080600001,0.220799997,,,0.925599992,-0.982799947,9.713199615,,433,0.931499992,-0.902199946,9.933999613
1.683E+18,8.696413086,0.057799999,0.0876,0.239899993,,,0.922800004,-0.979999959,9.713799477,,434,0.980600003,-0.892399959,9.95369947
1.683E+18,8.716413086,0.039299998,-0.0067,0.131300002,,,0.921599984,-0.973800004,9.714499474,,435,0.960899983,-0.980500003,9.845799476
1.683E+18,8.736413086,0.058599997,0.0252,0.091399997,,,0.921899974,-0.966699958,9.715199471,,436,0.980499972,-0.941499958,9.806599468
1.683E+18,8.756413086,0.040799998,-0.016899999,0.100699998,,,0.92019999,-0.96359998,9.71570015,,437,0.960999988,-0.980499979,9.816400148
1.683E+18,8.776413086,0.0832,0.0506,0.159099996,,,0.916999996,-0.962599993,9.716099739,,438,1.000199996,-0.911999993,9.875199735
1.683E+18,8.796413086,0.0277,0.039899997,0.178299993,,,0.913599968,-0.961699963,9.716499329,,439,0.941299967,-0.921799965,9.894799322
1.683E+18,8.816413086,-0.026999999,-0.0219,0.177699998,,,0.90959996,-0.958599985,9.717100143,,440,0.882599961,-0.980499985,9.894800141
1.683E+18,8.836413086,-0.0625,-0.064999998,0.176899999,,,0.905799985,-0.95479995,9.717899323,,441,0.843299985,-1.019799948,9.894799322
1.683E+18,8.856413086,-0.042099997,-0.029199999,0.107899994,,,0.904999971,-0.951299965,9.718299866,,442,0.862899974,-0.980499964,9.826199859
1.683E+18,8.876413086,-0.0328,-0.0131,0.146799996,,,0.905599952,-0.947799981,9.718599319,,443,0.872799952,-0.960899981,9.865399316
1.683E+18,8.896413086,-0.019199999,-0.046,0.185399994,,,0.901799977,-0.944299996,9.719299316,,444,0.882599978,-0.990299996,9.904699311
1.683E+18,8.916413086,-0.015999999,-0.0396,0.155299991,,,0.898599982,-0.940899968,9.719900131,,445,0.882599983,-0.980499968,9.875200123
1.683E+18,8.936413086,-0.0069,-0.023499999,0.0766,,,0.899299979,-0.937399983,9.720199585,,446,0.892399979,-0.960899983,9.796799585
1.683E+18,8.956413086,-0.049199998,-0.076299995,0.086300001,,,0.902399957,-0.933699965,9.720199585,,447,0.853199959,-1.009999961,9.806499586
1.683E+18,8.976413086,-0.013599999,-0.038699999,0.2042,,,0.905999959,-0.931999981,9.720099449,,448,0.892399959,-0.970699981,9.924299449
1.683E+18,8.996413086,0.0068,-0.056599997,0.243499994,,,0.905099988,-0.933799982,9.719999313,,449,0.911899988,-0.990399979,9.963499308
1.683E+18,9.016416504,0.032199997,0.042399999,0.223399997,,,0.899299979,-0.934799969,9.720399857,,450,0.931499977,-0.89239997,9.943799853
1.683E+18,9.036424072,0.0288,0.0111,0.18339999,,,0.893000007,-0.932899952,9.721199989,,451,0.921800006,-0.921799952,9.90459998
1.683E+18,9.056413086,0.041099999,-0.0101,0.114399999,,,0.890399992,-0.931199968,9.721599579,,452,0.931499992,-0.941299967,9.835999578
1.683E+18,9.076413086,0.059299998,0.0383,0.085000001,,,0.891799986,-0.930700004,9.721499443,,453,0.951099984,-0.892400004,9.806499444
1.683E+18,9.096413086,0.029899999,0.048299998,0.094899997,,,0.891900003,-0.930899978,9.721499443,,454,0.921800002,-0.88259998,9.81639944
1.683E+18,9.116413086,0.0131,0.0502,0.202699989,,,0.888999999,-0.932799995,9.721599579,,455,0.902099999,-0.882599995,9.924299568
1.683E+18,9.136413086,0.036599997,0.071999997,0.261399984,,,0.885100007,-0.935000002,9.721699715,,456,0.921700004,-0.863000005,9.983099699
1.683E+18,9.156413086,0.0383,0.053199999,0.231899992,,,0.88349998,-0.935799956,9.72179985,,457,0.92179998,-0.882599957,9.953699842
1.683E+18,9.176413086,0.0072,-0.035700001,0.1241,,,0.885100007,-0.935000002,9.721699715,,458,0.892300007,-0.970700003,9.845799714
1.683E+18,9.196413086,0.0317,0.0118,0.0361,,,0.890100002,-0.933699965,9.721399307,,459,0.921800002,-0.921899966,9.757499307
1.683E+18,9.216413086,0.0002,0.014099999,0.124799997,,,0.892099977,-0.935899973,9.720999718,,460,0.892299977,-0.921799974,9.845799714
1.683E+18,9.236413086,-0.0253,0.028899999,0.213199988,,,0.888300002,-0.940899968,9.720799446,,461,0.863000002,-0.911999969,9.933999434
1.683E+18,9.256413086,-0.0221,0.090300001,0.193499997,,,0.885100007,-0.943499982,9.720899582,,462,0.863000007,-0.853199981,9.914399579
1.683E+18,9.276411621,0.0287,0.061199997,0.183599994,,,0.88319999,-0.943799973,9.720999718,,463,0.911899989,-0.882599976,9.904599711
1.683E+18,9.296413086,0.097499996,-0.007,0.16399999,,,0.883099973,-0.944099963,9.720999718,,464,0.98059997,-0.951099962,9.884999707
1.683E+18,9.316413086,0.074999996,-0.026899999,0.105399996,,,0.885899961,-0.943799973,9.720799446,,465,0.960899957,-0.970699972,9.826199442
1.683E+18,9.336413086,0.0139,-0.056499999,0.076200001,,,0.888199985,-0.943699956,9.720600128,,466,0.902099985,-1.000199955,9.796800129
1.683E+18,9.356413086,-0.037,0.023399999,0.115699999,,,0.890199959,-0.945299983,9.720299721,,467,0.853199959,-0.921899984,9.83599972
1.683E+18,9.376413086,-0.0451,0.046999998,0.233599991,,,0.888399959,-0.949199975,9.719999313,,468,0.843299959,-0.902199976,9.953599304
1.683E+18,9.396413086,-0.0221,-0.0005,0.223699987,,,0.885100007,-0.950599968,9.720199585,,469,0.863000007,-0.951099968,9.943899572
1.683E+18,9.416413086,-0.033299997,-0.1303,0.135299996,,,0.886500001,-0.948399961,9.720299721,,470,0.853200004,-1.078699961,9.855599716
1.683E+18,9.436413086,-0.0266,-0.103699997,0.0568,,,0.889499962,-0.945499957,9.720299721,,471,0.862899963,-1.049199954,9.777099721
1.683E+18,9.456413086,0.0107,0.015199999,0.125799999,,,0.89139998,-0.946799994,9.719999313,,472,0.902099979,-0.931599994,9.845799312
1.683E+18,9.476413086,-0.0044,0.0196,0.233699992,,,0.886999965,-0.951199949,9.719999313,,473,0.882599965,-0.931599949,9.953699306
1.683E+18,9.496413086,-0.019199999,-0.056599997,0.155000001,,,0.882200003,-0.953299999,9.720199585,,474,0.863000004,-1.009899996,9.875199586
1.683E+18,9.516413086,0.046099998,-0.0072,0.067099996,,,0.885399997,-0.953699946,9.719900131,,475,0.931499995,-0.960899946,9.787000127
1.683E+18,9.536424072,0.023799999,-0.034399997,0.1558,,,0.888099968,-0.955899954,9.719399452,,476,0.911899967,-0.990299951,9.875199452
1.683E+18,9.556413086,-0.006,-0.0112,0.185599998,,,0.888599992,-0.959599972,9.718999863,,477,0.882599992,-0.970799971,9.90459986
1.683E+18,9.576413086,0.013599999,0.059299998,0.156399995,,,0.888499975,-0.961499989,9.718799591,,478,0.902099974,-0.902199991,9.875199586
1.683E+18,9.596413086,0.015199999,0.062199999,0.215399995,,,0.886899948,-0.964399993,9.718699455,,479,0.902099947,-0.902199995,9.934099451
1.683E+18,9.616413086,0.045499999,0.0339,0.18599999,,,0.885999978,-0.965599954,9.718599319,,480,0.931499977,-0.931699954,9.904599309
1.683E+18,9.636413086,0.092599995,0.043299999,0.146899998,,,0.887999952,-0.965199947,9.718500137,,481,0.980599947,-0.921899948,9.865400136
1.683E+18,9.656413086,0.052999999,0.0044,0.127299994,,,0.888300002,-0.965499997,9.718400002,,482,0.941300001,-0.961099997,9.845699996
1.683E+18,9.676413086,0.0057,0.063299999,0.146799996,,,0.886599958,-0.965499997,9.718599319,,483,0.892299958,-0.902199998,9.865399316
1.683E+18,9.696413086,-0.0099,0.0735,0.185699999,,,0.882699966,-0.965900004,9.718899727,,484,0.872799966,-0.892400004,9.904599726
1.683E+18,9.716413086,-0.016999999,0.053199999,0.234399989,,,0.879999995,-0.965199947,9.719200134,,485,0.862999996,-0.911999948,9.953600124
1.683E+18,9.736413086,-0.046799999,-0.067499995,0.136099994,,,0.880400002,-0.962099969,9.719499588,,486,0.833600003,-1.029599965,9.855599582
1.683E+18,9.756413086,0.0076,-0.032899998,0.018299999,,,0.8847,-0.957499981,9.719599724,,487,0.8923,-0.990399979,9.737899723
1.683E+18,9.776413086,-0.033599999,-0.074099995,0.116399996,,,0.886799991,-0.955499947,9.719599724,,488,0.853199992,-1.029599942,9.83599972
1.683E+18,9.796413086,-0.096299998,-0.1127,0.223799989,,,0.880799949,-0.956099987,9.719999313,,489,0.784499951,-1.068799987,9.943799302
1.683E+18,9.816413086,-0.062099997,-0.043499999,0.184199989,,,0.875999987,-0.956699967,9.720399857,,490,0.81389999,-1.000199966,9.904599845
1.683E+18,9.836413086,0.035299998,-0.0121,0.164800003,,,0.876599967,-0.958700001,9.720199585,,491,0.911899965,-0.970800001,9.884999588
1.683E+18,9.856413086,0.0352,-0.027099999,0.243699998,,,0.876699984,-0.96329999,9.71969986,,492,0.911899984,-0.990399988,9.963399857
1.683E+18,9.876413086,0.0044,-0.044099998,0.1461,,,0.878099978,-0.965799987,9.719299316,,493,0.882499978,-1.009899985,9.865399316
1.683E+18,9.896413086,-0.0374,-0.006,0.087399997,,,0.880799949,-0.964699984,9.719200134,,494,0.843399949,-0.970699984,9.806600131
1.683E+18,9.916411621,-0.067000002,0.0137,0.0678,,,0.880899966,-0.964899957,9.719200134,,495,0.813899964,-0.951199957,9.787000135
1.683E+18,9.936413086,0.022799999,0.056599997,0.205299988,,,0.879399955,-0.968599975,9.718899727,,496,0.902199954,-0.911999978,9.924199715
1.683E+18,9.956413086,0.0164,0.031399999,0.283899993,,,0.875899971,-0.972799957,9.718799591,,497,0.892299971,-0.941399958,10.00269958
1.683E+18,9.976413086,0.0073,-0.066699997,0.195500001,,,0.875199974,-0.9727,9.718899727,,498,0.882499973,-1.039399996,9.914399728
1.683E+18,9.996413086,0.0163,0.0084,0.077599995,,,0.876100004,-0.969399989,9.719200134,,499,0.892400004,-0.960999989,9.796800129
1.683E+18,10.01641309,0.055,0.019299999,0.165999994,,,0.876499951,-0.970599949,9.718999863,,500,0.931499951,-0.95129995,9.884999856
1.683E+18,10.03642407,0.017899999,0.022499999,0.254399985,,,0.87439996,-0.973699987,9.718899727,,501,0.892299959,-0.951199988,9.973299712
1.683E+18,10.0564165,-0.01,0.0986,0.156000003,,,0.872999966,-0.971399963,9.719200134,,502,0.862999966,-0.872799963,9.875200137
1.683E+18,10.07641309,-0.0288,0.015299999,0.145599991,,,0.872199953,-0.966499984,9.719799995,,503,0.843399953,-0.951199985,9.865399987
1.683E+18,10.09641309,-0.0101,-0.075999998,0.135600001,,,0.873099983,-0.963399947,9.719999313,,504,0.862999983,-1.039399944,9.855599314
1.683E+18,10.1164165,-0.0025,-0.0103,0.086399995,,,0.87529999,-0.960500002,9.720099449,,505,0.87279999,-0.970800002,9.806499444
1.683E+18,10.13641309,0.0163,0.0263,0.086300001,,,0.875999987,-0.957899988,9.720299721,,506,0.892299987,-0.931599988,9.806599721
1.683E+18,10.15641309,0.085900001,0.026099999,0.144999996,,,0.875099957,-0.957699955,9.720399857,,507,0.960999958,-0.931599956,9.865399852
1.683E+18,10.17641309,0.097799994,-0.062899999,0.174099997,,,0.87289995,-0.956900001,9.72069931,,508,0.970699944,-1.0198,9.894799307
1.683E+18,10.19641309,0.107899994,-0.115399994,0.154200003,,,0.872699976,-0.953399956,9.720999718,,509,0.98059997,-1.06879995,9.87519972
1.683E+18,10.21641309,0.1171,-0.176799998,0.104899995,,,0.873299956,-0.950899959,9.721199989,,510,0.990399957,-1.127699956,9.826099984
1.683E+18,10.23641309,0.123099998,-0.106699996,0.095599994,,,0.877099991,-0.952299953,9.720799446,,511,1.000199988,-1.058999948,9.81639944
1.683E+18,10.25641309,0.108499996,0.066,0.184900001,,,0.881899953,-0.958399951,9.71969986,,512,0.990399949,-0.892399952,9.90459986
1.683E+18,10.27641309,0.035799999,0.133499995,0.284199983,,,0.885899961,-0.966999948,9.718500137,,513,0.92169996,-0.833499953,10.00270012
1.683E+18,10.29641309,-0.0078,0.088199995,0.196699992,,,0.890399992,-0.970799983,9.717700005,,514,0.882599993,-0.882599987,9.914399996
1.683E+18,10.31641309,-0.082099997,0.054399997,0.039899997,,,0.895999968,-0.966399968,9.717599869,,515,0.813899972,-0.911999971,9.757499866
1.683E+18,10.33641309,-0.0581,0.0022,0.049899999,,,0.901499987,-0.963199973,9.717399597,,516,0.843399987,-0.960999973,9.767299596
1.683E+18,10.35641309,-0.059699997,0.014099999,0.177699998,,,0.902999997,-0.965299964,9.717100143,,517,0.8433,-0.951199965,9.894800141
1.683E+18,10.37641309,-0.0199,0.0854,0.275999993,,,0.902499974,-0.967999995,9.716899872,,518,0.882599974,-0.882599995,9.992899865
1.683E+18,10.39641309,-0.001,0.125499994,0.246699989,,,0.903199971,-0.968899965,9.7166996,,519,0.902199971,-0.843399972,9.963399589
1.683E+18,10.41641309,-0.031999998,0.053799998,0.217199996,,,0.904799998,-0.965799987,9.716899872,,520,0.8728,-0.911999989,9.934099868
1.683E+18,10.43641309,-0.024699999,-0.058899999,0.148299992,,,0.907299995,-0.960799992,9.717100143,,521,0.882599996,-1.019699991,9.865400136
1.683E+18,10.45641309,0.027999999,-0.043899998,0.0405,,,0.913399994,-0.956299961,9.717000008,,522,0.941399993,-1.000199959,9.757500008
1.683E+18,10.47641309,-0.005,-0.024899999,0.099599995,,,0.917099953,-0.95569998,9.7166996,,523,0.912099953,-0.980599979,9.816299595
1.683E+18,10.49641309,-0.021499999,-0.022299999,0.236899987,,,0.913899958,-0.958299994,9.716799736,,524,0.892399959,-0.980599994,9.953699723
1.683E+18,10.51641309,-0.076399997,-0.0418,0.197300002,,,0.90989995,-0.958399951,9.717100143,,525,0.833499953,-1.000199951,9.914400145
1.683E+18,10.53642578,-0.057099998,-0.043699998,0.138300002,,,0.910299957,-0.956499994,9.717299461,,526,0.853199959,-1.000199992,9.855599463
1.683E+18,10.55641309,-0.048799999,-0.063999996,0.108899996,,,0.911699951,-0.955799997,9.717199326,,527,0.862899952,-1.019799992,9.826099321
1.683E+18,10.57641309,-0.0195,-0.0037,0.148299992,,,0.912,-0.957199991,9.717100143,,528,0.8925,-0.960899991,9.865400136
1.683E+18,10.59641309,0.0006,0.028199999,0.128899992,,,0.911399961,-0.959800005,9.716899872,,529,0.91199996,-0.931600006,9.845799863
1.683E+18,10.61641309,-0.037799999,0.0089,0.089699998,,,0.910600007,-0.960199952,9.716899872,,530,0.872800007,-0.951299952,9.80659987
1.683E+18,10.63641309,-0.0163,-0.041299999,0.167799994,,,0.908699989,-0.958799958,9.717199326,,531,0.892399989,-1.000099957,9.88499932
1.683E+18,10.65641309,0.033399999,-0.078699999,0.197300002,,,0.907999992,-0.960699975,9.717100143,,532,0.941399992,-1.039399974,9.914400145
1.683E+18,10.67641309,0.013599999,-0.0273,0.207399994,,,0.908099949,-0.963,9.716799736,,533,0.921699949,-0.9903,9.92419973
1.683E+18,10.69641309,0.0143,0.0129,0.158399999,,,0.907399952,-0.964100003,9.716799736,,534,0.921699952,-0.951200004,9.875199735
1.683E+18,10.71641309,-0.026699999,0.0341,0.129299998,,,0.90929997,-0.965699971,9.716499329,,535,0.88259997,-0.931599971,9.845799327
1.683E+18,10.73641309,-0.078599997,0.063299999,0.060899999,,,0.912199974,-0.965499997,9.716199875,,536,0.833599977,-0.902199998,9.777099874
1.683E+18,10.75641309,-0.069299996,0.082400002,0.158999994,,,0.912699997,-0.964999974,9.716199875,,537,0.843400002,-0.882599972,9.875199869
1.683E+18,10.77641309,-0.066399999,0.0244,0.22739999,,,0.909799993,-0.965799987,9.716400146,,538,0.843399994,-0.941399988,9.943800136
1.683E+18,10.79641309,-0.034399997,0.0039,0.168300003,,,0.907199979,-0.964899957,9.7166996,,539,0.872799981,-0.960999957,9.884999603
1.683E+18,10.81641309,0.0148,0.0123,0.138699993,,,0.906899989,-0.96359998,9.716899872,,540,0.921699989,-0.95129998,9.855599865
1.683E+18,10.83641309,0.091899998,0.062399998,0.197699994,,,0.908199966,-0.964599967,9.7166996,,541,1.000099964,-0.902199969,9.914399594
1.683E+18,10.85641309,0.0436,0.034600001,0.246899992,,,0.907599986,-0.966199994,9.716599464,,542,0.951199986,-0.931599993,9.963499457
1.683E+18,10.87641309,-0.015699999,-0.025899999,0.158500001,,,0.908099949,-0.964399993,9.7166996,,543,0.89239995,-0.990299992,9.875199601
1.683E+18,10.89641309,-0.058899999,-0.042099997,0.0111,,,0.912099957,-0.958000004,9.717000008,,544,0.853199959,-1.000100002,9.728100007
1.683E+18,10.91641309,-0.0309,0.023,0.079599999,,,0.913499951,-0.954599977,9.717199326,,545,0.882599952,-0.931599976,9.796799324
1.683E+18,10.93641309,-0.0098,-0.033099998,0.246399999,,,0.912,-0.957299948,9.717000008,,546,0.9022,-0.990399946,9.963400006
1.683E+18,10.95641309,0.0016,-0.0134,0.246299997,,,0.910299957,-0.957399964,9.717199326,,547,0.911899957,-0.970799964,9.963499323
1.683E+18,10.97641309,-0.057299998,-0.0669,0.098699994,,,0.91049999,-0.952899992,9.717599869,,548,0.853199992,-1.019799992,9.816299863
1.683E+18,10.99641309,-0.021299999,-0.050899997,0.079099998,,,0.913699985,-0.949199975,9.717700005,,549,0.892399985,-1.000099972,9.796800002
1.683E+18,11.01641309,-0.0211,-0.0022,0.167300001,,,0.913499951,-0.949000001,9.717700005,,550,0.892399952,-0.951200001,9.885000005
1.683E+18,11.03642407,0.0188,-0.0207,0.206499994,,,0.912799954,-0.949999988,9.717700005,,551,0.931599954,-0.970699988,9.924199998
1.683E+18,11.05641309,0.0096,-0.042300001,0.127800003,,,0.912199974,-0.948099971,9.717899323,,552,0.921799974,-0.990399972,9.845699325
1.683E+18,11.07641309,-0.0008,-0.0048,0.088500001,,,0.912799954,-0.946399987,9.717999458,,553,0.911999954,-0.951199987,9.806499459
1.683E+18,11.09641309,-0.040100001,-0.022499999,0.235799998,,,0.912899971,-0.948199987,9.717899323,,554,0.87279997,-0.970699986,9.953699321
1.683E+18,11.11641309,-0.068399996,0.047599997,0.206399992,,,0.911799967,-0.949799955,9.71780014,,555,0.843399972,-0.902199958,9.924200132
1.683E+18,11.13641309,-0.039099999,0.055299997,0.166999996,,,0.911899984,-0.947699964,9.717999458,,556,0.872799985,-0.892399967,9.884999454
1.683E+18,11.15641309,0.069499999,0.052999999,0.196099997,,,0.91109997,-0.9454,9.718299866,,557,0.98059997,-0.8924,9.914399862
1.683E+18,11.17641309,0.077,-0.057999998,0.156800002,,,0.913299978,-0.942200005,9.718400002,,558,0.990299977,-1.000200003,9.875200003
1.683E+18,11.19641309,0.062600002,-0.0341,0.068399996,,,0.917899966,-0.936699986,9.718500137,,559,0.980499968,-0.970799986,9.786900133
1.683E+18,11.21641309,0.0115,-0.0276,0.078099996,,,0.919999957,-0.933399975,9.718599319,,560,0.931499957,-0.960999975,9.796699315
1.683E+18,11.23641309,-0.016799999,-0.037599999,0.185900003,,,0.91899997,-0.933200002,9.718699455,,561,0.902199971,-0.970800001,9.904599458
1.683E+18,11.25641309,-0.035700001,-0.057499997,0.156399995,,,0.918299973,-0.932899952,9.718799591,,562,0.882599972,-0.990399949,9.875199586
1.683E+18,11.27641162,-0.058899999,-0.079499997,0.087799996,,,0.921899974,-0.930499971,9.718699455,,563,0.862999976,-1.009999968,9.806499451
1.683E+18,11.29641309,0.0081,-0.080699995,0.107499994,,,0.923399985,-0.929299951,9.718699455,,564,0.931499985,-1.009999946,9.82619945
1.683E+18,11.31641309,0.019099999,-0.088999994,0.146699995,,,0.922199965,-0.930799961,9.718699455,,565,0.941299964,-1.019799955,9.86539945
1.683E+18,11.33641309,0.0106,-0.067699999,0.136999995,,,0.921000004,-0.932399988,9.718599319,,566,0.931600004,-1.000099987,9.855599314
1.683E+18,11.35641309,0.040100001,-0.045399997,0.156800002,,,0.920899987,-0.935199976,9.718400002,,567,0.960999988,-0.980599973,9.875200003
1.683E+18,11.37641309,0.056899998,0.0276,0.177100003,,,0.923699975,-0.939599991,9.717700005,,568,0.980599973,-0.911999991,9.894800007
1.683E+18,11.39641309,0.0254,0.050999999,0.216899991,,,0.925799966,-0.943399966,9.717100143,,569,0.951199966,-0.892399967,9.934000134
1.683E+18,11.41641309,-0.064199999,-0.0066,0.18779999,,,0.92719996,-0.944499969,9.716899872,,570,0.862999961,-0.951099969,9.904699862
1.683E+18,11.43641309,-0.0845,0.0222,0.158399999,,,0.927899957,-0.944000006,9.716799736,,571,0.843399957,-0.921800006,9.875199735
1.683E+18,11.45641309,-0.093999997,0.043099999,0.197699994,,,0.927599967,-0.9454,9.7166996,,572,0.83359997,-0.9023,9.914399594
1.683E+18,11.47641309,-0.064599998,0.035799999,0.1391,,,0.927599967,-0.947799981,9.716499329,,573,0.862999968,-0.911999982,9.855599329
1.683E+18,11.49641309,-0.044999998,-0.0035,0.089999996,,,0.927599967,-0.947599947,9.716499329,,574,0.882599968,-0.951099947,9.806499325
1.683E+18,11.51641309,0.043199997,0.016799999,0.237199992,,,0.927599967,-0.948499978,9.716400146,,575,0.970799964,-0.931699978,9.953600138
1.683E+18,11.53642407,0.055599999,0.050099999,0.345200002,,,0.924899995,-0.952299953,9.716300011,,576,0.980499994,-0.902199954,10.06150001
1.683E+18,11.55641309,1E-04,-0.0093,0.217299998,,,0.921599984,-0.951599956,9.7166996,,577,0.921699984,-0.960899956,9.933999598
1.683E+18,11.57641309,-0.0296,-0.0634,0.0109,,,0.921999991,-0.94659996,9.717199326,,578,0.892399991,-1.009999961,9.728099326
1.683E+18,11.59641309,0.015199999,-0.0156,0.0014,,,0.926199973,-0.945299983,9.716899872,,579,0.941399972,-0.960899983,9.718299872
1.683E+18,11.61641309,0.0252,0.0083,0.158699989,,,0.925899982,-0.949799955,9.716499329,,580,0.951099982,-0.941499955,9.875199318
1.683E+18,11.63641309,0.0296,0.0142,0.247099996,,,0.921599984,-0.95569998,9.716300011,,581,0.951199984,-0.94149998,9.963400006
1.683E+18,11.65641309,-0.017199999,0.006,0.148999989,,,0.919399977,-0.957299948,9.716400146,,582,0.902199978,-0.951299948,9.865400136
1.683E+18,11.67641309,0.012499999,0.045199998,0.168599993,,,0.91899997,-0.957199991,9.716400146,,583,0.931499969,-0.911999993,9.885000139
1.683E+18,11.69641309,0.073100001,-0.002,0.227499992,,,0.917299986,-0.958899975,9.716400146,,584,0.990399987,-0.960899975,9.943900138
1.683E+18,11.71641309,0.102199994,0.0276,0.139300004,,,0.917599976,-0.959199965,9.716300011,,585,1.01979997,-0.931599965,9.855600014
1.683E+18,11.73641309,0.148699999,0.046599999,0.070799999,,,0.920099974,-0.958700001,9.716199875,,586,1.068799973,-0.912100002,9.786999874
1.683E+18,11.75641309,0.097099997,0.027999999,0.129999995,,,0.922699988,-0.959599972,9.715799332,,587,1.019799985,-0.931599973,9.845799327
1.683E+18,11.77641309,0.0184,0.0286,0.188899994,,,0.922899961,-0.960199952,9.71570015,,588,0.941299962,-0.931599952,9.904600143
1.683E+18,11.79641309,-0.059899997,0.037699997,0.169200003,,,0.922899961,-0.959599972,9.715799332,,589,0.862999965,-0.921899974,9.884999335
1.683E+18,11.81641309,-0.0105,0.046399999,0.149399996,,,0.922499955,-0.958399951,9.715899467,,590,0.911999955,-0.911999952,9.865299463
1.683E+18,11.83641309,0.0581,0.055999998,0.178800002,,,0.922399998,-0.958199978,9.715999603,,591,0.980499998,-0.90219998,9.894799605
1.683E+18,11.85641309,0.076799996,0.0458,0.169100001,,,0.923399985,-0.957799971,9.715899467,,592,1.000199981,-0.911999971,9.884999469
1.683E+18,11.87641309,0.0263,-0.0048,0.129799992,,,0.924799979,-0.956099987,9.715999603,,593,0.951099979,-0.960899987,9.845799595
1.683E+18,11.89641309,0.034299999,0.0231,0.129899994,,,0.926599979,-0.95479995,9.715899467,,594,0.960899979,-0.93169995,9.845799461
1.683E+18,11.91641309,0.0035,-0.025599999,0.159400001,,,0.92809999,-0.954999983,9.715799332,,595,0.93159999,-0.980599983,9.875199333
1.683E+18,11.93641309,0.0031,-0.006,0.179099992,,,0.92839998,-0.954999983,9.71570015,,596,0.93149998,-0.960999983,9.894800141
1.683E+18,11.95641309,-0.0174,0.0524,0.179099992,,,0.929399967,-0.954599977,9.71570015,,597,0.911999967,-0.902199976,9.894800141
1.683E+18,11.97641309,0.0024,0.021599999,0.208399996,,,0.929099977,-0.953199983,9.715799332,,598,0.931499977,-0.931599984,9.924199328
1.683E+18,11.99641309,0.0206,-0.029299999,0.129899994,,,0.930499971,-0.951299965,9.715899467,,599,0.951099971,-0.980599964,9.845799461
1.683E+18,12.01641309,0.026899999,0.0085,0.1105,,,0.933999956,-0.949899971,9.71570015,,600,0.960899955,-0.941399972,9.82620015
1.683E+18,12.03642407,-0.0241,-0.0012,0.140100002,,,0.936199963,-0.949899971,9.715499878,,601,0.912099963,-0.951099971,9.85559988
1.683E+18,12.05641309,-0.034299999,-0.0012,0.169599995,,,0.936499953,-0.949899971,9.715399742,,602,0.902199954,-0.951099971,9.884999737
1.683E+18,12.07641309,-0.054099999,0.026899999,0.149899989,,,0.936699986,-0.948799968,9.715499878,,603,0.882599987,-0.921899969,9.865399867
1.683E+18,12.09641309,0.0043,0.025999999,0.198799998,,,0.936999977,-0.947899997,9.715600014,,604,0.941299976,-0.921899999,9.914400011
1.683E+18,12.11641309,-0.024999999,-0.0634,0.159500003,,,0.936999977,-0.94659996,9.71570015,,605,0.911999978,-1.009999961,9.875200152
1.683E+18,12.13641309,0.032400001,0.0016,0.090599999,,,0.938399971,-0.943099976,9.715899467,,606,0.970799971,-0.941499976,9.806499466
1.683E+18,12.15641309,0.0218,-0.037900001,0.169100001,,,0.939099967,-0.942699969,9.715899467,,607,0.960899968,-0.98059997,9.884999469
1.683E+18,12.17641309,-0.0063,-0.0162,0.208399996,,,0.937999964,-0.944700003,9.715799332,,608,0.931699964,-0.960900003,9.924199328
1.683E+18,12.19641309,0.0029,0.052199997,0.159400001,,,0.938399971,-0.944599986,9.715799332,,609,0.94129997,-0.892399989,9.875199333
1.683E+18,12.21641309,-0.0058,-0.0079,0.178800002,,,0.9375,-0.943199992,9.715999603,,610,0.9317,-0.951099992,9.894799605
1.683E+18,12.23641309,0.0138,-0.029299999,0.158999994,,,0.937299967,-0.941499949,9.716199875,,611,0.951099967,-0.970799947,9.875199869
1.683E+18,12.25641309,0.023699999,-0.0016,0.148999989,,,0.937299967,-0.939799964,9.716400146,,612,0.960999966,-0.941399964,9.865400136
1.683E+18,12.27641309,0.0449,-0.0218,0.178199992,,,0.935699999,-0.939099967,9.716599464,,613,0.980599999,-0.960899968,9.894799456
1.683E+18,12.29641309,0.015299999,-0.031500001,0.129199997,,,0.935799956,-0.939300001,9.716499329,,614,0.951099955,-0.970800001,9.845699325
1.683E+18,12.31641309,0.0132,0.024899999,0.099799998,,,0.937899947,-0.93689996,9.716599464,,615,0.951099947,-0.911999961,9.816399463
1.683E+18,12.33641309,0.0025,-0.044799998,0.217399999,,,0.938799977,-0.935799956,9.716599464,,616,0.941299977,-0.980599955,9.933999464
1.683E+18,12.35641309,-0.0154,-0.085499994,0.2368,,,0.937299967,-0.934300005,9.716899872,,617,0.921899967,-1.0198,9.953699872
1.683E+18,12.37641309,0.0044,-0.0986,0.089299999,,,0.936999977,-0.930999994,9.717199326,,618,0.941399977,-1.029599994,9.806499325
1.683E+18,12.39641309,0.060999997,-0.002,0.0502,,,0.939199984,-0.929499984,9.717199326,,619,1.000199981,-0.931499984,9.767399326
1.683E+18,12.41641309,0.079999998,-0.0076,0.187899992,,,0.939799964,-0.933699965,9.7166996,,620,1.019799963,-0.941299965,9.904599592
1.683E+18,12.43641309,0.0307,0.035099998,0.149099991,,,0.939999998,-0.937299967,9.716300011,,621,0.970699998,-0.902199969,9.865400001
1.683E+18,12.45641309,-0.037799999,0.052699998,0.099799998,,,0.939999998,-0.935299993,9.716499329,,622,0.902199998,-0.882599995,9.816299327
1.683E+18,12.47641309,-0.065099999,-0.0471,0.0995,,,0.937899947,-0.933399975,9.716899872,,623,0.872799948,-0.980499975,9.816399872
1.683E+18,12.49641309,0.0035,-0.0064,0.128999993,,,0.937899947,-0.934899986,9.716799736,,624,0.941399947,-0.941299986,9.845799729
1.683E+18,12.51641309,0.071199998,0.075800002,0.247199997,,,0.938799977,-0.938799977,9.716300011,,625,1.009999976,-0.862999976,9.963500008
1.683E+18,12.53642407,0.063699998,0.060699999,0.325800002,,,0.936499953,-0.943299949,9.716099739,,626,1.000199951,-0.88259995,10.04189974
1.683E+18,12.55641309,0.027199998,0.039699998,0.168499991,,,0.933799982,-0.941899955,9.716499329,,627,0.960999981,-0.902199958,9.88499932
1.683E+18,12.57641309,0.0548,0.044199999,0.011299999,,,0.935599983,-0.93659997,9.716799736,,628,0.990399983,-0.89239997,9.728099735
1.683E+18,12.59641309,0.052499998,0.004,0.109499998,,,0.93779999,-0.935599983,9.7166996,,629,0.990299989,-0.931599983,9.826199599
1.683E+18,12.61641309,0.042300001,0.0263,0.207800001,,,0.938199997,-0.938299954,9.716400146,,630,0.980499998,-0.911999954,9.924200147
1.683E+18,12.63641309,0.014599999,0.066199996,0.246899992,,,0.936499953,-0.938999951,9.716499329,,631,0.951099953,-0.872799955,9.963399321
1.683E+18,12.65641309,0.0074,0.0252,0.217099994,,,0.933999956,-0.93719995,9.716899872,,632,0.941399956,-0.91199995,9.933999866
1.683E+18,12.67641309,0.0757,0.081699997,0.099199995,,,0.934300005,-0.934799969,9.717100143,,633,1.010000005,-0.853099972,9.816300139
1.683E+18,12.69641309,0.102299996,0.0614,0.168099999,,,0.937099993,-0.934199989,9.716899872,,634,1.039399989,-0.872799989,9.884999871
1.683E+18,12.71641309,0.033,-0.0471,0.168099999,,,0.937699974,-0.933499992,9.716899872,,635,0.970699973,-0.980599992,9.884999871
1.683E+18,12.73641309,-0.0085,-0.090099998,0.069899999,,,0.940099955,-0.929699957,9.717000008,,636,0.931599955,-1.019799955,9.786900006
1.683E+18,12.75641309,-0.0493,-0.063099995,0.030599998,,,0.941699982,-0.927299976,9.717100143,,637,0.892399982,-0.990399972,9.747700142
1.683E+18,12.77641309,-0.0385,-0.0015,0.187699988,,,0.940699995,-0.930099964,9.717000008,,638,0.902199995,-0.931599964,9.904699996
1.683E+18,12.79641309,-0.045599997,-0.015799999,0.305599988,,,0.937999964,-0.93539995,9.7166996,,639,0.892399967,-0.951199949,10.02229959
1.683E+18,12.81641309,-0.035299998,-0.0447,0.197699994,,,0.9375,-0.935899973,9.7166996,,640,0.902200002,-0.980599973,9.914399594
1.683E+18,12.83641309,-0.028899999,-0.0372,0.099799998,,,0.940899968,-0.933599949,9.716599464,,641,0.911999969,-0.970799949,9.816399463
1.683E+18,12.85641309,-0.089999996,-0.1061,0.090099998,,,0.943199992,-0.933299959,9.716400146,,642,0.853199996,-1.039399959,9.806500144
1.683E+18,12.87641309,-0.100099996,-0.056199998,0.100099996,,,0.943399966,-0.934099972,9.716300011,,643,0.84329997,-0.99029997,9.816400006
1.683E+18,12.89641309,-0.0902,-0.0037,0.178800002,,,0.943399966,-0.937699974,9.715999603,,644,0.853199966,-0.941399974,9.894799605
1.683E+18,12.91641309,-0.0274,0.059099998,0.2377,,,0.939399958,-0.941699982,9.715999603,,645,0.911999958,-0.882599983,9.953699604
1.683E+18,12.93641309,-0.004,0.0017,0.198200002,,,0.935699999,-0.943099976,9.716199875,,646,0.9317,-0.941399976,9.914399877
1.683E+18,12.95641309,-0.0251,0.0109,0.090399995,,,0.937099993,-0.942499995,9.716099739,,647,0.911999993,-0.931599995,9.806499735
1.683E+18,12.97641309,-0.0165,0.041499998,0.139699996,,,0.938299954,-0.943699956,9.715899467,,648,0.921799954,-0.902199958,9.855599463
1.683E+18,12.99641309,-0.032899998,0.075199999,0.237899989,,,0.935099959,-0.947999954,9.715799332,,649,0.902199961,-0.872799955,9.953699321
1.683E+18,13.01641309,-0.067000002,0.057399999,0.247400001,,,0.929999948,-0.949799955,9.716099739,,650,0.862999946,-0.892399956,9.96349974
1.683E+18,13.03642407,-0.064800002,0.035799999,0.0999,,,0.9278,-0.947799981,9.716499329,,651,0.862999998,-0.911999982,9.816399328
1.683E+18,13.05641309,-0.0062,0.034399997,0.1096,,,0.92809999,-0.946399987,9.716599464,,652,0.92189999,-0.911999989,9.826199464
1.683E+18,13.07641309,0.054299999,0.015799999,0.187899992,,,0.926199973,-0.947399974,9.7166996,,653,0.980499972,-0.931599975,9.904599592
1.683E+18,13.09641309,0.066299997,0.0064,0.197599992,,,0.924099982,-0.947799981,9.716799736,,654,0.990399979,-0.941399981,9.914399728
1.683E+18,13.11641309,0.02,-0.024599999,0.148100004,,,0.921299994,-0.946099997,9.717299461,,655,0.941299994,-0.970699996,9.865399465
1.683E+18,13.13641309,0.001,0.0126,0.088999994,,,0.920699954,-0.944199979,9.717499733,,656,0.921699954,-0.931599979,9.806499727
1.683E+18,13.15641309,-0.027799999,0.012499999,0.088999994,,,0.92019999,-0.944099963,9.717599869,,657,0.892399991,-0.931599963,9.806599863
1.683E+18,13.17641309,0.031399999,-0.056899998,0.128099993,,,0.919699967,-0.943199992,9.717700005,,658,0.951099966,-1.000099991,9.845799997
1.683E+18,13.19641309,0.069200002,-0.077,0.206599995,,,0.921199977,-0.942799985,9.717599869,,659,0.990399979,-1.019799985,9.924199864
1.683E+18,13.21641309,0.0115,-0.085999995,0.17719999,,,0.919999957,-0.943599999,9.717599869,,660,0.931499957,-1.029599994,9.894799858
1.683E+18,13.23641309,0.051199999,0.0319,0.118299998,,,0.919499993,-0.943899989,9.717700005,,661,0.970699992,-0.911999989,9.836000003
1.683E+18,13.25641309,0.0414,0.0243,0.148000002,,,0.919499993,-0.946099997,9.717399597,,662,0.960899994,-0.921799997,9.865399599
1.683E+18,13.27641309,0,0.026699999,0.148399994,,,0.921899974,-0.948499978,9.717000008,,663,0.921899974,-0.921799978,9.865400001
1.683E+18,13.29641309,-0.089199997,0.015899999,0.109200001,,,0.922699988,-0.94749999,9.717000008,,664,0.83349999,-0.931599991,9.826200008
1.683E+18,13.31641309,-0.117599994,0.034199998,0.118699998,,,0.921700001,-0.946199954,9.717199326,,665,0.804100007,-0.911999956,9.835899323
1.683E+18,13.33641309,-0.096599996,0.035799999,0.167799994,,,0.920399964,-0.947799981,9.717199326,,666,0.823799968,-0.911999982,9.88499932
1.683E+18,13.35641309,0.0021,0.058399998,0.226899996,,,0.919699967,-0.950800002,9.717000008,,667,0.921799967,-0.892400004,9.943900004
1.683E+18,13.37641309,0.061099999,0.040799998,0.256500006,,,0.919499993,-0.952799976,9.716799736,,668,0.980599992,-0.911999978,9.973299742
1.683E+18,13.39641309,0.040799998,-0.0175,0.148699999,,,0.92019999,-0.953299999,9.7166996,,669,0.960999988,-0.970799999,9.865399599
1.683E+18,13.41641309,-0.019199999,0.0016,0.0801,,,0.921399951,-0.952799976,9.716599464,,670,0.902199952,-0.951199976,9.796699464
1.683E+18,13.43641309,-0.050699998,0.0028,0.100099996,,,0.923500001,-0.953999996,9.716300011,,671,0.872800004,-0.951199996,9.816400006
1.683E+18,13.45641309,-0.0121,0.064399995,0.218099996,,,0.924099982,-0.956799984,9.715999603,,672,0.911999982,-0.892399989,9.9340996
1.683E+18,13.47641309,-0.0308,0.0276,0.237899989,,,0.923199952,-0.959299982,9.715799332,,673,0.892399952,-0.931699982,9.953699321
1.683E+18,13.49641309,-0.0096,0.0058,0.119799994,,,0.921599984,-0.956999958,9.716199875,,674,0.911999985,-0.951199958,9.835999869
1.683E+18,13.51641309,0.059,-0.016899999,0.0999,,,0.921599984,-0.95389998,9.716499329,,675,0.980599985,-0.970799979,9.816399328
1.683E+18,13.53642407,0.0867,-0.035399999,0.109999999,,,0.923299968,-0.954999983,9.716199875,,676,1.009999968,-0.990399983,9.826199874
1.683E+18,13.55641479,0.083799995,-0.0138,0.159400001,,,0.926099956,-0.956900001,9.71570015,,677,1.009899952,-0.9707,9.875100151
1.683E+18,13.5764165,0.0241,-0.0035,0.15959999,,,0.926999986,-0.957499981,9.715600014,,678,0.951099986,-0.960999981,9.875200003
1.683E+18,13.5964165,-0.0438,-0.0337,0.159500003,,,0.926400006,-0.956699967,9.71570015,,679,0.882600006,-0.990399968,9.875200152
1.683E+18,13.61641309,-0.0438,-0.035,0.129899994,,,0.926400006,-0.95539999,9.715899467,,680,0.882600006,-0.99039999,9.845799461
1.683E+18,13.63641309,0.0022,-0.044599999,0.140000001,,,0.929399967,-0.955599964,9.715600014,,681,0.931599967,-1.000199962,9.855600014
1.683E+18,13.65641309,0.047499999,0.015999999,0.189599991,,,0.933099985,-0.957399964,9.715000153,,682,0.980599985,-0.941399965,9.904600143
1.683E+18,13.67641309,0.0173,-0.011899999,0.189799994,,,0.933799982,-0.958799958,9.714799881,,683,0.951099982,-0.970699958,9.904599875
1.683E+18,13.69641309,-0.012499999,0.065799996,0.140699998,,,0.934300005,-0.958199978,9.714799881,,684,0.921800006,-0.892399982,9.855499879
1.683E+18,13.71641309,-0.052199997,0.036599997,0.160400003,,,0.934799969,-0.958399951,9.714799881,,685,0.882599972,-0.921799954,9.875199884
1.683E+18,13.73641309,-0.072899997,0.0175,0.1998,,,0.935899973,-0.958999991,9.714599609,,686,0.862999976,-0.941499991,9.914399609
1.683E+18,13.75641309,-0.0748,0.037099998,0.150999993,,,0.937699974,-0.958999991,9.714399338,,687,0.862899974,-0.921899993,9.865399331
1.683E+18,13.77641309,-0.027199998,0.026899999,0.150999993,,,0.939199984,-0.958499968,9.714300156,,688,0.911999986,-0.931599969,9.865300149
1.683E+18,13.79641309,-0.0055,0.0266,0.160599992,,,0.937099993,-0.958199978,9.714599609,,689,0.931599993,-0.931599978,9.875199601
1.683E+18,13.81641309,-0.0042,0.0068,0.170299992,,,0.935799956,-0.958000004,9.714699745,,690,0.931599956,-0.951200005,9.884999737
1.683E+18,13.83641309,0.015099999,0.036199998,0.219300002,,,0.936100006,-0.958000004,9.714699745,,691,0.951200006,-0.921800006,9.933999747
1.683E+18,13.85641309,-0.034600001,-0.032299999,0.170399994,,,0.936800003,-0.958099961,9.714599609,,692,0.902200002,-0.99039996,9.884999603
1.683E+18,13.87641309,-0.0145,0.034499999,0.121099994,,,0.93629998,-0.956299961,9.714799881,,693,0.92179998,-0.921799961,9.835899875
1.683E+18,13.89641309,0.016099999,-0.034699999,0.150399998,,,0.935099959,-0.955599964,9.715000153,,694,0.951199958,-0.990299962,9.86540015
1.683E+18,13.91641309,0.076099999,0.033299997,0.159999996,,,0.933899999,-0.955199957,9.715199471,,695,1.009999998,-0.921899959,9.875199467
1.683E+18,13.93641309,0.075800002,-0.085099995,0.169799998,,,0.934199989,-0.954299986,9.715199471,,696,1.00999999,-1.039399981,9.884999469
1.683E+18,13.95641309,-0.0027,-0.067499995,0.0911,,,0.934300005,-0.952299953,9.715399742,,697,0.931600006,-1.019799948,9.806499742
1.683E+18,13.97641309,0.0253,-0.0095,0.159799993,,,0.935699999,-0.951499999,9.715399742,,698,0.960999999,-0.960999998,9.875199735
1.683E+18,13.99641309,-0.031599998,-0.066,0.248099998,,,0.933799982,-0.953799963,9.715299606,,699,0.902199984,-1.019799963,9.963399604
1.683E+18,14.01641309,-0.0105,-0.0372,0.149899989,,,0.932299972,-0.953199983,9.715499878,,700,0.921799972,-0.990399983,9.865399867
1.683E+18,14.03642407,0.0071,-0.0094,0.032199997,,,0.934300005,-0.951499999,9.715499878,,701,0.941400005,-0.960899998,9.747699875
1.683E+18,14.05641309,0.0449,0.0016,0.130500004,,,0.935699999,-0.952899992,9.715199471,,702,0.980599999,-0.951299993,9.845699474
1.683E+18,14.07641309,0.0071,-0.092999995,0.268000007,,,0.934199989,-0.956200004,9.715000153,,703,0.941299989,-1.049199998,9.983000159
1.683E+18,14.09641309,-0.029099999,-0.042300001,0.218899995,,,0.931299984,-0.957899988,9.715199471,,704,0.902199985,-1.000199988,9.934099466
1.683E+18,14.11641309,-0.028199999,0.0274,0.179700002,,,0.930399954,-0.959099948,9.715099335,,705,0.902199956,-0.931699948,9.894799337
1.683E+18,14.13641309,0.020199999,0.0296,0.140699998,,,0.930999994,-0.961299956,9.714900017,,706,0.951199993,-0.931699956,9.855600014
1.683E+18,14.15641309,-0.0099,0.040399998,0.121299997,,,0.931699991,-0.962199986,9.714699745,,707,0.921799991,-0.921799988,9.835999742
1.683E+18,14.17641309,-0.0003,0.040100001,0.111499995,,,0.931999981,-0.961999953,9.714699745,,708,0.931699981,-0.921899952,9.82619974
1.683E+18,14.19641309,-0.0274,0.0014,0.170099989,,,0.929699957,-0.96239996,9.714900017,,709,0.902299957,-0.96099996,9.885000005
1.683E+18,14.21641309,-0.026699999,0.0117,0.160300002,,,0.928900003,-0.962899983,9.714900017,,710,0.902200004,-0.951199983,9.875200018
1.683E+18,14.23641309,-0.0069,0.031599998,0.189699993,,,0.92869997,-0.96329999,9.714900017,,711,0.92179997,-0.931699991,9.904600009
1.683E+18,14.25641309,0.073199995,0.032499999,0.209299996,,,0.926999986,-0.964100003,9.715000153,,712,1.000199981,-0.931600004,9.924300149
1.683E+18,14.27641309,0.074199997,0.0027,0.189499989,,,0.925999999,-0.963699996,9.715099335,,713,1.000199996,-0.960999997,9.904599324
1.683E+18,14.29641309,0.053199999,-0.009,0.081599995,,,0.927399993,-0.961799979,9.715099335,,714,0.980599992,-0.970799979,9.79669933
1.683E+18,14.31641309,0.0219,-0.0105,0.091399997,,,0.929299951,-0.960299969,9.715099335,,715,0.951199951,-0.970799969,9.806499332
1.683E+18,14.33641309,0.0138,-0.0199,0.159899995,,,0.92749995,-0.960599959,9.715299606,,716,0.94129995,-0.980499959,9.875199601
1.683E+18,14.35641309,0.034899998,-0.029099999,0.159899995,,,0.926099956,-0.961299956,9.715299606,,717,0.960999954,-0.990399955,9.875199601
1.683E+18,14.37641309,0.100899994,0.0295,0.130699992,,,0.92869997,-0.961099982,9.715099335,,718,1.029599965,-0.931599982,9.845799327
1.683E+18,14.39641309,0.089199997,0.0111,0.209399998,,,0.930599988,-0.96239996,9.714799881,,719,1.019799985,-0.95129996,9.924199879
1.683E+18,14.41641309,0.020499999,0.0117,0.130999997,,,0.930599988,-0.962899983,9.714699745,,720,0.951099986,-0.951199983,9.845699742
1.683E+18,14.43641309,-0.0118,0.030299999,0.042999998,,,0.933599949,-0.961899996,9.714499474,,721,0.921799949,-0.931599997,9.757499471
1.683E+18,14.45641309,-0.0047,0.032099999,0.131699994,,,0.93629998,-0.963699996,9.714099884,,722,0.93159998,-0.931599997,9.845799878
1.683E+18,14.47641309,-0.035,0.085699998,0.269499987,,,0.93719995,-0.968299985,9.713600159,,723,0.90219995,-0.882599987,9.983100146
1.683E+18,14.49641309,-0.045499999,0.037499998,0.210799992,,,0.937899947,-0.969099998,9.713399887,,724,0.892399948,-0.931600001,9.924199879
1.683E+18,14.51641309,-0.086199999,-0.0042,0.171499997,,,0.939399958,-0.966600001,9.713500023,,725,0.853199959,-0.970800001,9.88500002
1.683E+18,14.53642407,-0.079599999,-0.0054,0.152099997,,,0.942599952,-0.965399981,9.713299751,,726,0.862999953,-0.97079998,9.865399748
1.683E+18,14.55641309,-0.0231,0.034499999,0.171999991,,,0.944999993,-0.966199994,9.712999344,,727,0.921899993,-0.931699995,9.884999335
1.683E+18,14.57641309,-0.024599999,0.035499997,0.211399987,,,0.946399987,-0.967099965,9.712800026,,728,0.921799988,-0.931599967,9.924200013
1.683E+18,14.59641309,-0.044099998,0.024499999,0.240699992,,,0.94629997,-0.965999961,9.712900162,,729,0.902199972,-0.941499962,9.953600153
1.683E+18,14.61641309,-0.112199999,-0.0484,0.161799997,,,0.945799947,-0.961599946,9.713399887,,730,0.833599947,-1.009999946,9.875199884
1.683E+18,14.63641309,-0.093199998,-0.073299997,0.073100001,,,0.946399987,-0.956299961,9.713899612,,731,0.853199989,-1.029599957,9.786999613
1.683E+18,14.65641309,-0.025999999,-0.0744,0.082899995,,,0.947799981,-0.955199957,9.713799477,,732,0.921799982,-1.029599957,9.796699472
1.683E+18,14.67641309,0.033099998,-0.0229,0.151799992,,,0.94749999,-0.957699955,9.713600159,,733,0.980599988,-0.980599955,9.86540015
1.683E+18,14.69641309,0.045399997,0.0084,0.220399991,,,0.944999993,-0.959599972,9.713699341,,734,0.99039999,-0.951199972,9.934099331
1.683E+18,14.71641309,0.0088,-0.060699999,0.161200002,,,0.942299962,-0.959099948,9.713999748,,735,0.951099962,-1.019799948,9.87519975
1.683E+18,14.73641309,-0.0208,-0.063000001,0.063000001,,,0.942599952,-0.956799984,9.71420002,,736,0.921799952,-1.019799985,9.777200021
1.683E+18,14.75641309,0.015899999,-0.0229,0.131899998,,,0.94509995,-0.957699955,9.713899612,,737,0.960999949,-0.980599955,9.84579961
1.683E+18,14.77641309,0.055499997,-0.0087,0.210799992,,,0.944700003,-0.962099969,9.713500023,,738,1.0002,-0.97079997,9.924300015
1.683E+18,14.79641309,0.066100001,0.042399999,0.161899999,,,0.943899989,-0.96419996,9.713299751,,739,1.00999999,-0.921799961,9.87519975
1.683E+18,14.81641309,0.066,0.072099999,0.181500003,,,0.944000006,-0.96449995,9.713299751,,740,1.010000005,-0.892399952,9.894799754
1.683E+18,14.83641309,0.0275,-0.0053,0.191399992,,,0.943199992,-0.965499997,9.713299751,,741,0.970699992,-0.970799997,9.904699743
1.683E+18,14.85641309,0.0449,0.043699998,0.132699996,,,0.9454,-0.965499997,9.712999344,,742,0.9903,-0.921799999,9.84569934
1.683E+18,14.87641309,0.042300001,0.092999995,0.142800003,,,0.948099971,-0.965699971,9.712800026,,743,0.990399972,-0.872699976,9.855600029
1.683E+18,14.89641309,0.0032,0.066,0.241099998,,,0.947999954,-0.968299985,9.712499619,,744,0.951199954,-0.902299985,9.953599617
1.683E+18,14.91641309,-0.105499998,-0.0028,0.094099998,,,0.948899984,-0.967999995,9.712499619,,745,0.843399987,-0.970799995,9.806599617
1.683E+18,14.93641309,-0.078899994,0.061999999,0.064599998,,,0.951699972,-0.96419996,9.712599754,,746,0.872799978,-0.902199961,9.777199753
1.683E+18,14.95641309,-0.039499998,-0.053799998,0.300099999,,,0.951499999,-0.965999961,9.712399483,,747,0.912,-1.019799959,10.01249948
1.683E+18,14.97641309,0.061199997,0.0083,0.300199986,,,0.948799968,-0.969299972,9.712299347,,748,1.009999964,-0.960999972,10.01249933
1.683E+18,14.99641309,0.031599998,0.0162,0.152899995,,,0.948899984,-0.967499971,9.712499619,,749,0.980499983,-0.951299971,9.865399614
1.683E+18,15.01641309,0.029099999,0.0132,0.0744,,,0.951499999,-0.96449995,9.712599754,,750,0.980599998,-0.95129995,9.786999755
1.683E+18,15.03642407,-0.0131,0.0131,0.113899998,,,0.954599977,-0.964299977,9.712299347,,751,0.941499976,-0.951199977,9.826199345
1.683E+18,15.05641309,-0.072899997,-0.0062,0.143399999,,,0.955499947,-0.96449995,9.712200165,,752,0.88259995,-0.97069995,9.855600163
1.683E+18,15.07641309,-0.1021,-0.0076,0.143299997,,,0.955299973,-0.963199973,9.712299347,,753,0.853199974,-0.970799973,9.855599344
1.683E+18,15.09641309,-0.0713,0.001,0.123399995,,,0.95389998,-0.961999953,9.712599754,,754,0.88259998,-0.960999953,9.83599975
1.683E+18,15.11641309,0.0288,0.0003,0.181999996,,,0.951799989,-0.961399972,9.712800026,,755,0.980599988,-0.961099972,9.894800022
1.683E+18,15.13641162,0.098299995,-0.068399996,0.191699997,,,0.950899959,-0.961199999,9.712900162,,756,1.049199954,-1.029599994,9.904600158
1.683E+18,15.15641309,0.104499996,-0.020499999,0.123299994,,,0.95449996,-0.959999979,9.71269989,,757,1.058999956,-0.980499977,9.835999884
1.683E+18,15.17641309,0.0231,0.037799999,0.172600001,,,0.957499981,-0.959599972,9.712399483,,758,0.980599981,-0.921799973,9.884999484
1.683E+18,15.19641309,-0.105099998,-0.061099999,0.19219999,,,0.958299994,-0.958700001,9.712499619,,759,0.853199996,-1.0198,9.904699609
1.683E+18,15.21641309,-0.135600001,-0.055399999,0.083999999,,,0.959299982,-0.954599977,9.712800026,,760,0.823699981,-1.009999976,9.796800025
1.683E+18,15.23641309,-0.061199997,0.010199999,0.093899995,,,0.963399947,-0.951699972,9.712599754,,761,0.90219995,-0.941499973,9.806499749
1.683E+18,15.25641309,0.025599999,0.0028,0.211999997,,,0.9648,-0.953999996,9.712299347,,762,0.9904,-0.951199996,9.924299344
1.683E+18,15.27641309,0.045499999,0.014699999,0.261199981,,,0.96449995,-0.956200004,9.712100029,,763,1.009999949,-0.941500004,9.97330001
1.683E+18,15.29641309,-0.074299999,-0.036599997,0.153300002,,,0.966699958,-0.953799963,9.712100029,,764,0.892399959,-0.99039996,9.865400031
1.683E+18,15.31641309,-0.136699989,-0.0307,0.055199999,,,0.970299959,-0.949799955,9.712100029,,765,0.83359997,-0.980499955,9.767300028
1.683E+18,15.33641309,-0.099599995,0.037,0.094599999,,,0.97239995,-0.949099958,9.711999893,,766,0.872799955,-0.912099957,9.806599893
1.683E+18,15.35641309,-0.0392,0.030499998,0.231999993,,,0.970799983,-0.952299953,9.711799622,,767,0.931599982,-0.921799954,9.943799615
1.683E+18,15.37641309,-0.0062,0.031399999,0.241599992,,,0.967299998,-0.953299999,9.712100029,,768,0.961099998,-0.9219,9.953700021
1.683E+18,15.39641309,0.0144,-0.059899997,0.143099993,,,0.966099977,-0.950100005,9.712499619,,769,0.980499977,-1.010000002,9.855599612
1.683E+18,15.41641309,0.0722,0.0059,0.133100003,,,0.967199981,-0.947299957,9.71269989,,770,1.039399981,-0.941399958,9.845799893
1.683E+18,15.43641309,0.080600001,0.027899999,0.221699998,,,0.968599975,-0.949799955,9.712299347,,771,1.049199976,-0.921899956,9.933999345
1.683E+18,15.45641309,0.031799998,0.0096,0.182599992,,,0.968400002,-0.950999975,9.712200165,,772,1.0002,-0.941399976,9.894800156
1.683E+18,15.47641309,-0.057999998,-0.0133,0.0647,,,0.969999969,-0.947599947,9.712399483,,773,0.911999971,-0.960899947,9.777099483
1.683E+18,15.49641309,-0.030499998,0.043299999,0.0942,,,0.971899986,-0.945599973,9.712399483,,774,0.941399988,-0.902299974,9.806599483
1.683E+18,15.51641309,0.039899997,0.0063,0.221699998,,,0.969999969,-0.947799981,9.712399483,,775,1.009899966,-0.941499981,9.934099481
1.683E+18,15.53642407,0.0319,0.0071,0.182399988,,,0.968299985,-0.948599994,9.712499619,,776,1.000199985,-0.941499994,9.894899607
1.683E+18,15.55641309,0.031199999,0.034699999,0.13319999,,,0.968999982,-0.946699977,9.712599754,,777,1.000199981,-0.911999978,9.845799744
1.683E+18,15.57641309,0.040399998,0.044799998,0.231399998,,,0.969599962,-0.946999967,9.712499619,,778,1.009999961,-0.902199969,9.943899617
1.683E+18,15.59641309,0.0007,0.075099997,0.202099994,,,0.970099986,-0.947899997,9.712299347,,779,0.970799986,-0.8728,9.914399341
1.683E+18,15.61641309,0.0277,0.113600001,0.182599992,,,0.972499967,-0.947099984,9.712200165,,780,1.000199966,-0.833499983,9.894800156
1.683E+18,15.63641162,-0.021499999,0.082899995,0.202099994,,,0.972799957,-0.945899963,9.712299347,,781,0.951299958,-0.862999968,9.914399341
1.683E+18,15.65641309,-0.0128,0.118899994,0.152899995,,,0.973899961,-0.942599952,9.712499619,,782,0.961099961,-0.823699959,9.865399614
1.683E+18,15.67641309,-0.043199997,-0.0027,0.181999996,,,0.974899948,-0.938699961,9.712800026,,783,0.93169995,-0.941399961,9.894800022
1.683E+18,15.69641309,-0.044099998,-0.0062,0.191599995,,,0.975699961,-0.935199976,9.712999344,,784,0.931599963,-0.941399976,9.904599339
1.683E+18,15.71641309,-0.095899999,-0.0088,0.191599995,,,0.978499949,-0.932599962,9.712999344,,785,0.88259995,-0.941399962,9.904599339
1.683E+18,15.73641309,-0.116399996,0.0185,0.191499993,,,0.979299963,-0.930499971,9.71309948,,786,0.862899967,-0.911999971,9.904599473
1.683E+18,15.75641309,-0.115599997,0.0361,0.210899994,,,0.978599966,-0.928499997,9.713399887,,787,0.862999968,-0.892399997,9.924299881
1.683E+18,15.77641309,-0.131599993,-0.0469,0.180600002,,,0.974999964,-0.923799992,9.71420002,,788,0.843399972,-0.970699992,9.894800022
1.683E+18,15.79641309,-0.0042,-0.053299997,0.042799998,,,0.975099981,-0.917499959,9.714799881,,789,0.970899981,-0.970799956,9.757599879
1.683E+18,15.81641309,0.023,-0.106699996,0.052299999,,,0.977099955,-0.913100004,9.715000153,,790,1.000099955,-1.0198,9.767300151
1.683E+18,15.83641309,0.052299999,-0.178199992,0.13059999,,,0.977299988,-0.9102,9.715199471,,791,1.029599987,-1.088399991,9.845799461
1.683E+18,15.85641309,0.064499997,-0.158899993,0.159699991,,,0.974899948,-0.90989995,9.715499878,,792,1.039399944,-1.068799943,9.875199869
1.683E+18,15.87641309,0.076399997,-0.0495,0.15959999,,,0.972799957,-0.911399961,9.715600014,,793,1.049199954,-0.96089996,9.875200003
1.683E+18,15.89641309,0.096999995,-0.0287,0.090999998,,,0.971899986,-0.912599981,9.715499878,,794,1.068899982,-0.941299981,9.806499876
1.683E+18,15.91641309,0.066100001,0.0009,0.032299999,,,0.97329998,-0.912899971,9.715399742,,795,1.039399981,-0.911999971,9.747699741
1.683E+18,15.93641309,0.074499995,0.0024,0.042399999,,,0.974699974,-0.914399981,9.715099335,,796,1.049199969,-0.911999982,9.757499333
1.683E+18,15.95641309,0.046999998,0.0447,0.111199997,,,0.972799957,-0.917499959,9.715000153,,797,1.019799955,-0.872799959,9.82620015
1.683E+18,15.97641309,-0.009099999,0.0075,0.130699992,,,0.970099986,-0.919499993,9.715099335,,798,0.960999986,-0.911999993,9.845799327
1.683E+18,15.99641309,0.0105,-0.0195,0.160300002,,,0.970099986,-0.921899974,9.714900017,,799,0.980599985,-0.941399975,9.875200018
1.683E+18,16.01641309,0.0385,0.024899999,0.259000003,,,0.971499979,-0.927100003,9.71420002,,800,1.009999979,-0.902200004,9.973200023
1.683E+18,16.03642407,-0.0196,0.029899999,0.239899993,,,0.970899999,-0.932099998,9.713799477,,801,0.951299999,-0.902199998,9.95369947
1.683E+18,16.05641309,-0.017999999,0.0028,0.102600001,,,0.969299972,-0.934399962,9.713699341,,802,0.951299973,-0.931599963,9.816299342
1.683E+18,16.07641309,0.048899997,0.082099997,0.044,,,0.970899999,-0.935199976,9.713500023,,803,1.019799996,-0.853099979,9.757500023
1.683E+18,16.09641309,0.0092,0.087299995,0.211300001,,,0.971399963,-0.940499961,9.712900162,,804,0.980599963,-0.853199966,9.924200162
1.683E+18,16.11641309,-0.076699995,-0.0255,0.221299991,,,0.969199955,-0.945199966,9.71269989,,805,0.892499961,-0.970699966,9.933999881
1.683E+18,16.13641162,-0.057499997,0.0625,0.14289999,,,0.969500005,-0.94509995,9.71269989,,806,0.912000008,-0.88259995,9.85559988
1.683E+18,16.15641309,-0.046799999,0.015299999,0.192000002,,,0.968599975,-0.946899951,9.712599754,,807,0.921799976,-0.931599951,9.904599756
1.683E+18,16.17641309,0.0058,-0.0011,0.172399998,,,0.964999974,-0.949999988,9.71269989,,808,0.970799974,-0.951099988,9.885099888
1.683E+18,16.19641309,0.0361,0,0.123299994,,,0.963999987,-0.951199949,9.712599754,,809,1.000099987,-0.951199949,9.835899748
1.683E+18,16.21641309,0.073699996,0.069699995,0.113799997,,,0.965699971,-0.952299953,9.712399483,,810,1.039399967,-0.882599957,9.826199479
1.683E+18,16.23641309,0.0559,0.0036,0.202099994,,,0.96389997,-0.95479995,9.712299347,,811,1.01979997,-0.95119995,9.914399341
1.683E+18,16.25641309,0.0092,-0.0154,0.172499999,,,0.961599946,-0.955299973,9.712499619,,812,0.970799946,-0.970699973,9.884999618
1.683E+18,16.27641162,-0.0009,0.022499999,0.13319999,,,0.961999953,-0.954099953,9.712499619,,813,0.961099953,-0.931599954,9.845699608
1.683E+18,16.29641309,0.036599997,0.082499996,0.18249999,,,0.96359998,-0.955299973,9.712299347,,814,1.000199977,-0.872799978,9.894799337
1.683E+18,16.31641309,0.0462,0.065099999,0.202399999,,,0.963699996,-0.957499981,9.711999893,,815,1.009899996,-0.892399982,9.914399892
1.683E+18,16.33641309,0.0165,0.0254,0.1435,,,0.963999987,-0.956999958,9.712100029,,816,0.980499987,-0.931599958,9.855600029
1.683E+18,16.35641309,0.0143,0.0341,0.1338,,,0.966199994,-0.95599997,9.711899757,,817,0.980499994,-0.921899971,9.845699757
1.683E+18,16.37641309,0.0035,0.024899999,0.1928,,,0.967299998,-0.956599951,9.711799622,,818,0.970799998,-0.931699952,9.904599622
1.683E+18,16.39641309,-0.016099999,0.0056,0.14379999,,,0.967299998,-0.956799984,9.711699486,,819,0.951199999,-0.951199984,9.855499476
1.683E+18,16.41641309,-0.0458,-0.0054,0.114299998,,,0.967599988,-0.955599964,9.711799622,,820,0.921799988,-0.960999963,9.826099619
1.683E+18,16.43641309,-0.025699999,0.0048,0.202600002,,,0.967099965,-0.95599997,9.711799622,,821,0.941399965,-0.951199971,9.914399624
1.683E+18,16.45641309,0.0127,0.0072,0.212699994,,,0.967899978,-0.958399951,9.711500168,,822,0.980599978,-0.951199952,9.924200162
1.683E+18,16.47641309,0.022599999,-0.0115,0.173500001,,,0.967799962,-0.959299982,9.711500168,,823,0.99039996,-0.970799982,9.885000169
1.683E+18,16.49641309,0.0037,-0.041699998,0.163599998,,,0.966999948,-0.958499968,9.71159935,,824,0.970699948,-1.000199966,9.875199348
1.683E+18,16.51641309,0.0015,-0.0219,0.104999997,,,0.969299972,-0.958700001,9.711400032,,825,0.970799972,-0.980600001,9.816400029
1.683E+18,16.53642407,-0.030299999,-0.011299999,0.124899998,,,0.971699953,-0.959499955,9.710999489,,826,0.941399954,-0.970799955,9.835899487
1.683E+18,16.55641309,-0.0297,-0.0189,0.203499988,,,0.971099973,-0.961599946,9.710899353,,827,0.941399973,-0.980499946,9.914399341
1.683E+18,16.57641309,-0.0103,0.0218,0.1743,,,0.971299946,-0.963199973,9.710700035,,828,0.960999946,-0.941399973,9.885000035
1.683E+18,16.59641309,0.0092,-0.017099999,0.164499998,,,0.971399963,-0.963499963,9.710700035,,829,0.980599963,-0.980599962,9.875200033
1.683E+18,16.61641309,0.0015,-0.0559,0.1153,,,0.969199955,-0.96389997,9.710899353,,830,0.970699955,-1.01979997,9.826199353
1.683E+18,16.63641162,0.0106,0.0131,0.0076,,,0.969899952,-0.964399993,9.710700035,,831,0.980499952,-0.951299993,9.718300035
1.683E+18,16.65641309,0.0185,0.034299999,0.105999999,,,0.971899986,-0.965900004,9.710399628,,832,0.990399987,-0.931600004,9.816399626
1.683E+18,16.67641309,-0.030099999,-0.068700001,0.331999987,,,0.971499979,-0.970699966,9.710000038,,833,0.94139998,-1.039399967,10.04200003
1.683E+18,16.69641309,-0.037599999,0.003,0.214399993,,,0.969199955,-0.973899961,9.709899902,,834,0.931599956,-0.97089996,9.924299896
1.683E+18,16.71641309,0.0023,0.061899997,0.165299997,,,0.968499959,-0.973899961,9.709899902,,835,0.970799959,-0.911999963,9.875199899
1.683E+18,16.73641309,0.100599997,0.063199997,0.194799989,,,0.968299985,-0.975199997,9.709799767,,836,1.068899982,-0.912,9.904599756
1.683E+18,16.75641309,0.098399997,-0.0038,0.1461,,,0.970399976,-0.976799965,9.709499359,,837,1.068799973,-0.980599965,9.855599359
1.683E+18,16.77641309,0.047899999,-0.015299999,0.048,,,0.971899986,-0.974999964,9.709499359,,838,1.019799985,-0.990299963,9.75749936
1.683E+18,16.79641309,-0.0112,-0.0165,0.096999995,,,0.972199976,-0.973899961,9.709599495,,839,0.960999977,-0.99039996,9.80659949
1.683E+18,16.81641309,-0.039099999,-0.0038,0.175599992,,,0.970699966,-0.976799965,9.709400177,,840,0.931599967,-0.980599965,9.885000169
1.683E+18,16.83641309,-0.0285,0.048499998,0.224899992,,,0.969999969,-0.980099976,9.709199905,,841,0.941499969,-0.931599978,9.934099898
1.683E+18,16.85641309,-0.0189,-0.0187,0.20539999,,,0.970099986,-0.98149997,9.708999634,,842,0.951199986,-1.00019997,9.914399624
1.683E+18,16.87641309,0.067699999,0.0209,0.136999995,,,0.971699953,-0.981999993,9.708799362,,843,1.039399952,-0.961099993,9.845799357
1.683E+18,16.89641309,0.026099999,0.0218,0.068700001,,,0.974099994,-0.982799947,9.708499908,,844,1.000199992,-0.960999947,9.777199909
1.683E+18,16.91641309,0.034899998,0.061499998,0.127599999,,,0.975099981,-0.983299971,9.708299637,,845,1.009999979,-0.921799973,9.835899636
1.683E+18,16.93641309,-0.0229,0.015,0.20629999,,,0.974199951,-0.985899985,9.708199501,,846,0.95129995,-0.970899985,9.914499491
1.683E+18,16.95641309,-0.042399999,0.045299999,0.225999996,,,0.974099994,-0.986699998,9.708099365,,847,0.931699995,-0.941399999,9.934099361
1.683E+18,16.97641309,-0.023399999,0.0244,0.216099992,,,0.974599957,-0.985499978,9.708199501,,848,0.951199958,-0.961099979,9.924299493
1.683E+18,16.99641309,0.0065,0.0132,0.1963,,,0.973999977,-0.984099984,9.708399773,,849,0.980499977,-0.970899984,9.904699773
1.683E+18,17.01641309,0.066199996,-0.0186,0.1567,,,0.973199964,-0.98149997,9.70870018,,850,1.039399959,-1.00009997,9.86540018
1.683E+18,17.03642407,0.073600002,-0.050699998,0.088,,,0.975600004,-0.978899956,9.70870018,,851,1.049200006,-1.029599953,9.79670018
1.683E+18,17.05641309,0.050799999,-0.041200001,0.107899994,,,0.978799999,-0.978599966,9.708399773,,852,1.029599998,-1.019799966,9.816299766
1.683E+18,17.07641309,0.011,-0.0005,0.196400002,,,0.979399979,-0.980099976,9.708199501,,853,0.990399979,-0.980599976,9.904599503
1.683E+18,17.09641309,-0.0656,-0.0099,0.245299995,,,0.977599978,-0.980499983,9.708399773,,854,0.911999978,-0.990399983,9.953699768
1.683E+18,17.11641309,-0.084100001,-0.040100001,0.156800002,,,0.976499975,-0.979699969,9.708499908,,855,0.892399974,-1.01979997,9.86529991
1.683E+18,17.13641162,-0.037799999,0.036800001,0.098099999,,,0.979299963,-0.978199959,9.708399773,,856,0.941499963,-0.941399958,9.806499772
1.683E+18,17.15641309,-0.020499999,-0.0396,0.2359,,,0.98149997,-0.980199993,9.708000183,,857,0.960999971,-1.019799992,9.943900183
1.683E+18,17.17641309,-0.059099998,-0.028299998,0.147699997,,,0.980999947,-0.981599987,9.707900047,,858,0.921899948,-1.009899985,9.855600044
1.683E+18,17.19641309,0.0087,0.029099999,0.0986,,,0.981700003,-0.980399966,9.708000183,,859,0.990400003,-0.951299967,9.806600183
1.683E+18,17.21641309,-0.01,0.0011,0.2359,,,0.980799973,-0.98179996,9.707900047,,860,0.970799973,-0.98069996,9.943800047
1.683E+18,17.23641309,-0.036499999,0.0116,0.186700001,,,0.977899969,-0.9824,9.708099365,,861,0.941399969,-0.9708,9.894799367
1.683E+18,17.25641309,-0.036399998,-0.0095,0.078599997,,,0.977799952,-0.980799973,9.708299637,,862,0.941399954,-0.990299973,9.786899634
1.683E+18,17.27641309,0.033,-0.009,0.117799997,,,0.976999998,-0.981299996,9.708299637,,863,1.009999998,-0.990299996,9.826099634
1.683E+18,17.29641309,0.014599999,-0.0057,0.157299995,,,0.975799978,-0.984699965,9.708099365,,864,0.990399977,-0.990399964,9.865399361
1.683E+18,17.31641309,0.015799999,0.035,0.127899989,,,0.974599957,-0.986299992,9.708099365,,865,0.990399957,-0.951299991,9.835999355
1.683E+18,17.33641309,0.0079,0.055999998,0.147499993,,,0.972599983,-0.987599969,9.708099365,,866,0.980499983,-0.931599971,9.855599359
1.683E+18,17.35641309,0.0196,0.0186,0.216099992,,,0.970799983,-0.98939997,9.708099365,,867,0.990399983,-0.97079997,9.924199358
1.683E+18,17.37641309,0.048899997,0.0287,0.167099997,,,0.970899999,-0.989799976,9.708099365,,868,1.019799996,-0.961099977,9.875199363
1.683E+18,17.39641309,0.065299995,-0.0011,0.108499996,,,0.974099994,-0.989299953,9.707799911,,869,1.039399989,-0.990399953,9.816299908
1.683E+18,17.41641309,0.055299997,-0.0209,0.147799999,,,0.974299967,-0.989099979,9.707799911,,870,1.029599965,-1.009999979,9.85559991
1.683E+18,17.43641309,0.0057,0.0383,0.157700002,,,0.974899948,-0.989600003,9.707699776,,871,0.980599947,-0.951300003,9.865399778
1.683E+18,17.45641309,-0.065399997,0.009,0.099100001,,,0.977400005,-0.98969996,9.707399368,,872,0.912000008,-0.98069996,9.806499369
1.683E+18,17.47641309,-0.1052,0.0167,0.118599996,,,0.977999985,-0.987499952,9.70759964,,873,0.872799985,-0.970799953,9.826199636
1.683E+18,17.49641309,-0.048999999,-0.041999999,0.207099989,,,0.980599999,-0.987599969,9.707300186,,874,0.931600001,-1.029599968,9.914400175
1.683E+18,17.51641309,-0.0471,-0.040399998,0.226699993,,,0.978699982,-0.989199996,9.707399368,,875,0.931599982,-1.029599994,9.934099361
1.683E+18,17.53642407,-0.0065,0.048799999,0.14819999,,,0.977299988,-0.990199983,9.707399368,,876,0.970799989,-0.941399984,9.855599359
1.683E+18,17.55641309,0.0229,0.0405,0.187600002,,,0.977299988,-0.991799951,9.70720005,,877,1.000199988,-0.95129995,9.894800052
1.683E+18,17.57641309,-0.0173,0.022399999,0.177999988,,,0.978399992,-0.993299961,9.706999779,,878,0.961099992,-0.970899962,9.884999767
1.683E+18,17.59641309,-0.0876,0.040199999,0.119199999,,,0.979999959,-0.991400003,9.706999779,,879,0.892399959,-0.951200005,9.826199777
1.683E+18,17.61641309,-0.14639999,-0.080200002,0.109099999,,,0.979999959,-0.988599956,9.707300186,,880,0.83359997,-1.068799958,9.816400185
1.683E+18,17.63641162,-0.086599998,-0.003,0.1285,,,0.978999972,-0.987299979,9.707499504,,881,0.892399974,-0.990299979,9.835999504
1.683E+18,17.65641309,0.0028,0.0381,0.236399993,,,0.977799952,-0.98939997,9.707399368,,882,0.980599952,-0.951299969,9.943799362
1.683E+18,17.67641309,0.0559,0.0198,0.275399983,,,0.973699987,-0.990699947,9.707699776,,883,1.029599987,-0.970899947,9.983099759
1.683E+18,17.69641309,0.057499997,-0.091499999,0.157199994,,,0.97209996,-0.987199962,9.708199501,,884,1.029599957,-1.078699961,9.865399495
1.683E+18,17.71641309,0.005,-0.057399999,-0.019399999,,,0.975600004,-0.981999993,9.708399773,,885,0.980600004,-1.039399993,9.688999774
1.683E+18,17.73641309,-0.0003,0.0209,0.059499998,,,0.980999947,-0.981999993,9.707900047,,886,0.980699947,-0.961099993,9.767400045
1.683E+18,17.75641309,-0.075800002,0.033500001,0.226199999,,,0.977999985,-0.984799981,9.707900047,,887,0.902199984,-0.95129998,9.934100047
1.683E+18,17.77641309,-0.031799998,-0.044799998,0.206100002,,,0.973199964,-0.984799981,9.708399773,,888,0.941399965,-1.02959998,9.914499775
1.683E+18,17.79641309,0.0559,-0.0077,0.088199995,,,0.973699987,-0.98269999,9.708499908,,889,1.029599987,-0.99039999,9.796699904
1.683E+18,17.81641309,0.131499991,0.0038,0.176899999,,,0.976499975,-0.984499991,9.708099365,,890,1.107999966,-0.980699991,9.884999365
1.683E+18,17.83641309,0.092299998,0.0277,0.265599996,,,0.976499975,-0.988699973,9.70759964,,891,1.068799973,-0.960999973,9.973199636
1.683E+18,17.85641309,-0.074900001,0.0075,0.118499994,,,0.977099955,-0.988099992,9.70759964,,892,0.902199954,-0.980599992,9.826099634
1.683E+18,17.87641309,-0.116499998,0.033500001,0.049799997,,,0.979499996,-0.984799981,9.707699776,,893,0.862999998,-0.95129998,9.757499773
