time,seconds_elapsed,z,y,x
1683009837555399700,0.041399658203125,-0.5598999857902527,0.7069999575614929,0.4097999930381775
1683009837575405800,0.06140576171875,-0.5598999857902527,0.7069999575614929,0.4097999930381775
1683009837595399700,0.081399658203125,0.01119999960064888,-0.004299999680370092,0.05689999833703041
1683009837615399700,0.101399658203125,-0.18050000071525574,-0.1517999917268753,0.053700000047683716
1683009837635399700,0.121399658203125,0.3240000009536743,0.19049999117851257,0.13429999351501465
1683009837655399700,0.141399658203125,0.42329999804496765,0.19979999959468842,0.07169999927282333
1683009837675399700,0.161399658203125,0.033399999141693115,-0.11069999635219574,0.4440999925136566
1683009837695399700,0.181399658203125,-0.2624000012874603,-0.19089999794960022,0.4998999834060669
1683009837715399700,0.201399658203125,-0.35679998993873596,0.020600000396370888,0.3244999945163727
1683009837735399700,0.221399658203125,-0.09759999811649323,0.3147999942302704,0.38819998502731323
1683009837755399700,0.241399658203125,0.0867999941110611,0.3009999990463257,0.33319997787475586
1683009837775401200,0.261401123046875,-0.12309999763965607,0.204599991440773,-0.024000000208616257
1683009837795399700,0.281399658203125,-0.1005999967455864,0.20409999787807465,-0.23929999768733978
1683009837815399700,0.301399658203125,0.23719999194145203,0.30320000648498535,-0.34199997782707214
1683009837835399700,0.321399658203125,0.22499999403953552,0.4449999928474426,-0.1889999955892563
1683009837855399700,0.341399658203125,0.06889999657869339,0.1143999993801117,0.2175999879837036
1683009837875399700,0.361399658203125,-0.27079999446868896,0.01529999915510416,0.5327000021934509
1683009837895399700,0.381399658203125,-0.5782999992370605,0.01679999940097332,0.20960000157356262
1683009837915401200,0.401401123046875,-0.6751999855041504,0.41290000081062317,0.031099999323487282
1683009837935402800,0.42140283203125,-0.1824999898672104,0.41849997639656067,0.35009998083114624
1683009837955399700,0.441399658203125,0.3962000012397766,0.2904999852180481,1.0997999906539917
1683009837975399700,0.461399658203125,0.6541999578475952,0.8841999769210815,1.2527999877929688
1683009837995399700,0.481399658203125,0.8271999955177307,0.1241999939084053,0.7847999930381775
1683009838015399700,0.501399658203125,0.7820999622344971,0.028299998492002487,0.4203999936580658
1683009838035399700,0.521399658203125,0.8382999897003174,0.14419999718666077,-0.1753999888896942
1683009838055401200,0.541401123046875,0.3464999794960022,0.029899999499320984,-0.01850000023841858
1683009838075399700,0.561399658203125,-0.012600000016391277,0.1639999896287918,-0.30489999055862427
1683009838095399700,0.581399658203125,-0.08020000159740448,0.2793000042438507,-0.953499972820282
1683009838115399700,0.601399658203125,-0.2935999929904938,0.19299998879432678,-0.889799952507019
1683009838135401200,0.621401123046875,-0.48409998416900635,0.06269999593496323,-0.8211999535560608
1683009838155399700,0.641399658203125,-0.536300003528595,0.21539999544620514,-0.7541999816894531
1683009838175399700,0.661399658203125,-0.6363999843597412,0.1973000019788742,-0.5830000042915344
1683009838195399700,0.681399658203125,-0.6401999592781067,0.274399995803833,-0.513700008392334
1683009838215399700,0.701399658203125,-0.5076000094413757,-0.22899998724460602,-0.2721000015735626
1683009838235399700,0.721399658203125,0.0794999971985817,-0.5209000110626221,0.24489998817443848
1683009838255399700,0.741399658203125,0.7591999769210815,-0.6387999653816223,0.917199969291687
1683009838275401200,0.761401123046875,-0.012299999594688416,0.1492999941110611,0.21289999783039093
1683009838295399700,0.781399658203125,-0.3788999915122986,0.29269999265670776,-1.5953999757766724
1683009838315399700,0.801399658203125,-0.37950000166893005,0.2556999921798706,-1.608699917793274
1683009838335399700,0.821399658203125,0.054999999701976776,-0.2678000032901764,-1.1413999795913696
1683009838355399700,0.841399658203125,0.4599999785423279,-0.13689999282360077,-1.0845999717712402
1683009838375399700,0.861399658203125,0.13159999251365662,-0.07769999653100967,-1.510699987411499
1683009838395399700,0.881399658203125,-0.2903999984264374,-0.05009999871253967,-1.8341000080108643
1683009838415399700,0.901399658203125,-1.0893999338150024,0.03629999980330467,-1.9555999040603638
1683009838435399700,0.921399658203125,-1.0705000162124634,-0.051899999380111694,-2.1930999755859375
1683009838455399700,0.941399658203125,-0.9215999841690063,-0.07829999923706055,-1.975600004196167
1683009838475399700,0.961399658203125,-0.33730000257492065,0.10269999504089355,-1.5520999431610107
1683009838495399700,0.981399658203125,-0.431799978017807,0.07039999961853027,-1.2181999683380127
1683009838515399700,1.001399658203125,-0.21490000188350677,0.18930000066757202,-0.757099986076355
1683009838535399700,1.021399658203125,-0.16439999639987946,0.40070000290870667,-0.5500999689102173
1683009838555399700,1.041399658203125,-0.26669999957084656,0.4773999750614166,-0.00139999995008111
1683009838575399700,1.061399658203125,-0.30629998445510864,0.3434999883174896,-0.2289000004529953
1683009838595399700,1.081399658203125,-0.01119999960064888,0.053999997675418854,0.04559999704360962
1683009838615399700,1.101399658203125,0.4875999987125397,-0.17679999768733978,1.1338999271392822
1683009838635399700,1.121399658203125,0.6025999784469604,-0.3456999957561493,2.217399835586548
1683009838655399700,1.141399658203125,0.6211999654769897,-0.5157999992370605,3.119499921798706
1683009838675399700,1.161399658203125,0.8078999519348145,-0.5791000127792358,3.668599843978882
1683009838695399700,1.181399658203125,1.3109999895095825,-0.6938999891281128,3.546799898147583
1683009838715399700,1.201399658203125,1.5082999467849731,-0.9239999651908875,2.9494998455047607
1683009838735399700,1.221399658203125,1.4529999494552612,-1.1684999465942383,2.3880999088287354
1683009838755399700,1.241399658203125,1.2274999618530273,-1.2631999254226685,2.1480000019073486
1683009838775399700,1.261399658203125,1.0127999782562256,-0.8941999673843384,2.172499895095825
1683009838795399700,1.281399658203125,0.5755999684333801,-0.5706999897956848,2.199899911880493
1683009838815399700,1.301399658203125,-0.19200000166893005,-0.5889999866485596,1.9334999322891235
1683009838835399700,1.321399658203125,-0.6208999752998352,-0.6990999579429626,1.1455999612808228
1683009838855399700,1.341399658203125,-0.7096999883651733,-0.913100004196167,0.013499999418854713
1683009838875399700,1.361399658203125,-0.5051999688148499,-0.7037999629974365,-0.7960000038146973
1683009838895399700,1.381399658203125,-0.2929999828338623,-0.41130000352859497,-1.0356999635696411
1683009838915399700,1.401399658203125,0.04879999905824661,-0.10499999672174454,-0.8361999988555908
1683009838935399700,1.421399658203125,0.3634999990463257,0.01529999915510416,-0.5701000094413757
1683009838955399700,1.441399658203125,0.4625999927520752,-0.02149999886751175,-0.8642999529838562
1683009838975399700,1.461399658203125,0.5450999736785889,-0.25439998507499695,-1.235700011253357
1683009838995399700,1.481399658203125,0.7757999897003174,-0.29440000653266907,-1.1833000183105469
1683009839015399700,1.501399658203125,0.9322999715805054,-0.03610000014305115,-0.8262999653816223
1683009839035399700,1.521399658203125,0.6930999755859375,0.23539999127388,-0.47839999198913574
1683009839055399700,1.541399658203125,0.32019999623298645,0.47769999504089355,-1.041599988937378
1683009839075399700,1.561399658203125,0.13499999046325684,0.5367000102996826,-1.5625
1683009839095399700,1.581399658203125,0.09209999442100525,0.638700008392334,-1.6220999956130981
1683009839115399700,1.601399658203125,0.07689999788999557,0.7741999626159668,-1.2884999513626099
1683009839135399700,1.621399658203125,-0.06889999657869339,0.7282999753952026,-1.1496000289916992
1683009839155399700,1.641399658203125,0.07739999890327454,0.46709999442100525,-1.2350000143051147
1683009839175399700,1.661399658203125,0.38429999351501465,0.1907999962568283,-0.7024999856948853
1683009839195399700,1.681399658203125,0.7045999765396118,0.07149999588727951,-0.02319999970495701
1683009839215399700,1.701399658203125,0.7811999917030334,0.034699998795986176,0.733199954032898
1683009839235399700,1.721399658203125,0.5742999911308289,0.06539999693632126,0.8212999701499939
1683009839255399700,1.741399658203125,0.4203999936580658,0.21739999949932098,0.11549999564886093
1683009839275399700,1.761399658203125,0.37939998507499695,0.28859999775886536,-0.18599998950958252
1683009839295399700,1.781399658203125,0.2126999944448471,0.2628999948501587,-0.4562999904155731
1683009839315399700,1.801399658203125,0.17759999632835388,0.2466999888420105,-0.3146999776363373
1683009839335399700,1.821399658203125,0.2303999960422516,0.3427000045776367,0.34379997849464417
1683009839355399700,1.841399658203125,-0.024399999529123306,0.3246999979019165,0.08999999612569809
1683009839375399700,1.861399658203125,-0.15039999783039093,0.11180000007152557,0.004999999888241291
1683009839395399700,1.881399658203125,0.19519999623298645,-0.2434999942779541,0.9792999625205994
1683009839415399700,1.901399658203125,0.6001999974250793,-0.724299967288971,2.011199951171875
1683009839435399700,1.921399658203125,0.7181000113487244,-0.941100001335144,2.3657000064849854
1683009839455399700,1.941399658203125,0.46230000257492065,-1.0393999814987183,2.325899839401245
1683009839475399700,1.961399658203125,-0.052400000393390656,-1.0746999979019165,1.8353999853134155
1683009839495399700,1.981399658203125,-0.3471999764442444,-1.11489999294281,1.4543999433517456
1683009839515399700,2.001399658203125,-0.27129998803138733,-1.00819993019104,1.4950000047683716
1683009839535399700,2.021399658203125,-0.49709999561309814,-0.9652999639511108,1.4361000061035156
1683009839555399700,2.041399658203125,-0.6502000093460083,-1.0634000301361084,1.5326999425888062
1683009839575399700,2.061399658203125,-0.40289998054504395,-1.2411999702453613,2.2363998889923096
1683009839595399700,2.081399658203125,-0.05429999902844429,-1.1521999835968018,2.518899917602539
1683009839615399700,2.101399658203125,0.03920000046491623,-0.8810999989509583,1.9993000030517578
1683009839635402800,2.12140283203125,-0.0640999972820282,-0.6690999865531921,0.638700008392334
1683009839655399700,2.141399658203125,-0.07779999822378159,-0.6352999806404114,-0.48399999737739563
1683009839675399700,2.161399658203125,-0.1265999972820282,-0.5931999683380127,-1.3215999603271484
1683009839695399700,2.181399658203125,-0.2766000032424927,-0.5076999664306641,-1.2197999954223633
1683009839715399700,2.201399658203125,-0.37139999866485596,-0.2433999925851822,-0.7389999628067017
1683009839735399700,2.221399658203125,-0.4122999906539917,-0.04099999740719795,-0.3091999888420105
1683009839755399700,2.241399658203125,-0.3540000021457672,0.03280000016093254,0.26659998297691345
1683009839775401200,2.261401123046875,-0.1875,0.1257999986410141,0.22589999437332153
1683009839795399700,2.281399658203125,-0.021299999207258224,0.06809999793767929,-0.07569999992847443
1683009839815399700,2.301399658203125,0.18559999763965607,0.003499999875202775,-0.5024999976158142
1683009839835399700,2.321399658203125,0.3240000009536743,0.024799998849630356,-1.2317999601364136
1683009839855399700,2.341399658203125,0.15349999070167542,0.06719999760389328,-1.65749990940094
1683009839875399700,2.361399658203125,-0.23999999463558197,0.17409999668598175,-1.9965999126434326
1683009839895399700,2.381399658203125,-0.582099974155426,0.335099995136261,-2.1117000579833984
1683009839915401200,2.401401123046875,-0.9286999702453613,0.35249999165534973,-2.0916998386383057
1683009839935399700,2.421399658203125,-1.0680999755859375,0.3278000056743622,-1.9835999011993408
1683009839955399700,2.441399658203125,-0.9325000047683716,0.3147999942302704,-1.43559992313385
1683009839975399700,2.461399658203125,-0.6712999939918518,0.2703999876976013,-0.39969998598098755
1683009839995399700,2.481399658203125,-0.5613999962806702,0.2791999876499176,0.03709999844431877
1683009840015399700,2.501399658203125,-0.6406999826431274,0.2595999836921692,-0.4274999797344208
1683009840035399700,2.521399658203125,-0.5370999574661255,0.2766999900341034,-1.0595999956130981
1683009840055399700,2.541399658203125,-0.3416999876499176,0.29339998960494995,-1.5362999439239502
1683009840075399700,2.561399658203125,-0.22619999945163727,0.44829997420310974,-2.2283999919891357
1683009840095399700,2.581399658203125,-0.1265999972820282,0.4717999994754791,-2.3213000297546387
1683009840115399700,2.601399658203125,0.01809999905526638,0.21619999408721924,-1.4427999258041382
1683009840135399700,2.621399658203125,-0.17970000207424164,-0.12370000034570694,-0.15129999816417694
1683009840155399700,2.641399658203125,-0.3402999937534332,-0.35589998960494995,1.4737999439239502
1683009840175399700,2.661399658203125,-0.07440000027418137,-0.36899998784065247,2.871999979019165
1683009840195399700,2.681399658203125,0.4351999759674072,-0.32749998569488525,3.5539000034332275
1683009840215399700,2.701399658203125,0.8944999575614929,-0.35040000081062317,3.1786999702453613
1683009840235399700,2.721399658203125,1.0577999353408813,-0.7009999752044678,2.7670998573303223
1683009840255399700,2.741399658203125,1.101599931716919,-1.1506999731063843,3.012699842453003
1683009840275399700,2.761399658203125,1.2383999824523926,-1.5932999849319458,3.8257999420166016
1683009840295399700,2.781399658203125,0.9542999863624573,-1.4550999402999878,4.6753997802734375
1683009840315399700,2.801399658203125,0.429099977016449,-1.0339000225067139,4.0441999435424805
1683009840335399700,2.821399658203125,-0.009499999694526196,-0.7076999545097351,2.2084999084472656
1683009840355399700,2.841399658203125,0.0510999970138073,-0.8036999702453613,0.6097999811172485
1683009840375399700,2.861399658203125,0.587399959564209,-0.9803999662399292,-0.1931999921798706
1683009840395399700,2.881399658203125,0.9574999809265137,-0.8335999846458435,-0.2214999943971634
1683009840415399700,2.901399658203125,0.8787999749183655,-0.2944999933242798,-0.17249999940395355
1683009840435399700,2.921399658203125,0.3910999894142151,0.22819998860359192,-0.4186999797821045
1683009840455399700,2.941399658203125,-0.024000000208616257,0.5196999907493591,-0.7141000032424927
1683009840475399700,2.961399658203125,-0.3012000024318695,0.5807999968528748,-0.823199987411499
1683009840495399700,2.981399658203125,-0.3489999771118164,0.6245999932289124,-0.9121999740600586
1683009840515399700,3.001399658203125,-0.10419999808073044,0.5537999868392944,-0.736299991607666
1683009840535399700,3.021399658203125,0.26269999146461487,0.6032999753952026,-0.8844999670982361
1683009840555402800,3.04140283203125,0.4887999892234802,0.6741999983787537,-0.9840999841690063
1683009840575399700,3.061399658203125,0.5532000064849854,0.5516999959945679,-0.9853000044822693
1683009840595399700,3.081399658203125,0.5212999582290649,0.4887999892234802,-0.9565999507904053
1683009840615399700,3.101399658203125,0.24329999089241028,0.5392999649047852,-0.8687999844551086
1683009840635399700,3.121399658203125,-0.09479999542236328,0.4520999789237976,-0.7612999677658081
1683009840655399700,3.141399658203125,-0.24879999458789825,0.28290000557899475,-0.8012999892234802
1683009840675399700,3.161399658203125,0.13539999723434448,0.05859999731183052,-0.7232999801635742
1683009840695399700,3.181399658203125,0.5684999823570251,-0.14239999651908875,-0.7227999567985535
1683009840715399700,3.201399658203125,0.9440999627113342,-0.29499998688697815,-0.7217999696731567
1683009840735402800,3.22140283203125,1.208400011062622,-0.23680000007152557,-0.7899999618530273
1683009840755402800,3.24140283203125,1.2766000032424927,0.035099998116493225,-0.5748000144958496
1683009840775401200,3.261401123046875,0.8531999588012695,0.16539999842643738,-0.25200000405311584
1683009840795399700,3.281399658203125,0.5155999660491943,0.20170000195503235,-0.4283999800682068
1683009840815399700,3.301399658203125,0.2947999835014343,0.10539999604225159,-0.7698000073432922
1683009840835399700,3.321399658203125,0.1193000003695488,0.0722000002861023,-1.3454999923706055
1683009840855399700,3.341399658203125,0.042500000447034836,0.027799999341368675,-1.6455999612808228
1683009840875399700,3.361399658203125,-0.016999999061226845,-0.17520000040531158,-1.0936999320983887
1683009840895399700,3.381399658203125,-0.0038999998942017555,-0.3467999994754791,-0.6604999899864197
1683009840915401200,3.401401123046875,0.13120000064373016,-0.5011000037193298,0.4388999938964844
1683009840935399700,3.421399658203125,0.413100004196167,-0.6471999883651733,2.0274999141693115
1683009840955399700,3.441399658203125,0.45659998059272766,-0.6018999814987183,3.3790998458862305
1683009840975399700,3.461399658203125,0.051899999380111694,-0.11539999395608902,3.032899856567383
1683009840995399700,3.481399658203125,-0.5526999831199646,0.029600000008940697,1.1984999179840088
1683009841015399700,3.501399658203125,-0.3854999840259552,-0.48099997639656067,0.5146999955177307
1683009841035399700,3.521399658203125,0.32189998030662537,-0.789900004863739,1.9866999387741089
1683009841055401200,3.541401123046875,0.30859997868537903,-0.4593999981880188,4.198699951171875
1683009841075399700,3.561399658203125,-0.2639999985694885,0.04559999704360962,5.367799758911133
1683009841095399700,3.581399658203125,-0.7098999619483948,0.4852999746799469,3.930999994277954
1683009841115399700,3.601399658203125,-0.36569997668266296,0.25279998779296875,1.6660000085830688
1683009841135401200,3.621401123046875,0.3579999804496765,-0.2775999903678894,0.30809998512268066
1683009841155399700,3.641399658203125,0.7479999661445618,-0.6765999794006348,-0.3813000023365021
1683009841175399700,3.661399658203125,0.42829999327659607,-0.6556999683380127,-1.003999948501587
1683009841195399700,3.681399658203125,-0.20879998803138733,-0.4041999876499176,-1.1212999820709229
1683009841215401200,3.701401123046875,-0.42499998211860657,-0.06849999725818634,-1.1140999794006348
1683009841235399700,3.721399658203125,-0.4235000014305115,0.15439999103546143,-1.0968999862670898
1683009841255399700,3.741399658203125,-0.28029999136924744,0.29109999537467957,-1.097499966621399
1683009841275401200,3.761401123046875,-0.09279999881982803,0.4108999967575073,-0.9693999886512756
1683009841295399700,3.781399658203125,-0.11710000038146973,0.4794999957084656,-0.968999981880188
1683009841315399700,3.801399658203125,-0.3130999803543091,0.420199990272522,-1.1556999683380127
1683009841335399700,3.821399658203125,-0.3513000011444092,0.22209998965263367,-1.1762999296188354
1683009841355399700,3.841399658203125,-0.20479999482631683,0.10269999504089355,-0.8534999489784241
1683009841375399700,3.861399658203125,-0.24769999086856842,0.14270000159740448,-0.8631999492645264
1683009841395399700,3.881399658203125,-0.36879998445510864,0.22599999606609344,-0.7152999639511108
1683009841415401200,3.901401123046875,-0.7268999814987183,0.23739999532699585,-0.7935999631881714
1683009841435399700,3.921399658203125,-0.9836999773979187,0.25589999556541443,-0.960099995136261
1683009841455399700,3.941399658203125,-1.1627999544143677,0.11899999529123306,-1.077299952507019
1683009841475399700,3.961399658203125,-1.010599970817566,0.09869999438524246,-0.8509999513626099
1683009841495399700,3.981399658203125,-0.8198999762535095,0.08399999886751175,-0.6639999747276306
1683009841515399700,4.001399658203125,-0.6414999961853027,0.07589999586343765,-0.6638000011444092
1683009841535399700,4.021399658203125,-0.4799000024795532,0.008200000040233135,-0.9282999634742737
1683009841555401200,4.041401123046875,-0.26260000467300415,-0.02759999968111515,-1.4275999069213867
1683009841575401200,4.061401123046875,0.0032999999821186066,-0.004399999976158142,-2.111599922180176
1683009841595399700,4.081399658203125,0.10459999740123749,-0.09079999476671219,-2.636899948120117
1683009841615399700,4.101399658203125,0.06499999761581421,-0.28049999475479126,-2.46560001373291
1683009841635401200,4.121401123046875,0.21329998970031738,-0.5365999937057495,-0.7963999509811401
1683009841655399700,4.141399658203125,0.3580999970436096,-0.8003000020980835,1.6625999212265015
1683009841675399700,4.161399658203125,0.2061999887228012,-0.9099999666213989,4.070399761199951
1683009841695399700,4.181399658203125,-0.4624999761581421,-0.6845999956130981,4.643699645996094
1683009841715401200,4.201401123046875,-1.170799970626831,-0.4666000008583069,3.257499933242798
1683009841735399700,4.221399658203125,-0.9485999941825867,-0.7354999780654907,2.0601999759674072
1683009841755399700,4.241399658203125,0.3633999824523926,-1.139799952507019,1.9540998935699463
1683009841775401200,4.261401123046875,1.583899974822998,-1.2741999626159668,2.7214999198913574
1683009841795399700,4.281399658203125,1.771399974822998,-1.0618000030517578,3.3884999752044678
1683009841815399700,4.301399658203125,0.9423999786376953,-0.7360000014305115,3.5712997913360596
1683009841835399700,4.321399658203125,0.22100000083446503,-0.4447000026702881,2.8508999347686768
1683009841855399700,4.341399658203125,-0.243599995970726,-0.30879998207092285,1.8381999731063843
1683009841875399700,4.361399658203125,-0.28509998321533203,-0.2329999953508377,1.122499942779541
1683009841895399700,4.381399658203125,-0.13490000367164612,-0.20189999043941498,0.8587999939918518
1683009841915401200,4.401401123046875,0.06499999761581421,-0.08249999582767487,0.6236000061035156
1683009841935399700,4.421399658203125,0.34109997749328613,0.11859999597072601,0.25049999356269836
1683009841955399700,4.441399658203125,0.5443999767303467,0.3446999788284302,-0.09290000051259995
1683009841975399700,4.461399658203125,0.5507000088691711,0.4728999733924866,-0.5335999727249146
1683009841995399700,4.481399658203125,0.42499998211860657,0.4039999842643738,-1.032599925994873
1683009842015399700,4.501399658203125,0.18629999458789825,0.21619999408721924,-1.2865999937057495
1683009842035399700,4.521399658203125,0.05139999836683273,0.156700000166893,-1.354699969291687
1683009842055399700,4.541399658203125,0.059699997305870056,0.19200000166893005,-1.315500020980835
1683009842075399700,4.561399658203125,0.2395000010728836,0.2644999921321869,-1.2767000198364258
1683009842095399700,4.581399658203125,0.44419997930526733,0.35580000281333923,-1.3658000230789185
1683009842115399700,4.601399658203125,0.6301000118255615,0.37039998173713684,-1.6312999725341797
1683009842135399700,4.621399658203125,0.7293999791145325,0.4389999806880951,-1.7980999946594238
1683009842155399700,4.641399658203125,0.7573999762535095,0.36809998750686646,-1.6507999897003174
1683009842175399700,4.661399658203125,0.6049999594688416,0.4429999887943268,-1.4354000091552734
1683009842195402800,4.68140283203125,0.30799999833106995,0.4412999749183655,-1.2108999490737915
1683009842215401200,4.701401123046875,0.14989998936653137,0.41259998083114624,-0.8881999850273132
1683009842235399700,4.721399658203125,0.10849999636411667,0.26969999074935913,-0.5457000136375427
1683009842255399700,4.741399658203125,0.36319997906684875,0.08100000023841858,-0.5946999788284302
1683009842275401200,4.761401123046875,0.6516000032424927,-0.25540000200271606,-1.2117999792099
1683009842295399700,4.781399658203125,0.8840999603271484,-0.6103999614715576,-1.9560999870300293
1683009842315402800,4.80140283203125,1.0859999656677246,-0.7498999834060669,-2.3668999671936035
1683009842335401200,4.821401123046875,0.8174999952316284,-0.6466000080108643,-2.111799955368042
1683009842355399700,4.841399658203125,0.25349998474121094,-0.42549997568130493,-1.3184000253677368
1683009842375401200,4.861401123046875,-0.044199999421834946,-0.2563000023365021,0.17009998857975006
1683009842395399700,4.881399658203125,0.11949999630451202,-0.1289999932050705,1.6579999923706055
1683009842415401200,4.901401123046875,0.21439999341964722,-0.16859999299049377,2.7441999912261963
1683009842435399700,4.921399658203125,0.5180000066757202,-0.22299998998641968,3.586199998855591
1683009842455399700,4.941399658203125,0.755899965763092,-0.3046000003814697,3.8805999755859375
1683009842475399700,4.961399658203125,0.6658999919891357,-0.2529999911785126,3.333899974822998
1683009842495402800,4.98140283203125,0.4059999883174896,-0.39409998059272766,2.6218998432159424
1683009842515399700,5.001399658203125,0.18529999256134033,-0.6399999856948853,2.507999897003174
1683009842535399700,5.021399658203125,-0.0835999995470047,-0.6193999648094177,2.6768999099731445
1683009842555399700,5.041399658203125,-0.35760000348091125,-0.5220000147819519,2.9619998931884766
1683009842575401200,5.061401123046875,-0.5812000036239624,-0.30809998512268066,3.1191999912261963
1683009842595399700,5.081399658203125,-0.7505999803543091,-0.06769999861717224,2.5119998455047607
1683009842615399700,5.101399658203125,-1.0508999824523926,0.002699999837204814,1.0432000160217285
1683009842635399700,5.121399658203125,-1.1168999671936035,-0.2549000084400177,-0.2962999939918518
1683009842655399700,5.141399658203125,-0.9375999569892883,-0.6017999649047852,-1.1154999732971191
1683009842675399700,5.161399658203125,-0.6965999603271484,-0.6342999935150146,-1.2494999170303345
1683009842695399700,5.181399658203125,-0.49699997901916504,-0.40779998898506165,-0.8772000074386597
1683009842715399700,5.201399658203125,-0.5437999963760376,-0.005799999926239252,-0.40950000286102295
1683009842735399700,5.221399658203125,-0.6294999718666077,0.19999998807907104,-0.15860000252723694
1683009842755399700,5.241399658203125,-0.35679998993873596,0.42179998755455017,-0.04429999738931656
1683009842775399700,5.261399658203125,-0.11050000041723251,0.5162000060081482,0.04149999842047691
1683009842795399700,5.281399658203125,0.04209999740123749,0.5275999903678894,-0.20499999821186066
1683009842815399700,5.301399658203125,0.0982000008225441,0.31360000371932983,-0.5485000014305115
1683009842835399700,5.321399658203125,-0.0414000004529953,0.10049999505281448,-0.8417999744415283
1683009842855399700,5.341399658203125,-0.321399986743927,0.031700000166893005,-1.320199966430664
1683009842875399700,5.361399658203125,-0.598800003528595,0.1030999943614006,-1.8070999383926392
1683009842895399700,5.381399658203125,-0.9705999493598938,0.006599999964237213,-2.214900016784668
1683009842915399700,5.401399658203125,-0.8561999797821045,-0.06870000064373016,-2.6893999576568604
1683009842935399700,5.421399658203125,-0.4461999833583832,-0.0989999994635582,-2.5355000495910645
1683009842955399700,5.441399658203125,-0.2741999924182892,-0.06639999896287918,-1.7767999172210693
1683009842975399700,5.461399658203125,-0.311599999666214,-0.035499997437000275,-1.0321999788284302
1683009842995399700,5.481399658203125,-0.13939999043941498,0.04039999842643738,-0.4950999915599823
1683009843015399700,5.501399658203125,0.06079999729990959,0.12409999966621399,0.04129999876022339
1683009843035399700,5.521399658203125,0.2902999818325043,0.2946999967098236,0.11699999868869781
1683009843055399700,5.541399658203125,0.406499981880188,0.42819997668266296,-0.3625999987125397
1683009843075399700,5.561399658203125,0.2939999997615814,0.4009999930858612,-1.1030999422073364
1683009843095399700,5.581399658203125,0.004100000020116568,0.11859999597072601,-1.7323999404907227
1683009843115399700,5.601399658203125,-0.38179999589920044,-0.3418999910354614,-1.8901000022888184
1683009843135399700,5.621399658203125,-0.5339999794960022,-0.6800999641418457,-0.9614999890327454
1683009843155399700,5.641399658203125,-0.4258999824523926,-0.5916000008583069,0.9511999487876892
1683009843175399700,5.661399658203125,-0.296999990940094,-0.25040000677108765,2.8483998775482178
1683009843195399700,5.681399658203125,-0.19370000064373016,0.09539999812841415,3.8329999446868896
1683009843215399700,5.701399658203125,-0.2175999879837036,0.4740999937057495,3.5251998901367188
1683009843235399700,5.721399658203125,-0.24769999086856842,0.15600000321865082,2.818699836730957
1683009843255399700,5.741399658203125,0.10610000044107437,-0.5475999712944031,3.456899881362915
1683009843275399700,5.761399658203125,0.2604999840259552,-0.5489999651908875,3.769699811935425
1683009843295399700,5.781399658203125,-0.15940000116825104,-0.40129998326301575,2.8866000175476074
1683009843315399700,5.801399658203125,-0.13199999928474426,-0.5879999995231628,2.2588000297546387
1683009843335399700,5.821399658203125,0.38589999079704285,-0.9957000017166138,2.0139000415802
1683009843355399700,5.841399658203125,0.9793999791145325,-1.171199917793274,1.7308999300003052
1683009843375399700,5.861399658203125,1.3571999073028564,-0.9936999678611755,1.5454999208450317
1683009843395399700,5.881399658203125,1.3494999408721924,-0.607699990272522,0.9077000021934509
1683009843415399700,5.901399658203125,0.9231999516487122,-0.29899999499320984,0.13169999420642853
1683009843435399700,5.921399658203125,1.2181999683380127,0.07079999893903732,-0.7127000093460083
1683009843455399700,5.941399658203125,0.4430999755859375,-0.030399998649954796,-0.26589998602867126
1683009843475399700,5.961399658203125,-0.011599999852478504,0.35179999470710754,-0.545199990272522
1683009843495399700,5.981399658203125,-0.23510000109672546,0.6385999917984009,-0.6779999732971191
1683009843515399700,6.001399658203125,-0.29749998450279236,0.6611999869346619,-0.43719998002052307
1683009843535399700,6.021399658203125,-0.4837999939918518,0.7401999831199646,-0.7533999681472778
1683009843555399700,6.041399658203125,-0.26510000228881836,0.7440999746322632,-1.1549999713897705
1683009843575399700,6.061399658203125,0.10199999809265137,0.49459999799728394,-1.2800999879837036
1683009843595399700,6.081399658203125,0.18679998815059662,0.3122999966144562,-1.5815999507904053
1683009843615399700,6.101399658203125,0.0786999985575676,0.23179998993873596,-1.7272999286651611
1683009843635399700,6.121399658203125,-0.16489998996257782,0.008700000122189522,-1.482699990272522
1683009843655399700,6.141399658203125,-0.15060000121593475,0.1160999983549118,-1.5618000030517578
1683009843675399700,6.161399658203125,-0.044099997729063034,0.09600000083446503,-1.24809992313385
1683009843695399700,6.181399658203125,-0.004399999976158142,0.12610000371932983,-1.0128999948501587
1683009843715399700,6.201399658203125,0.02709999866783619,0.21329998970031738,-1.091499924659729
1683009843735399700,6.221399658203125,-0.017099998891353607,0.20819999277591705,-1.3661999702453613
1683009843755399700,6.241399658203125,0.17790000140666962,0.1670999974012375,-1.5321999788284302
1683009843775399700,6.261399658203125,0.4180999994277954,0.16609999537467957,-1.5896999835968018
1683009843795399700,6.281399658203125,0.5047999620437622,0.131400004029274,-1.5095999240875244
1683009843815399700,6.301399658203125,0.43719998002052307,0.21609999239444733,-1.4785999059677124
1683009843835399700,6.321399658203125,0.3578999936580658,0.21519999206066132,-1.1934000253677368
1683009843855399700,6.341399658203125,0.3513000011444092,0.0957999974489212,-0.5160999894142151
1683009843875399700,6.361399658203125,0.34279999136924744,-0.0940999984741211,0.22929999232292175
1683009843895399700,6.381399658203125,0.29600000381469727,-0.3418000042438507,1.1201999187469482
1683009843915399700,6.401399658203125,0.35999998450279236,-0.609499990940094,2.2746999263763428
1683009843935399700,6.421399658203125,0.5268999934196472,-0.648099958896637,3.458400011062622
1683009843955399700,6.441399658203125,0.2922999858856201,-0.2793000042438507,3.809000015258789
1683009843975399700,6.461399658203125,0.10839999467134476,0.038599997758865356,3.1320998668670654
1683009843995399700,6.481399658203125,0.17499999701976776,-0.12919999659061432,2.8598999977111816
1683009844015399700,6.501399658203125,0.33229997754096985,-0.1979999989271164,3.156100034713745
1683009844035399700,6.521399658203125,-0.03749999776482582,-0.17139999568462372,3.3725998401641846
1683009844055399700,6.541399658203125,-0.6561999917030334,-0.11109999567270279,3.1868999004364014
1683009844075399700,6.561399658203125,-0.9829999804496765,-0.031199999153614044,2.0030999183654785
1683009844095399700,6.581399658203125,-0.9469999670982361,-0.2902999818325043,1.2640999555587769
1683009844115402800,6.60140283203125,-0.5295999646186829,-0.5834000110626221,0.4287000000476837
1683009844135399700,6.621399658203125,-0.2874999940395355,-0.8029999732971191,-0.406499981880188
1683009844155399700,6.641399658203125,-0.1006999984383583,-0.814799964427948,-0.7737999558448792
1683009844175399700,6.661399658203125,0.10529999434947968,-0.5839999914169312,-0.8999999761581421
1683009844195399700,6.681399658203125,0.13660000264644623,-0.482699990272522,-0.6962999701499939
1683009844215401200,6.701401123046875,0.04360000044107437,-0.4087999761104584,-0.47509998083114624
1683009844235399700,6.721399658203125,-0.07149999588727951,-0.26749998331069946,-0.25429999828338623
1683009844255399700,6.741399658203125,-0.24959999322891235,-0.14190000295639038,0.0058999997563660145
1683009844275401200,6.761401123046875,-0.4908999800682068,0.015399999916553497,-0.1347000002861023
1683009844295399700,6.781399658203125,-0.6972999572753906,-0.09860000014305115,-0.3718000054359436
1683009844315399700,6.801399658203125,-0.557699978351593,-0.32189998030662537,-0.5683000087738037
1683009844335399700,6.821399658203125,-0.23279999196529388,-0.40309998393058777,-0.9301999807357788
1683009844355399700,6.841399658203125,-0.0835999995470047,-0.36089998483657837,-1.2034999132156372
1683009844375399700,6.861399658203125,-0.16759999096393585,-0.2611999809741974,-1.4972000122070312
1683009844395399700,6.881399658203125,-0.405599981546402,-0.1623999923467636,-1.8700999021530151
1683009844415401200,6.901401123046875,-0.6166999936103821,0.023499999195337296,-2.1159000396728516
1683009844435401200,6.921401123046875,-0.628600001335144,0.18519999086856842,-1.9213999509811401
1683009844455399700,6.941399658203125,-0.5986999869346619,0.41920000314712524,-1.9050999879837036
1683009844475399700,6.961399658203125,-0.6843000054359436,0.552899956703186,-2.222100019454956
1683009844495399700,6.981399658203125,-0.7477999925613403,0.5870000123977661,-2.067199945449829
1683009844515399700,7.001399658203125,-0.7712999582290649,0.6148999929428101,-1.4512999057769775
1683009844535399700,7.021399658203125,-0.7673999667167664,0.8011999726295471,-0.6593999862670898
1683009844555399700,7.041399658203125,-0.9818999767303467,1.0506999492645264,-0.22059999406337738
1683009844575399700,7.061399658203125,-1.118399977684021,1.1984000205993652,-0.5360999703407288
1683009844595399700,7.081399658203125,-0.7687000036239624,1.0424000024795532,-1.534999966621399
1683009844615399700,7.101399658203125,-0.13899999856948853,0.5625999569892883,-2.166100025177002
1683009844635399700,7.121399658203125,0.5579999685287476,-0.05089999735355377,-1.511699914932251
1683009844655399700,7.141399658203125,0.8476999998092651,-0.3349999785423279,0.04089999943971634
1683009844675399700,7.161399658203125,0.6215999722480774,-0.3962000012397766,1.9113999605178833
1683009844695399700,7.181399658203125,0.41019999980926514,-0.051500000059604645,3.3364999294281006
1683009844715399700,7.201399658203125,0.23879998922348022,0.23019999265670776,3.9086999893188477
1683009844735399700,7.221399658203125,0.3691999912261963,0.22360000014305115,3.9738998413085938
1683009844755399700,7.241399658203125,0.8285999894142151,-0.04360000044107437,3.954399824142456
1683009844775399700,7.261399658203125,1.1460000276565552,-0.36559998989105225,4.142600059509277
1683009844795399700,7.281399658203125,0.9940999746322632,-0.5153999924659729,4.515399932861328
1683009844815399700,7.301399658203125,0.48909997940063477,-0.34759998321533203,4.101799964904785
1683009844835399700,7.321399658203125,-0.03590000048279762,-0.4332999885082245,3.266899824142456
1683009844855399700,7.341399658203125,0.011099999770522118,-0.7464999556541443,1.963499903678894
1683009844875399700,7.361399658203125,0.38449999690055847,-1.3758000135421753,0.7620999813079834
1683009844895399700,7.381399658203125,0.7592999935150146,-1.7568999528884888,-0.35830000042915344
1683009844915399700,7.401399658203125,1.1385999917984009,-1.656999945640564,-1.0677999258041382
1683009844935399700,7.421399658203125,1.1761000156402588,-1.1440999507904053,-0.7040999531745911
1683009844955399700,7.441399658203125,1.017899990081787,-0.6114000082015991,0.210999995470047
1683009844975399700,7.461399658203125,0.8027999997138977,0.00279999990016222,0.6035000085830688
1683009844995399700,7.481399658203125,0.6017000079154968,0.45639997720718384,0.33149999380111694
1683009845015399700,7.501399658203125,0.07499999552965164,0.5583999752998352,-0.06300000101327896
1683009845035399700,7.521399658203125,-0.4072999954223633,0.5181999802589417,-0.5612999796867371
1683009845055399700,7.541399658203125,-0.713699996471405,0.4989999830722809,-1.077199935913086
1683009845075399700,7.561399658203125,-0.6098999977111816,0.49289998412132263,-1.3976999521255493
1683009845095399700,7.581399658203125,-0.36579999327659607,0.4291999936103821,-1.5221999883651733
1683009845115399700,7.601399658203125,-0.09200000017881393,0.41749998927116394,-1.8319998979568481
1683009845135399700,7.621399658203125,0.1590999960899353,0.39239999651908875,-2.023699998855591
1683009845155399700,7.641399658203125,0.2865000069141388,0.30979999899864197,-2.177500009536743
1683009845175399700,7.661399658203125,0.34860000014305115,0.13439999520778656,-2.0787999629974365
1683009845195399700,7.681399658203125,0.38169997930526733,0.11869999766349792,-1.7272999286651611
1683009845215399700,7.701399658203125,0.319599986076355,0.15770000219345093,-1.5144000053405762
1683009845235399700,7.721399658203125,0.41189998388290405,0.19099999964237213,-1.409999966621399
1683009845255399700,7.741399658203125,0.46789997816085815,0.2709999978542328,-1.5410999059677124
1683009845275399700,7.761399658203125,0.42819997668266296,0.36739999055862427,-1.730299949645996
1683009845295399700,7.781399658203125,0.4048999845981598,0.3935000002384186,-1.8493999242782593
1683009845315399700,7.801399658203125,0.49149999022483826,0.494299978017807,-1.8697999715805054
1683009845335399700,7.821399658203125,0.41990000009536743,0.6420999765396118,-1.4886999130249023
1683009845355399700,7.841399658203125,-0.2848999798297882,0.7319999933242798,-0.5686999559402466
1683009845375399700,7.861399658203125,-0.8280999660491943,0.272599995136261,0.597000002861023
1683009845395399700,7.881399658203125,-0.4912000000476837,-0.1973000019788742,1.3602999448776245
1683009845415399700,7.901399658203125,0.649399995803833,-0.5414000153541565,2.48580002784729
1683009845435399700,7.921399658203125,1.4429999589920044,-0.5839999914169312,3.464900016784668
1683009845455399700,7.941399658203125,1.5500999689102173,-0.38909998536109924,3.4744999408721924
1683009845475399700,7.961399658203125,1.3293999433517456,-0.2263999879360199,2.7301998138427734
1683009845495399700,7.981399658203125,1.0765999555587769,-0.37950000166893005,1.742900013923645
1683009845515399700,8.001399658203125,0.9070999622344971,-0.6785999536514282,2.1684999465942383
1683009845535399700,8.021399658203125,0.5324999690055847,-0.7825999855995178,3.356099843978882
1683009845555399700,8.041399658203124,-0.08469999581575394,-0.5769000053405762,4.530699729919434
1683009845575399700,8.061399658203126,-0.7116999626159668,-0.2906999886035919,4.871799945831299
1683009845595399700,8.081399658203125,-1.08079993724823,-0.045099999755620956,3.735599994659424
1683009845615399700,8.101399658203125,-1.205899953842163,0.03949999809265137,1.7315999269485474
1683009845635399700,8.121399658203124,-1.0985000133514404,-0.27070000767707825,-0.12069999426603317
1683009845655399700,8.141399658203126,-0.9939999580383301,-0.5464999675750732,-1.4621999263763428
1683009845675399700,8.161399658203125,-0.8270999789237976,-0.7246999740600586,-1.9728999137878418
1683009845695399700,8.181399658203125,-0.6166999936103821,-0.6097999811172485,-1.6560999155044556
1683009845715399700,8.201399658203124,-0.5575000047683716,-0.4220999777317047,-1.0713999271392822
1683009845735399700,8.221399658203126,-0.42249998450279236,-0.2881999909877777,-0.5282999873161316
1683009845755399700,8.241399658203125,-0.03359999880194664,-0.2465999871492386,-0.07319999486207962
1683009845775399700,8.261399658203125,0.36039999127388,-0.15359999239444733,0.3725999891757965
1683009845795399700,8.281399658203124,0.6216999888420105,-0.0210999995470047,0.6240999698638916
1683009845815399700,8.301399658203126,0.4177999794483185,0.09339999407529831,0.43709999322891235
1683009845835399700,8.321399658203125,0.1078999936580658,0.07440000027418137,-0.29659998416900635
1683009845855399700,8.341399658203125,-0.1403999924659729,-0.07689999788999557,-0.9606999754905701
1683009845875402800,8.36140283203125,-0.25349998474121094,-0.17170000076293945,-1.4674999713897705
1683009845895399700,8.381399658203126,-0.48510000109672546,-0.26989999413490295,-1.895900011062622
1683009845915401200,8.401401123046876,-0.6899999976158142,-0.1979999989271164,-1.854599952697754
1683009845935399700,8.421399658203125,-0.8779000043869019,0.024899998679757118,-1.4334999322891235
1683009845955399700,8.441399658203125,-0.8920999765396118,0.3709999918937683,-1.229200005531311
1683009845975399700,8.461399658203124,-0.8549000024795532,0.5680999755859375,-1.2897999286651611
1683009845995399700,8.481399658203125,-0.7038999795913696,0.6581000089645386,-1.3495999574661255
1683009846015399700,8.501399658203125,-0.5860999822616577,0.699400007724762,-1.3988999128341675
1683009846035399700,8.521399658203125,-0.4821999967098236,0.7274999618530273,-1.3005999326705933
1683009846055399700,8.541399658203124,-0.3840000033378601,0.8853999972343445,-1.1133999824523926
1683009846075399700,8.561399658203126,-0.2061999887228012,0.9890999794006348,-0.9359999895095825
1683009846095399700,8.581399658203125,-0.04349999874830246,0.9642999768257141,-0.8363999724388123
1683009846115399700,8.601399658203125,0.09619999676942825,0.9590999484062195,-0.9409999847412109
1683009846135401200,8.621401123046875,0.0357000008225441,0.7728999853134155,-0.9358999729156494
1683009846155402800,8.64140283203125,0.13220000267028809,0.35519999265670776,-0.6154999732971191
1683009846175402800,8.66140283203125,0.23339998722076416,0.14890000224113464,0.15429998934268951
1683009846195399700,8.681399658203125,0.26420000195503235,0.06639999896287918,1.3799999952316284
1683009846215399700,8.701399658203124,-0.03099999949336052,0.1671999990940094,2.5713000297546387
1683009846235399700,8.721399658203126,-0.6890000104904175,0.31700000166893005,2.9672000408172607
1683009846255399700,8.741399658203125,-0.8265999555587769,0.21299999952316284,2.708699941635132
1683009846275401200,8.761401123046875,0.33559998869895935,-0.3012999892234802,3.246799945831299
1683009846295399700,8.781399658203124,1.5247999429702759,-0.5141000151634216,4.527199745178223
1683009846315399700,8.801399658203126,1.6394000053405762,-0.2680000066757202,4.656599998474121
1683009846335399700,8.821399658203125,1.0616999864578247,-0.32330000400543213,3.434999942779541
1683009846355399700,8.841399658203125,0.6872999668121338,-0.8489999771118164,2.2170000076293945
1683009846375399700,8.861399658203124,0.8675999641418457,-1.32069993019104,1.0921000242233276
1683009846395399700,8.881399658203126,1.004599928855896,-1.556899905204773,0.3628999888896942
1683009846415401200,8.901401123046876,0.8170999884605408,-1.3396999835968018,0.04429999738931656
1683009846435401200,8.921401123046875,0.3450999855995178,-0.9059000015258789,-0.10269999504089355
1683009846455399700,8.941399658203125,0.12119999527931213,-0.48169997334480286,-0.11679999530315399
1683009846475399700,8.961399658203124,0.12559999525547028,-0.23189999163150787,-0.2094999998807907
1683009846495399700,8.981399658203125,0.30159997940063477,-0.17520000040531158,-0.35830000042915344
1683009846515399700,9.001399658203125,0.47679999470710754,-0.25509998202323914,-0.5144999623298645
1683009846535399700,9.021399658203125,0.4992999732494354,-0.2597000002861023,-0.718999981880188
1683009846555399700,9.041399658203124,0.3125999867916107,-0.2985000014305115,-1.0023999214172363
1683009846575401200,9.061401123046876,0.19919998943805695,-0.368399977684021,-1.3646999597549438
1683009846595399700,9.081399658203125,0.19509999454021454,-0.42969998717308044,-1.6093000173568726
1683009846615399700,9.101399658203125,0.22859999537467957,-0.42969998717308044,-1.902999997138977
1683009846635399700,9.121399658203124,0.09759999811649323,-0.42229998111724854,-1.834299921989441
1683009846655399700,9.141399658203126,-0.19709999859333038,-0.3165999948978424,-1.6691999435424805
1683009846675399700,9.161399658203125,-0.5270000100135803,-0.13030000030994415,-1.642899990081787
1683009846695399700,9.181399658203125,-0.6645999550819397,-0.09619999676942825,-1.5579999685287476
1683009846715401200,9.201401123046875,-0.4334999918937683,-0.1551000028848648,-1.4038000106811523
1683009846735399700,9.221399658203126,-0.05869999900460243,-0.1695999950170517,-1.2980999946594238
1683009846755399700,9.241399658203125,0.5126000046730042,-0.04429999738931656,-1.417099952697754
1683009846775401200,9.261401123046875,0.903499960899353,0.05729999765753746,-1.5547999143600464
1683009846795399700,9.281399658203124,0.8252999782562256,0.07769999653100967,-1.4172999858856201
1683009846815399700,9.301399658203126,0.6026999950408936,0.20979999005794525,-1.0931999683380127
1683009846835399700,9.321399658203125,0.16120000183582306,0.39010000228881836,-0.9648000001907349
1683009846855399700,9.341399658203125,-0.24689999222755432,0.6506999731063843,-0.7475000023841858
1683009846875399700,9.361399658203124,-0.5866999626159668,0.765999972820282,-0.38279998302459717
1683009846895399700,9.381399658203126,-0.5690000057220459,0.7313999533653259,-0.00839999970048666
1683009846915401200,9.401401123046876,-0.011399999260902405,0.6674999594688416,0.6787999868392944
1683009846935399700,9.421399658203125,0.8046999573707581,0.4372999966144562,1.6316999197006226
1683009846955399700,9.441399658203125,1.232699990272522,0.11409999430179596,2.8783998489379883
1683009846975399700,9.461399658203124,1.1902999877929688,0.37610000371932983,3.338399887084961
1683009846995399700,9.481399658203125,0.8364999890327454,0.6570999622344971,3.1312999725341797
1683009847015399700,9.501399658203125,0.5972999930381775,0.33889999985694885,3.319000005722046
1683009847035399700,9.521399658203125,0.5370000004768372,0.030299998819828033,3.27239990234375
1683009847055399700,9.541399658203124,0.6031999588012695,-0.026499999687075615,3.1562998294830322
1683009847075399700,9.561399658203126,0.6187999844551086,-0.26579999923706055,3.423099994659424
1683009847095399700,9.581399658203125,0.5636000037193298,-0.6570000052452087,3.5322999954223633
1683009847115399700,9.601399658203125,0.40459999442100525,-0.8423999547958374,2.9941999912261963
1683009847135401200,9.621401123046875,0.17960000038146973,-0.8514999747276306,1.9188998937606812
1683009847155399700,9.641399658203126,-0.07490000128746033,-0.7364999651908875,0.8567999601364136
1683009847175399700,9.661399658203125,-0.384799987077713,-0.6103999614715576,-0.19329999387264252
1683009847195399700,9.681399658203125,-0.6315999627113342,-0.546999990940094,-1.1653000116348267
1683009847215401200,9.701401123046875,-0.8607999682426453,-0.5952000021934509,-1.7472000122070312
1683009847235399700,9.721399658203126,-0.9925999641418457,-0.6468999981880188,-1.7340999841690063
1683009847255399700,9.741399658203125,-1.1382999420166016,-0.5554999709129333,-1.5475000143051147
1683009847275401200,9.761401123046875,-1.2416999340057373,-0.3447999954223633,-1.2848999500274658
1683009847295399700,9.781399658203124,-1.1445999145507812,-0.15860000252723694,-0.9656999707221985
1683009847315402800,9.80140283203125,-0.8768999576568604,0.05249999836087227,-0.8428999781608582
1683009847335399700,9.821399658203125,-0.5432999730110168,0.18219999969005585,-0.6700999736785889
1683009847355399700,9.841399658203125,-0.2825999855995178,0.21709999442100525,-0.5748000144958496
1683009847375399700,9.861399658203124,-0.2450999915599823,0.2827000021934509,-0.6055999994277954
1683009847395399700,9.881399658203126,-0.3960999846458435,0.3358999788761139,-0.6653000116348267
1683009847415401200,9.901401123046876,-0.6872000098228455,0.3926999866962433,-0.6951999664306641
1683009847435401200,9.921401123046875,-0.8634999990463257,0.45170000195503235,-0.9010999798774719
1683009847455399700,9.941399658203125,-0.863599956035614,0.4315999746322632,-1.1755999326705933
1683009847475399700,9.961399658203124,-0.7698000073432922,0.4048999845981598,-1.2632999420166016
1683009847495399700,9.981399658203125,-0.7213000059127808,0.3671000003814697,-1.154099941253662
1683009847515399700,10.001399658203125,-0.5740999579429626,0.5788999795913696,-1.141700029373169
1683009847535399700,10.021399658203125,-0.6003999710083008,0.5801999568939209,-0.8060999512672424
1683009847555399700,10.041399658203124,-0.6811999678611755,0.5663999915122986,-0.6474999785423279
1683009847575402800,10.06140283203125,-0.6132999658584595,0.5651999711990356,-0.763700008392334
1683009847595399700,10.081399658203125,-0.4894999861717224,0.4867999851703644,-0.9776999950408936
1683009847615399700,10.101399658203125,-0.29899999499320984,0.4493999779224396,-1.288100004196167
1683009847635399700,10.121399658203124,-0.2938999831676483,0.5623999834060669,-1.5382999181747437
1683009847655399700,10.141399658203126,-0.2838999927043915,0.38519999384880066,-1.4737999439239502
1683009847675399700,10.161399658203125,0.013399999588727951,0.15410000085830688,-1.1531000137329102
1683009847695399700,10.181399658203125,0.0754999965429306,-0.008599999360740185,-0.4821999967098236
1683009847715399700,10.201399658203124,0.07819999754428864,-0.015099999494850636,0.26260000467300415
1683009847735399700,10.221399658203126,0.03199999779462814,-0.0916999951004982,1.278999924659729
1683009847755399700,10.241399658203125,0.2230999916791916,-0.29429998993873596,2.509500026702881
1683009847775399700,10.261399658203125,0.6225000023841858,-0.09319999814033508,3.6322999000549316
1683009847795399700,10.281399658203124,0.8646000027656555,-0.05219999700784683,4.628399848937988
1683009847815399700,10.301399658203126,1.0260999202728271,-0.14800000190734863,5.427599906921387
1683009847835399700,10.321399658203125,0.9788999557495117,-0.19579999148845673,5.184899806976318
1683009847855399700,10.341399658203125,1.1302999258041382,-0.24079999327659607,4.151000022888184
1683009847875399700,10.361399658203124,1.206399917602539,-0.2554999887943268,2.6504998207092285
1683009847895399700,10.381399658203126,1.1812000274658203,-0.423799991607666,1.4749000072479248
1683009847915399700,10.401399658203125,1.062399983406067,-0.5108000040054321,0.5636999607086182
1683009847935399700,10.421399658203125,0.8101999759674072,-0.5547999739646912,-0.014099999330937862
1683009847955399700,10.441399658203125,0.4615999758243561,-0.3287999927997589,-0.3382999897003174
1683009847975399700,10.461399658203124,0.04699999839067459,-0.10080000013113022,-0.47749999165534973
1683009847995399700,10.481399658203125,-0.09919999539852142,0.16939999163150787,-0.6168999671936035
1683009848015399700,10.501399658203125,-0.12709999084472656,0.35089999437332153,-0.804099977016449
1683009848035399700,10.521399658203125,-0.07939999550580978,0.44259998202323914,-1.1567000150680542
1683009848055399700,10.541399658203124,0.016499999910593033,0.4535999894142151,-1.5180000066757202
1683009848075399700,10.561399658203126,0.13030000030994415,0.3763999938964844,-1.702799916267395
1683009848095399700,10.581399658203125,0.2572999894618988,0.28349998593330383,-1.7213999032974243
1683009848115399700,10.601399658203125,0.2624000012874603,0.17569999396800995,-1.5642999410629272
1683009848135399700,10.621399658203124,0.18299999833106995,0.1224999949336052,-1.3881999254226685
1683009848155399700,10.641399658203126,-0.03819999843835831,0.054899998009204865,-1.350000023841858
1683009848175399700,10.661399658203125,-0.19119998812675476,-0.06669999659061432,-1.3705999851226807
1683009848195399700,10.681399658203125,-0.24309998750686646,-0.1832999885082245,-1.2541999816894531
1683009848215399700,10.701399658203124,-0.12889999151229858,-0.20909999310970306,-1.2355999946594238
1683009848235399700,10.721399658203126,-0.07750000059604645,-0.06729999929666519,-1.1280999183654785
1683009848255399700,10.741399658203125,0.04230000078678131,0.09529999643564224,-1.1480000019073486
1683009848275399700,10.761399658203125,0.2199999988079071,0.19739998877048492,-0.9617999792098999
1683009848295399700,10.781399658203124,0.4016000032424927,0.25349998474121094,-0.7466999888420105
1683009848315399700,10.801399658203126,0.5134999752044678,0.24379999935626984,-0.5608999729156494
1683009848335399700,10.821399658203125,0.4664999842643738,0.2638999819755554,-0.6187999844551086
1683009848355399700,10.841399658203125,0.3018999993801117,0.2919999957084656,-0.7427999973297119
1683009848375399700,10.861399658203124,0.09730000048875809,0.4174000024795532,-0.6985999941825867
1683009848395399700,10.881399658203126,-0.08429999649524689,0.18639999628067017,0.032999999821186066
1683009848415399700,10.901399658203125,-0.21209999918937683,-0.24560000002384186,1.128499984741211
1683009848435399700,10.921399658203125,-0.16939999163150787,-0.574400007724762,2.4003000259399414
1683009848455399700,10.941399658203125,0.003000000026077032,-0.8899999856948853,3.241999864578247
1683009848475399700,10.961399658203124,0.05639999732375145,-0.9681999683380127,3.4958999156951904
1683009848495399700,10.981399658203125,0.21539999544620514,-0.79339998960495,2.712399959564209
1683009848515399700,11.001399658203125,0.5773000121116638,-0.8331999778747559,2.0394999980926514
1683009848535399700,11.021399658203125,1.1038999557495117,-1.0250999927520752,2.8350000381469727
1683009848555399700,11.041399658203124,1.2041999101638794,-0.7422999739646912,3.6303999423980713
1683009848575399700,11.061399658203126,0.4162999987602234,-0.13840000331401825,3.8493998050689697
1683009848595399700,11.081399658203125,-0.5386999845504761,0.3621000051498413,3.1654000282287598
1683009848615399700,11.101399658203125,-1.215499997138977,0.7277999520301819,1.9564999341964722
1683009848635399700,11.121399658203124,-1.6633999347686768,0.7063999772071838,1.045699954032898
1683009848655399700,11.141399658203126,-1.8269999027252197,0.5044000148773193,0.07750000059604645
1683009848675399700,11.161399658203125,-1.5784000158309937,0.09640000015497208,-0.6279000043869019
1683009848695399700,11.181399658203125,-1.0791000127792358,-0.17909999191761017,-1.0907999277114868
1683009848715399700,11.201399658203124,-0.7404999732971191,-0.32330000400543213,-1.4269999265670776
1683009848735399700,11.221399658203126,-0.46149998903274536,-0.29839998483657837,-1.2430999279022217
1683009848755399700,11.241399658203125,-0.3427000045776367,-0.1981000006198883,-0.6482999920845032
1683009848775399700,11.261399658203125,-0.4375999867916107,-0.22029998898506165,0.0803999975323677
1683009848795399700,11.281399658203124,-0.6180999875068665,-0.19329999387264252,0.4447000026702881
1683009848815399700,11.301399658203126,-0.8890999555587769,-0.18699999153614044,0.448199987411499
1683009848835399700,11.321399658203125,-1.1675999164581299,-0.22689999639987946,0.32679998874664307
1683009848855399700,11.341399658203125,-1.1962999105453491,-0.31610000133514404,0.28599998354911804
1683009848875399700,11.361399658203124,-1.1891999244689941,-0.420199990272522,0.23579999804496765
1683009848895399700,11.381399658203126,-1.3076999187469482,-0.4296000003814697,0.0284000001847744
1683009848915399700,11.401399658203125,-1.4049999713897705,-0.4302999973297119,-0.2184000015258789
1683009848935399700,11.421399658203125,-1.3215999603271484,-0.46889999508857727,-0.07360000163316727
1683009848955399700,11.441399658203125,-1.1729999780654907,-0.4717999994754791,0.20759999752044678
1683009848975399700,11.461399658203124,-1.1310999393463135,-0.31929999589920044,0.39079999923706055
1683009848995399700,11.481399658203125,-1.0824999809265137,-0.2069999873638153,0.3601999878883362
1683009849015399700,11.501399658203125,-0.9542999863624573,-0.22339999675750732,0.10639999806880951
1683009849035399700,11.521399658203125,-0.6067999601364136,-0.24859999120235443,-0.10729999840259552
1683009849055399700,11.541399658203124,-0.07889999449253082,-0.11919999867677689,-0.2712000012397766
1683009849075399700,11.561399658203126,0.00029999998514540493,-0.04079999774694443,-0.17889998853206635
1683009849095399700,11.581399658203125,-0.3125999867916107,-0.1251000016927719,-0.310699999332428
1683009849115399700,11.601399658203125,-0.4162999987602234,-0.5177000164985657,0.027899999171495438
1683009849135399700,11.621399658203124,-0.07699999958276749,-1.1371999979019165,1.1871999502182007
1683009849155399700,11.641399658203126,0.2516999840736389,-1.2912999391555786,2.3337998390197754
1683009849175399700,11.661399658203125,0.31200000643730164,-0.9429000020027161,2.9203999042510986
1683009849195399700,11.681399658203125,0.3131999969482422,-0.4034999907016754,2.6751999855041504
1683009849215399700,11.701399658203124,0.37459999322891235,0.03439999744296074,1.8626999855041504
1683009849235399700,11.721399658203126,0.5841000080108643,0.16920000314712524,0.5819999575614929
1683009849255399700,11.741399658203125,0.4697999954223633,0.11059999465942383,-0.5076000094413757
1683009849275399700,11.761399658203125,0.11739999800920486,-0.2902999818325043,-0.7315999865531921
1683009849295399700,11.781399658203124,-0.30809998512268066,-0.8529999852180481,-0.46869999170303345
1683009849315399700,11.801399658203126,-0.597000002861023,-1.2493000030517578,-0.06289999932050705
1683009849335399700,11.821399658203125,-0.7505999803543091,-1.4555999040603638,0.24199999868869781
1683009849355399700,11.841399658203125,-0.7074999809265137,-1.4074000120162964,0.41920000314712524
1683009849375399700,11.861399658203124,-0.6574999690055847,-1.3131999969482422,0.49859997630119324
1683009849395399700,11.881399658203126,-0.6132000088691711,-1.1723999977111816,0.4593999981880188
1683009849415399700,11.901399658203125,-0.5694999694824219,-1.051200032234192,0.1947999894618988
1683009849435399700,11.921399658203125,-0.4943999946117401,-0.9935999512672424,-0.15629999339580536
1683009849455399700,11.941399658203125,-0.41339999437332153,-1.011199951171875,-0.44749999046325684
1683009849475399700,11.961399658203124,-0.3617999851703644,-1.0618000030517578,-0.748199999332428
1683009849495399700,11.981399658203125,-0.4545999765396118,-1.094099998474121,-0.9412999749183655
1683009849515399700,12.001399658203125,-0.49239999055862427,-0.9914000034332275,-0.9983999729156494
1683009849535399700,12.021399658203125,-0.4731999933719635,-0.9256999492645264,-0.8515999913215637
1683009849555399700,12.041399658203124,-0.3560999929904938,-0.8240999579429626,-0.6387999653816223
1683009849575399700,12.061399658203126,-0.17090000212192535,-0.6793000102043152,-0.36959999799728394
1683009849595399700,12.081399658203125,0.1744999885559082,-0.5230000019073486,-0.032999999821186066
1683009849615399700,12.101399658203125,0.3901999890804291,-0.2816999852657318,0.30320000648498535
1683009849635399700,12.121399658203124,0.5970999598503113,0.06579999625682831,0.4936999976634979
1683009849655399700,12.141399658203126,0.7001999616622925,0.28999999165534973,0.5885999798774719
1683009849675399700,12.161399658203125,0.6194999814033508,0.41999998688697815,0.39100000262260437
1683009849695399700,12.181399658203125,0.3921999931335449,0.5164999961853027,-0.11809999495744705
1683009849715399700,12.201399658203124,0.2531000077724457,0.6103000044822693,-0.3312000036239624
1683009849735399700,12.221399658203126,0.11479999870061874,0.6405999660491943,-0.21279999613761902
1683009849755402800,12.24140283203125,-0.05549999698996544,0.6858999729156494,-0.15609999001026154
1683009849775401200,12.261401123046875,-0.056699998676776886,0.724299967288971,-0.21739999949932098
1683009849795399700,12.281399658203124,0.12159999459981918,0.7577999830245972,-0.23829999566078186
1683009849815402800,12.30140283203125,0.3244999945163727,0.8359999656677246,-0.052400000393390656
1683009849835402800,12.32140283203125,0.4341000020503998,0.9706999659538269,0.14259999990463257
1683009849855399700,12.341399658203125,0.21959999203681946,1.1201000213623047,0.3953000009059906
1683009849875399700,12.361399658203124,-0.035999998450279236,1.219499945640564,0.558899998664856
1683009849895399700,12.381399658203126,-0.09549999982118607,1.2839999198913574,0.7227999567985535
1683009849915399700,12.401399658203125,0.021699998527765274,1.1146999597549438,1.2595999240875244
1683009849935399700,12.421399658203125,0.0828000009059906,0.6596999764442444,2.0004000663757324
1683009849955399700,12.441399658203125,0.24159999191761017,0.33739998936653137,2.7075998783111572
1683009849975399700,12.461399658203124,0.31369999051094055,-0.03889999911189079,3.2653000354766846
1683009849995399700,12.481399658203125,0.2687000036239624,-0.2824999988079071,2.71809983253479
1683009850015399700,12.501399658203125,0.3498999774456024,-0.4542999863624573,1.480199933052063
1683009850035399700,12.521399658203125,0.4553000032901764,-0.4461999833583832,0.5297999978065491
1683009850055399700,12.541399658203124,0.21689999103546143,-0.36800000071525574,0.3653999865055084
1683009850075399700,12.561399658203126,-0.7268999814987183,-0.22419999539852142,0.3358999788761139
1683009850095399700,12.581399658203125,-1.7882999181747437,-0.37950000166893005,0.14639998972415924
1683009850115399700,12.601399658203125,-2.2319998741149902,-0.9386000037193298,0.13089999556541443
1683009850135399700,12.621399658203124,-1.8043999671936035,-1.3437999486923218,0.07679999619722366
1683009850155399700,12.641399658203126,-1.1095999479293823,-1.5496999025344849,0.1525999903678894
1683009850175399700,12.661399658203125,-0.715499997138977,-1.4953999519348145,0.17090000212192535
1683009850195399700,12.681399658203125,-0.486299991607666,-1.3549000024795532,-0.11329999566078186
1683009850215399700,12.701399658203124,-0.35169997811317444,-1.237399935722351,-0.28849998116493225
1683009850235399700,12.721399658203126,-0.43050000071525574,-1.1650999784469604,-0.4818999767303467
1683009850255399700,12.741399658203125,-0.5767999887466431,-0.993399977684021,-0.899399995803833
1683009850275399700,12.761399658203125,-0.7963999509811401,-0.7015999555587769,-1.3567999601364136
1683009850295399700,12.781399658203124,-0.9274999499320984,-0.4268999993801117,-1.493499994277954
1683009850315399700,12.801399658203126,-0.9077000021934509,-0.15119999647140503,-1.3674999475479126
1683009850335399700,12.821399658203125,-0.902899980545044,0.03529999777674675,-1.1345000267028809
1683009850355399700,12.841399658203125,-1.0340999364852905,0.09109999984502792,-0.8917999863624573
1683009850375399700,12.861399658203124,-0.9049999713897705,0.28529998660087585,-0.9228999614715576
1683009850395399700,12.881399658203126,-0.421099990606308,0.5180000066757202,-1.080199956893921
1683009850415399700,12.901399658203125,-0.020099999383091927,0.7576000094413757,-0.7166000008583069
1683009850435399700,12.921399658203125,-0.022299999371170998,0.9225999712944031,-0.19629999995231628
1683009850455399700,12.941399658203125,-0.35029998421669006,1.212499976158142,-0.3346000015735626
1683009850475399700,12.961399658203124,-0.5681999921798706,1.416599988937378,-0.6789000034332275
1683009850495399700,12.981399658203125,-0.382099986076355,1.5999999046325684,-0.9523999691009521
1683009850515399700,13.001399658203125,-0.11859999597072601,1.6173999309539795,-0.9881999492645264
1683009850535399700,13.021399658203125,0.04569999873638153,1.653999924659729,-0.9248999953269958
1683009850555399700,13.041399658203124,0.04209999740123749,1.5863999128341675,-0.5182999968528748
1683009850575399700,13.061399658203126,0.053599998354911804,1.5189999341964722,0.015099999494850636
1683009850595399700,13.081399658203125,-0.07930000126361847,1.4941999912261963,0.4702000021934509
1683009850615399700,13.101399658203125,-0.17790000140666962,1.5812000036239624,0.7694000005722046
1683009850635399700,13.121399658203124,-0.24239999055862427,1.692099928855896,0.9323999881744385
1683009850655399700,13.141399658203126,-0.33649998903274536,1.6388999223709106,0.8905999660491943
1683009850675399700,13.161399658203125,-0.4422999918460846,1.5235999822616577,1.0262999534606934
1683009850695399700,13.181399658203125,-0.6200999617576599,1.1978999376296997,1.5841000080108643
1683009850715399700,13.201399658203124,-0.8906999826431274,0.6995999813079834,2.5920000076293945
1683009850735399700,13.221399658203126,-0.9843999743461609,0.2839999794960022,3.519699811935425
1683009850755399700,13.241399658203125,-0.9273999929428101,-0.030899999663233757,3.8292999267578125
1683009850775399700,13.261399658203125,-0.7091000080108643,-0.19709999859333038,3.578699827194214
1683009850795399700,13.281399658203124,-0.5636000037193298,-0.3046000003814697,2.816499948501587
1683009850815399700,13.301399658203126,-0.4728999733924866,-0.3935999870300293,1.5542999505996704
1683009850835399700,13.321399658203125,-0.4258999824523926,-0.41189998388290405,0.16589999198913574
1683009850855399700,13.341399658203125,-0.3172999918460846,-0.46959999203681946,-0.8667999505996704
1683009850875399700,13.361399658203124,-0.2857999801635742,-0.6726999878883362,-1.1108999252319336
1683009850895399700,13.381399658203126,-0.37449997663497925,-0.7175999879837036,-0.6390999555587769
1683009850915399700,13.401399658203125,-0.6667999625205994,-0.5988999605178833,0.17109999060630798
1683009850935401200,13.421401123046875,-1.3317999839782715,-0.40779998898506165,0.79749995470047
1683009850955399700,13.441399658203125,-1.7173999547958374,-0.27619999647140503,1.1733999252319336
1683009850975399700,13.461399658203124,-1.8499999046325684,-0.2498999983072281,1.3118000030517578
1683009850995399700,13.481399658203125,-1.7111999988555908,-0.37860000133514404,1.3344999551773071
1683009851015399700,13.501399658203125,-1.4275000095367432,-0.5268999934196472,1.2122999429702759
1683009851035399700,13.521399658203125,-1.1764999628067017,-0.6398999691009521,0.7773999571800232
1683009851055399700,13.541399658203124,-0.923799991607666,-0.9193999767303467,0.09730000048875809
1683009851075401200,13.561401123046876,-0.46299999952316284,-1.1294000148773193,-0.5708000063896179
1683009851095399700,13.581399658203125,0.04149999842047691,-1.2762999534606934,-0.9036999940872192
1683009851115399700,13.601399658203125,0.335099995136261,-1.330899953842163,-1.0799000263214111
1683009851135399700,13.621399658203124,0.41929998993873596,-1.2379000186920166,-0.9842000007629395
1683009851155399700,13.641399658203126,0.3319999873638153,-1.139699935913086,-0.7947999835014343
1683009851175399700,13.661399658203125,0.05089999735355377,-1.032099962234497,-0.6777999997138977
1683009851195399700,13.681399658203125,-0.009999999776482582,-0.9188999533653259,-0.6297000050544739
1683009851215401200,13.701401123046875,0.0064999996684491634,-0.811199963092804,-0.6383999586105347
1683009851235399700,13.721399658203126,0.07669999450445175,-0.7102000117301941,-0.7718999981880188
1683009851255399700,13.741399658203125,0.2247999906539917,-0.5669999718666077,-0.9232999682426453
1683009851275401200,13.761401123046875,0.3130999803543091,-0.40139999985694885,-1.251099944114685
1683009851295399700,13.781399658203124,0.24529999494552612,-0.2865000069141388,-1.4905999898910522
1683009851315399700,13.801399658203126,0.15709999203681946,-0.20250000059604645,-1.6905999183654785
1683009851335399700,13.821399658203125,0.10989999771118164,-0.10040000081062317,-1.9088999032974243
1683009851355399700,13.841399658203125,0.056599996984004974,-0.11159999668598175,-2.037799835205078
1683009851375399700,13.861399658203124,-0.01860000006854534,-0.17309999465942383,-2.136899948120117
1683009851395399700,13.881399658203126,-0.09529999643564224,-0.3668999969959259,-2.0495998859405518
1683009851415399700,13.901399658203125,0.10349999368190765,-0.3822000026702881,-1.8941999673843384
1683009851435399700,13.921399658203125,0.24889999628067017,-0.22989998757839203,-1.8382999897003174
1683009851455399700,13.941399658203125,0.49129998683929443,0.1193000003695488,-1.9189999103546143
1683009851475399700,13.961399658203124,0.4935999810695648,0.1922999918460846,-1.7048999071121216
1683009851495399700,13.981399658203125,0.5819000005722046,0.23160000145435333,-1.5295000076293945
1683009851515399700,14.001399658203125,0.6585999727249146,0.3173999786376953,-1.1672999858856201
1683009851535399700,14.021399658203125,0.72079998254776,0.4059999883174896,-0.5199999809265137
1683009851555399700,14.041399658203124,0.6513000130653381,0.17059999704360962,0.3634999990463257
1683009851575401200,14.061401123046876,0.6538000106811523,-0.125900000333786,1.286099910736084
1683009851595399700,14.081399658203125,0.5600999593734741,-0.4779999852180481,2.286900043487549
1683009851615399700,14.101399658203125,0.3626999855041504,-0.5879999995231628,3.1009998321533203
1683009851635401200,14.121401123046875,0.1565999984741211,-0.48099997639656067,3.5322999954223633
1683009851655401200,14.141401123046874,0.07840000092983246,-0.5482000112533569,3.6706998348236084
1683009851675399700,14.161399658203125,0.3296999931335449,-0.6191999912261963,4.133299827575684
1683009851695399700,14.181399658203125,0.5503000020980835,-0.3822000026702881,4.51639986038208
1683009851715401200,14.201401123046875,0.1964999884366989,0.03590000048279762,4.3024001121521
1683009851735399700,14.221399658203126,-0.45659998059272766,0.36329999566078186,3.2864999771118164
1683009851755399700,14.241399658203125,-0.9077000021934509,0.5090999603271484,2.1155998706817627
1683009851775401200,14.261401123046875,-1.107100009918213,0.40939998626708984,1.0250999927520752
1683009851795399700,14.281399658203124,-1.374400019645691,0.17669999599456787,0.22869999706745148
1683009851815402800,14.30140283203125,-1.5513999462127686,0.1639000028371811,-0.412200003862381
1683009851835399700,14.321399658203125,-1.734299898147583,0.28209999203681946,-0.7232999801635742
1683009851855399700,14.341399658203125,-1.7237999439239502,0.6348999738693237,-0.9598000049591064
1683009851875399700,14.361399658203124,-1.647499918937683,1.0230000019073486,-1.1201999187469482
1683009851895399700,14.381399658203126,-1.5252000093460083,1.1930999755859375,-1.2698999643325806
1683009851915399700,14.401399658203125,-1.0917999744415283,1.2056999206542969,-1.2803000211715698
1683009851935401200,14.421401123046875,-0.7055999636650085,1.1274999380111694,-1.2030999660491943
1683009851955399700,14.441399658203125,-0.6317999958992004,1.1261999607086182,-1.314099907875061
1683009851975399700,14.461399658203124,-0.9103999733924866,1.1741999387741089,-1.7294999361038208
1683009851995399700,14.481399658203125,-1.1658999919891357,1.0978000164031982,-1.9072999954223633
1683009852015399700,14.501399658203125,-0.9611999988555908,0.9362999796867371,-2.160799980163574
1683009852035399700,14.521399658203125,-0.6323999762535095,0.7586999535560608,-2.3243000507354736
1683009852055399700,14.541399658203124,-0.2963999807834625,0.5643999576568604,-1.841399908065796
1683009852075399700,14.561399658203126,-0.3212999999523163,0.5277999639511108,-1.0083999633789062
1683009852095399700,14.581399658203125,-0.5990999937057495,0.5511000156402588,-0.46129998564720154
1683009852115399700,14.601399658203125,-0.8431999683380127,0.5665000081062317,-0.4739999771118164
1683009852135399700,14.621399658203124,-0.7764999866485596,0.41359999775886536,-1.0655999183654785
1683009852155399700,14.641399658203126,-0.42739999294281006,0.18469999730587006,-1.5875999927520752
1683009852175399700,14.661399658203125,-0.1841999888420105,-0.07899999618530273,-2.067999839782715
1683009852195399700,14.681399658203125,-0.009800000116229057,-0.6654999852180481,-1.8863999843597412
1683009852215399700,14.701399658203124,0.20600000023841858,-1.4220999479293823,-0.6470999717712402
1683009852235399700,14.721399658203126,0.3595999777317047,-1.9079999923706055,1.4290000200271606
1683009852255399700,14.741399658203125,0.5148000121116638,-1.5496999025344849,3.5291998386383057
1683009852275399700,14.761399658203125,0.4624999761581421,-0.9569999575614929,5.158999919891357
1683009852295399700,14.781399658203124,-0.05389999970793724,-0.33969998359680176,5.328000068664551
1683009852315399700,14.801399658203126,-0.5396999716758728,-0.1914999932050705,4.1255998611450195
1683009852335399700,14.821399658203125,-0.06650000065565109,-0.46549999713897705,2.9557998180389404
1683009852355399700,14.841399658203125,0.7694000005722046,-1.2144999504089355,2.9586000442504883
1683009852375399700,14.861399658203124,1.354099988937378,-1.4114999771118164,3.1407999992370605
1683009852395399700,14.881399658203126,1.0864999294281006,-1.2175999879837036,3.1643998622894287
1683009852415399700,14.901399658203125,0.3280999958515167,-0.7648999691009521,2.3101999759674072
1683009852435402800,14.92140283203125,-0.3287999927997589,-0.44529998302459717,1.1389999389648438
1683009852455399700,14.941399658203125,-0.4607999920845032,-0.460099995136261,0.234499990940094
1683009852475399700,14.961399658203124,-0.018699999898672104,-0.5859999656677246,-0.28279998898506165
1683009852495399700,14.981399658203125,0.41819998621940613,-0.5080000162124634,-0.5625999569892883
1683009852515399700,15.001399658203125,0.44039997458457947,-0.29679998755455017,-0.6484000086784363
1683009852535399700,15.021399658203125,0.09269999712705612,-0.032499998807907104,-0.8463999629020691
1683009852555399700,15.041399658203124,-0.09489999711513519,0.2705000042915344,-1.1830999851226807
1683009852575401200,15.061401123046876,-0.16099999845027924,0.536300003528595,-1.5578999519348145
1683009852595399700,15.081399658203125,-0.1143999993801117,0.6843000054359436,-1.5773999691009521
1683009852615399700,15.101399658203125,-0.13910000026226044,0.7734000086784363,-1.4491000175476074
1683009852635401200,15.121401123046875,-0.3188000023365021,0.8733999729156494,-1.302899956703186
1683009852655399700,15.141399658203126,-0.5676000118255615,0.911899983882904,-1.0710999965667725
1683009852675399700,15.161399658203125,-0.755299985408783,0.8863999843597412,-0.9098999500274658
1683009852695399700,15.181399658203125,-0.8139999508857727,0.8478999733924866,-1.1514999866485596
1683009852715401200,15.201401123046875,-0.6139999628067017,0.590999960899353,-1.3035999536514282
1683009852735399700,15.221399658203126,0.008700000122189522,0.4773999750614166,-1.3458999395370483
1683009852755399700,15.241399658203125,0.09030000120401382,0.4236999750137329,-1.2595000267028809
1683009852775401200,15.261401123046875,0.1005999967455864,0.4016000032424927,-1.514699935913086
1683009852795399700,15.281399658203124,0.14169999957084656,-0.028599999845027924,-1.1899999380111694
1683009852815399700,15.301399658203126,0.526199996471405,-0.13910000026226044,-1.2386999130249023
1683009852835399700,15.321399658203125,0.8371999859809875,-0.15459999442100525,-1.57069993019104
1683009852855399700,15.341399658203125,1.0565999746322632,-0.06149999797344208,-1.7841999530792236
1683009852875399700,15.361399658203124,1.0306999683380127,0.08060000091791153,-1.830899953842163
1683009852895399700,15.381399658203126,1.1445000171661377,-0.10539999604225159,-1.013700008392334
1683009852915399700,15.401399658203125,1.2107999324798584,-0.4129999876022339,0.5180000066757202
1683009852935401200,15.421401123046875,1.1904000043869019,-0.6261000037193298,1.7537999153137207
1683009852955399700,15.441399658203125,0.5507999658584595,-0.8438000082969666,2.4405999183654785
1683009852975399700,15.461399658203124,-0.2556000053882599,-1.0055999755859375,2.5794999599456787
1683009852995399700,15.481399658203125,-0.7190999984741211,-0.8233999609947205,2.2010998725891113
1683009853015399700,15.501399658203125,-0.7195999622344971,-1.3887999057769775,3.253999948501587
1683009853035399700,15.521399658203125,-0.05379999801516533,-1.9803999662399292,4.939199924468994
1683009853055399700,15.541399658203124,0.5060999989509583,-1.3773999214172363,5.228699684143066
1683009853075401200,15.561401123046876,0.37209999561309814,-0.7728999853134155,4.274199962615967
1683009853095399700,15.581399658203125,0.1574999988079071,-0.27789998054504395,2.8524999618530273
1683009853115399700,15.601399658203125,0.03759999945759773,-0.01759999990463257,1.180299997329712
1683009853135399700,15.621399658203124,-0.056199997663497925,0.17639999091625214,-0.2434999942779541
1683009853155399700,15.641399658203126,-0.24039998650550842,0.273499995470047,-0.8540999889373779
1683009853175399700,15.661399658203125,-0.6236000061035156,0.29269999265670776,-0.9283999800682068
1683009853195399700,15.681399658203125,-1.0200999975204468,0.4152999818325043,-1.0942000150680542
1683009853215401200,15.701401123046875,-1.1614999771118164,0.5461999773979187,-1.0958999395370483
1683009853235399700,15.721399658203126,-0.9192000031471252,0.5490999817848206,-0.833899974822998
1683009853255399700,15.741399658203125,-0.6110000014305115,0.5990999937057495,-0.6215999722480774
1683009853275401200,15.761401123046875,-0.3285999894142151,0.7045999765396118,-0.6631999611854553
1683009853295402800,15.78140283203125,-0.25099998712539673,0.715499997138977,-0.7809000015258789
1683009853315402800,15.80140283203125,-0.2190999984741211,0.7123000025749207,-0.9562000036239624
1683009853335402800,15.82140283203125,-0.25110000371932983,0.600600004196167,-0.847000002861023
1683009853355399700,15.841399658203125,-0.4276999831199646,0.5934999585151672,-0.6010000109672546
1683009853375399700,15.861399658203124,-0.7290999889373779,0.6220999956130981,-0.6105999946594238
1683009853395399700,15.881399658203126,-0.8965999484062195,0.6354999542236328,-0.8651999831199646
1683009853415399700,15.901399658203125,-0.9109999537467957,0.628600001335144,-1.208299994468689
1683009853435401200,15.921401123046875,-0.7177000045776367,0.7071999907493591,-1.6878999471664429
1683009853455399700,15.941399658203125,-0.5286999940872192,0.7487999796867371,-1.9803999662399292
1683009853475399700,15.961399658203124,-0.2865999937057495,0.8298999667167664,-1.7039999961853027
1683009853495399700,15.981399658203125,-0.28669998049736023,0.8569999933242798,-0.87909996509552
1683009853515399700,16.001399658203123,-0.4447000026702881,0.8059999942779541,-0.4161999821662903
1683009853535401200,16.021401123046875,-0.4755999743938446,0.9542999863624573,-0.3427000045776367
1683009853555399700,16.041399658203126,-0.5444999933242798,1.1055999994277954,-0.46320000290870667
1683009853575399700,16.061399658203126,-0.38850000500679016,1.0568000078201294,-0.9247999787330627
1683009853595399700,16.081399658203125,-0.12150000035762787,0.7042999863624573,-1.1126999855041504
1683009853615399700,16.101399658203125,0.2150999903678894,0.27410000562667847,-0.5297999978065491
1683009853635401200,16.121401123046876,0.47110000252723694,-0.0357000008225441,0.6495999693870544
1683009853655401200,16.141401123046876,0.45659998059272766,-0.22839999198913574,1.8772999048233032
1683009853675399700,16.161399658203123,0.37539997696876526,-0.18389999866485596,2.7605998516082764
1683009853695399700,16.181399658203127,0.32099997997283936,-0.06939999759197235,3.3683998584747314
1683009853715402800,16.20140283203125,0.12879998981952667,-0.04739999771118164,3.2375998497009277
1683009853735399700,16.221399658203126,0.2061999887228012,-0.5241000056266785,3.1445999145507812
1683009853755399700,16.241399658203125,0.6568999886512756,-1.00819993019104,3.277400016784668
1683009853775399700,16.261399658203125,0.8764999508857727,-1.555299997329712,3.3919999599456787
1683009853795399700,16.281399658203124,0.8215999603271484,-1.725600004196167,3.329399824142456
1683009853815399700,16.301399658203124,0.6132999658584595,-1.6196999549865723,2.716899871826172
1683009853835399700,16.321399658203124,0.42409998178482056,-1.343999981880188,1.577299952507019
1683009853855399700,16.341399658203127,0.30410000681877136,-1.0750999450683594,0.7238999605178833
1683009853875399700,16.361399658203126,0.3734999895095825,-0.8490999937057495,0.22499999403953552
1683009853895399700,16.381399658203126,0.26909998059272766,-0.6067999601364136,-0.009099999442696571
1683009853915399700,16.401399658203125,0.047199998050928116,-0.3748999834060669,-0.20549999177455902
1683009853935399700,16.421399658203125,-0.1477999985218048,-0.21849998831748962,-0.41259998083114624
1683009853955399700,16.441399658203125,-0.25439998507499695,-0.11599999666213989,-0.7277999520301819
1683009853975399700,16.461399658203124,-0.2029999941587448,-0.06119999662041664,-1.218400001525879
1683009853995399700,16.481399658203124,-0.08079999685287476,-0.044599998742341995,-1.698199987411499
1683009854015399700,16.501399658203123,-0.025699999183416367,-0.03460000082850456,-2.1375999450683594
1683009854035399700,16.521399658203126,-0.12960000336170197,-0.07639999687671661,-2.341399908065796
1683009854055399700,16.541399658203126,-0.32829999923706055,-0.046299997717142105,-2.496799945831299
1683009854075401200,16.561401123046874,-0.5006999969482422,-0.028299998492002487,-2.3688998222351074
1683009854095399700,16.581399658203125,-0.6876999735832214,0.03889999911189079,-2.272599935531616
1683009854115399700,16.601399658203125,-0.7268999814987183,0.02589999884366989,-2.1387999057769775
1683009854135401200,16.621401123046876,-0.5098000168800354,-0.1670999974012375,-1.6029999256134033
1683009854155399700,16.641399658203124,-0.125900000333786,-0.2581000030040741,-1.174899935722351
1683009854175399700,16.661399658203123,0.16359999775886536,-0.08069999516010284,-1.0399999618530273
1683009854195399700,16.681399658203127,0.2087000012397766,0.24489998817443848,-1.1598999500274658
1683009854215401200,16.701401123046875,0.023799998685717583,0.43309998512268066,-1.368899941444397
1683009854235399700,16.721399658203126,0.010999999940395355,0.3788999915122986,-1.6656999588012695
1683009854255399700,16.741399658203125,0.2554999887943268,-0.0004999999655410647,-1.077299952507019
1683009854275399700,16.761399658203125,0.5744999647140503,-0.7441999912261963,0.3549000024795532
1683009854295399700,16.781399658203124,0.8041999936103821,-1.2874000072479248,1.6697999238967896
1683009854315399700,16.801399658203124,1.0583000183105469,-1.50819993019104,2.660399913787842
1683009854335399700,16.821399658203124,1.024399995803833,-1.3945999145507812,3.2298998832702637
1683009854355399700,16.841399658203127,0.6859999895095825,-0.7806999683380127,3.0082998275756836
1683009854375399700,16.861399658203126,0.12189999967813492,-0.12849999964237213,1.9356999397277832
1683009854395399700,16.881399658203126,-0.3001999855041504,0.000699999975040555,1.2286999225616455
1683009854415399700,16.901399658203125,-0.34929999709129333,-0.6557999849319458,1.9822999238967896
1683009854435399700,16.921399658203125,0.00029999998514540493,-1.2092000246047974,3.3982999324798584
1683009854455399700,16.941399658203125,-0.14499999582767487,-1.1410999298095703,5.424599647521973
1683009854475399700,16.961399658203124,-0.27059999108314514,-0.6209999918937683,5.927000045776367
1683009854495399700,16.981399658203124,-0.8672999739646912,0.02589999884366989,4.107800006866455
1683009854515399700,17.001399658203123,-0.5623999834060669,0.353300005197525,1.577299952507019
1683009854535399700,17.021399658203126,0.03879999741911888,0.48510000109672546,-0.32589998841285706
1683009854555399700,17.041399658203126,0.45179998874664307,0.5297999978065491,-1.2216999530792236
1683009854575399700,17.061399658203126,0.09429999440908432,0.5209000110626221,-1.6495000123977661
1683009854595399700,17.081399658203125,-0.7313999533653259,0.5831999778747559,-1.8697999715805054
1683009854615399700,17.101399658203125,-1.3352999687194824,0.4952999949455261,-1.754599928855896
1683009854635399700,17.121399658203124,-1.6969999074935913,0.4359000027179718,-1.5338999032974243
1683009854655399700,17.141399658203124,-1.6273999214172363,0.49559998512268066,-1.1440999507904053
1683009854675399700,17.161399658203123,-1.0749999284744263,0.6238999962806702,-0.5360999703407288
1683009854695399700,17.181399658203127,-0.6317999958992004,0.7396000027656555,-0.27059999108314514
1683009854715399700,17.201399658203126,-0.32659998536109924,0.7845999598503113,-0.4271000027656555
1683009854735399700,17.221399658203126,-0.1753000020980835,0.760699987411499,-0.7994999885559082
1683009854755399700,17.241399658203125,0.052400000393390656,0.6354999542236328,-1.072700023651123
1683009854775399700,17.261399658203125,0.3391000032424927,0.5777999758720398,-1.069700002670288
1683009854795399700,17.281399658203124,0.19749999046325684,0.6425999999046326,-1.320199966430664
1683009854815399700,17.301399658203124,-0.41169998049736023,0.8565999865531921,-1.8358999490737915
1683009854835399700,17.321399658203124,-0.9363999962806702,0.97079998254776,-2.2152998447418213
1683009854855399700,17.341399658203127,-1.2200000286102295,1.028499960899353,-2.3315000534057617
1683009854875399700,17.361399658203126,-1.3842999935150146,1.0458999872207642,-2.183300018310547
1683009854895399700,17.381399658203126,-1.5194000005722046,1.0570999383926392,-1.632599949836731
1683009854915399700,17.401399658203125,-1.6502999067306519,1.1460999250411987,-1.0729999542236328
1683009854935399700,17.421399658203125,-1.8305000066757202,1.067199945449829,-0.767300009727478
1683009854955399700,17.441399658203125,-1.8695999383926392,0.6079999804496765,-0.5210999846458435
1683009854975399700,17.461399658203124,-0.9758999943733215,-0.1623999923467636,0.10769999772310257
1683009854995399700,17.481399658203124,0.1516999900341034,-0.8827999830245972,1.2842999696731567
1683009855015399700,17.501399658203123,1.1993999481201172,-1.1966999769210815,2.2727999687194824
1683009855035399700,17.521399658203126,1.7421000003814697,-1.3014999628067017,2.679299831390381
1683009855055399700,17.541399658203126,2.017400026321411,-1.0927000045776367,2.6403000354766846
1683009855075399700,17.561399658203126,1.5281999111175537,-1.0504999160766602,2.101300001144409
1683009855095399700,17.581399658203125,1.0601999759674072,-1.5175999402999878,2.2223000526428223
1683009855115399700,17.601399658203125,1.0936999320983887,-1.692699909210205,3.705399990081787
1683009855135399700,17.621399658203124,1.0060999393463135,-1.3026999235153198,4.736599922180176
1683009855155399700,17.641399658203124,0.6685000061988831,-0.699999988079071,4.505099773406982
1683009855175399700,17.661399658203123,0.08659999817609787,-0.41419997811317444,3.696499824523926
1683009855195399700,17.681399658203127,0.20829999446868896,-0.16749998927116394,2.545300006866455
1683009855215399700,17.701399658203126,0.6796999573707581,0.02319999970495701,1.1836999654769897
1683009855235399700,17.721399658203126,0.8628999590873718,0.1251000016927719,0.16979999840259552
1683009855255399700,17.741399658203125,0.6194999814033508,0.1605999916791916,-0.44919997453689575
1683009855275399700,17.761399658203125,0.07829999923706055,0.33959999680519104,-0.7955999970436096
1683009855295399700,17.781399658203124,-0.517799973487854,0.5637999773025513,-1.0472999811172485
1683009855315399700,17.801399658203124,-0.7953999638557434,0.6721000075340271,-1.1345999240875244
1683009855335399700,17.821399658203124,-0.7798999547958374,0.6732999682426453,-1.3021999597549438
1683009855355402800,17.84140283203125,-0.5640999674797058,0.5859000086784363,-1.3320000171661377
1683009855375399700,17.861399658203126,-0.2994999885559082,0.4818999767303467,-1.26419997215271
1683009855395402800,17.88140283203125,-0.04769999906420708,0.38749998807907104,-1.3036999702453613
1683009855415402800,17.90140283203125,0.03929999843239784,0.3165999948978424,-1.2554999589920044
1683009855435399700,17.921399658203125,0.07530000060796738,0.1898999959230423,-1.0715999603271484
1683009855455399700,17.941399658203125,0.00969999935477972,0.13740000128746033,-0.8968999981880188
1683009855475399700,17.961399658203124,-0.11469999700784683,0.2222999930381775,-0.8299999833106995
1683009855495399700,17.981399658203124,-0.33879998326301575,0.32359999418258667,-1.037500023841858
1683009855515399700,18.001399658203123,-0.38979998230934143,0.2953000068664551,-1.3229999542236328
1683009855535399700,18.021399658203126,-0.32099997997283936,0.08060000091791153,-1.6369999647140503
1683009855555399700,18.041399658203126,0.11819999665021896,-0.3044999837875366,-1.685499906539917
1683009855575402800,18.06140283203125,0.49399998784065247,-0.6297000050544739,-1.8321999311447144
1683009855595399700,18.081399658203125,0.6947000026702881,-0.7353000044822693,-2.007999897003174
1683009855615399700,18.101399658203125,0.6459000110626221,-0.70660001039505,-2.253000020980835
1683009855635401200,18.121401123046876,0.4486999809741974,-0.44209998846054077,-2.3603999614715576
1683009855655401200,18.141401123046876,0.1200999990105629,-0.16659998893737793,-2.1240999698638916
1683009855675399700,18.161399658203123,-0.06439999490976334,-0.24069999158382416,-1.181399941444397
1683009855695399700,18.181399658203127,0.12929999828338623,-0.3243999779224396,0.14100000262260437
1683009855715401200,18.201401123046875,0.5692999958992004,-0.49549999833106995,1.4879999160766602
1683009855735399700,18.221399658203126,0.9559999704360962,-0.7603999972343445,2.8899998664855957
1683009855755402800,18.24140283203125,0.8359000086784363,-0.5647000074386597,4.230400085449219
1683009855775402800,18.26140283203125,0.368399977684021,-0.3009999990463257,4.642099857330322
1683009855795399700,18.281399658203124,0.012399999424815178,-0.8102999925613403,5.060400009155273
1683009855815399700,18.301399658203124,0.09339999407529831,-1.0115000009536743,5.489099979400635
1683009855835399700,18.321399658203124,0.24929998815059662,-0.6861000061035156,4.968499660491943
1683009855855399700,18.341399658203127,-0.04050000011920929,-0.1477999985218048,3.6582999229431152
1683009855875399700,18.361399658203126,-0.652899980545044,0.1996999979019165,2.467099905014038
1683009855895402800,18.38140283203125,-1.0361000299453735,0.3702999949455261,1.3832999467849731
1683009855915399700,18.401399658203125,-1.2401999235153198,0.38519999384880066,0.3968999981880188
1683009855935401200,18.421401123046873,-1.2910000085830688,0.2815999984741211,-0.14919999241828918
1683009855955399700,18.441399658203125,-1.351099967956543,0.2238999903202057,-0.5008000135421753
1683009855975402800,18.46140283203125,-1.2940999269485474,0.18769998848438263,-0.9517999887466431
1683009855995399700,18.481399658203124,-1.138100028038025,0.12719999253749847,-1.2263000011444092
1683009856015399700,18.501399658203123,-0.8613999485969543,0.0803999975323677,-1.4128999710083008
1683009856035399700,18.521399658203126,-0.6190999746322632,0.1656000018119812,-1.8143999576568604
1683009856055399700,18.541399658203126,-0.48420000076293945,0.2019999921321869,-2.0197999477386475
1683009856075401200,18.561401123046874,-0.40529999136924744,0.17309999465942383,-2.068699836730957
1683009856095399700,18.581399658203125,-0.37139999866485596,0.11679999530315399,-1.9513999223709106
1683009856115399700,18.601399658203125,-0.5224999785423279,0.09449999779462814,-1.796299934387207
1683009856135401200,18.621401123046876,-0.6119999885559082,0.17899999022483826,-1.670799970626831
1683009856155399700,18.641399658203124,-0.6656000018119812,0.34939998388290405,-1.534600019454956
1683009856175399700,18.661399658203123,-0.6581999659538269,0.5521000027656555,-1.5049999952316284
1683009856195399700,18.681399658203127,-0.764799952507019,0.6430999636650085,-1.3665999174118042
1683009856215399700,18.701399658203126,-0.8804999589920044,0.6469999551773071,-1.2972999811172485
1683009856235399700,18.721399658203126,-0.8680999875068665,0.5690000057220459,-1.2481999397277832
1683009856255399700,18.741399658203125,-0.7651000022888184,0.4528999924659729,-0.9251999855041504
1683009856275399700,18.761399658203125,-0.598800003528595,0.39409998059272766,-0.4165000021457672
1683009856295399700,18.781399658203124,-0.5443999767303467,0.48079997301101685,-0.16369999945163727
1683009856315399700,18.801399658203124,-0.5485999584197998,0.7095999717712402,-0.517799973487854
1683009856335399700,18.821399658203124,-0.42879998683929443,0.674299955368042,-1.1930999755859375
1683009856355399700,18.841399658203127,-0.10520000010728836,0.370199978351593,-1.5326999425888062
1683009856375399700,18.861399658203126,0.3009999990463257,-0.32019999623298645,-0.9691999554634094
1683009856395399700,18.881399658203126,0.7901999950408936,-0.7877999544143677,0.29889997839927673
1683009856415399700,18.901399658203125,1.2404999732971191,-0.8894000053405762,2.0063998699188232
1683009856435399700,18.921399658203125,0.9946999549865723,-1.031599998474121,3.827899932861328
1683009856455399700,18.941399658203125,0.5618000030517578,-0.692799985408783,4.020400047302246
1683009856475399700,18.961399658203124,0.29909998178482056,-0.5101999640464783,3.371799945831299
1683009856495399700,18.981399658203124,0.6556999683380127,-0.6686999797821045,3.4217000007629395
1683009856515399700,19.001399658203123,1.2960000038146973,-0.7532999515533447,3.80649995803833
1683009856535399700,19.021399658203126,1.3323999643325806,-0.5848000049591064,3.566499948501587
1683009856555399700,19.041399658203126,0.6471999883651733,-0.46389999985694885,3.09060001373291
1683009856575399700,19.061399658203126,0.13419999182224274,-0.4635999798774719,2.5909998416900635
1683009856595399700,19.081399658203125,-0.1735999882221222,-0.4276999831199646,1.8051999807357788
1683009856615399700,19.101399658203125,-0.156700000166893,-0.3361999988555908,1.0892999172210693
1683009856635399700,19.121399658203124,-0.08659999817609787,-0.11469999700784683,0.21739999949932098
1683009856655399700,19.141399658203124,-0.15950000286102295,0.010799999348819256,-0.6057999730110168
1683009856675399700,19.161399658203123,-0.1826999932527542,0.18459999561309814,-1.2934999465942383
1683009856695399700,19.181399658203127,-0.2043999880552292,0.19039998948574066,-1.8260999917984009
1683009856715399700,19.201399658203126,-0.12349999696016312,0.17870000004768372,-1.9375
1683009856735399700,19.221399658203126,-0.11559999734163284,0.05570000037550926,-1.7455999851226807
1683009856755399700,19.241399658203125,0.042399998754262924,-0.012199999764561653,-1.5343999862670898
1683009856775399700,19.261399658203125,0.13289999961853027,-0.023899998515844345,-1.1268999576568604
1683009856795399700,19.281399658203124,0.18279999494552612,0.023499999195337296,-0.7694999575614929
1683009856815399700,19.301399658203124,0.09439999610185623,0.06619999557733536,-0.7159000039100647
1683009856835399700,19.321399658203124,-0.07800000160932541,0.13699999451637268,-1.0133999586105347
1683009856855399700,19.341399658203127,-0.15029999613761902,0.14239999651908875,-1.514699935913086
1683009856875399700,19.361399658203126,-0.20969998836517334,0.026999998837709427,-1.7897999286651611
1683009856895399700,19.381399658203126,-0.07569999992847443,-0.15349999070167542,-1.90749990940094
1683009856915399700,19.401399658203125,0.13009999692440033,-0.3229999840259552,-1.9652999639511108
1683009856935399700,19.421399658203125,0.23319999873638153,-0.4311999976634979,-1.9437999725341797
1683009856955399700,19.441399658203125,0.299699991941452,-0.4388999938964844,-1.942199945449829
1683009856975399700,19.461399658203124,0.33169999718666077,-0.26579999923706055,-1.6959999799728394
1683009856995399700,19.481399658203124,0.17739999294281006,-0.02329999953508377,-1.4218000173568726
1683009857015399700,19.501399658203123,0.07539999485015869,-0.07400000095367432,-0.7361999750137329
1683009857035399700,19.521399658203126,0.033900000154972076,-0.210999995470047,0.6049000024795532
1683009857055399700,19.541399658203126,0.141199991106987,-0.19659999012947083,1.7106999158859253
1683009857075399700,19.561399658203126,0.2858999967575073,-0.3789999783039093,3.287799835205078
1683009857095399700,19.581399658203125,0.2628999948501587,-0.4802999794483185,4.413099765777588
1683009857115399700,19.601399658203125,0.23799999058246613,-0.15309999883174896,4.097099781036377
1683009857135399700,19.621399658203124,0.3951999843120575,-0.03189999982714653,3.311800003051758
1683009857155399700,19.641399658203124,0.7861999869346619,-0.38119998574256897,3.301999807357788
1683009857175399700,19.661399658203123,1.1273000240325928,-0.5959999561309814,3.516199827194214
1683009857195399700,19.681399658203127,0.8587999939918518,-0.23359999060630798,3.4465999603271484
1683009857215399700,19.701399658203126,-0.07409999519586563,-0.1597999930381775,3.004199981689453
1683009857235399700,19.721399658203126,-0.7210999727249146,-0.34700000286102295,2.47409987449646
1683009857255399700,19.741399658203125,-0.9979999661445618,-0.4901999831199646,1.631500005722046
1683009857275399700,19.761399658203125,-1.0946999788284302,-0.39559999108314514,0.5067999958992004
1683009857295399700,19.781399658203124,-1.1531000137329102,-0.29490000009536743,-0.5473999977111816
1683009857315399700,19.801399658203124,-1.166599988937378,-0.21079999208450317,-1.2099000215530396
1683009857335399700,19.821399658203124,-1.1181999444961548,-0.04969999939203262,-1.5614999532699585
1683009857355399700,19.841399658203127,-0.9652999639511108,0.1914999932050705,-1.4936000108718872
1683009857375399700,19.861399658203126,-0.8901000022888184,0.49229997396469116,-1.2800999879837036
1683009857395399700,19.881399658203126,-0.8276000022888184,0.5317000150680542,-1.0673999786376953
1683009857415399700,19.901399658203125,-0.5539999604225159,0.49300000071525574,-0.8061999678611755
1683009857435399700,19.921399658203125,-0.22829999029636383,0.34790000319480896,-0.6434000134468079
1683009857455399700,19.941399658203125,0.10719999670982361,0.1873999983072281,-0.2646999955177307
1683009857475399700,19.961399658203124,0.24479998648166656,0.2012999951839447,-0.23879998922348022
1683009857495399700,19.981399658203124,0.13349999487400055,0.1379999965429306,-0.6819999814033508
1683009857515399700,20.001399658203123,-0.04399999976158142,0.03889999911189079,-1.2898999452590942
1683009857535399700,20.021399658203126,-0.051500000059604645,-0.031199999153614044,-1.670300006866455
1683009857555402800,20.04140283203125,-0.07750000059604645,-0.027799999341368675,-1.9613999128341675
1683009857575401200,20.061401123046874,-0.19949999451637268,0.19139999151229858,-2.36929988861084
1683009857595399700,20.081399658203125,-0.2793999910354614,0.34919998049736023,-2.4819998741149902
1683009857615399700,20.101399658203125,-0.3434000015258789,0.4617999792098999,-2.3008999824523926
1683009857635401200,20.121401123046876,-0.4941999912261963,0.5281000137329102,-1.778999924659729
1683009857655401200,20.141401123046876,-0.7683999538421631,0.5999999642372131,-1.1128000020980835
1683009857675399700,20.161399658203123,-0.9097999930381775,0.7346000075340271,-0.7216999530792236
1683009857695399700,20.181399658203127,-1.1208999156951904,0.8567000031471252,-0.47769999504089355
1683009857715401200,20.201401123046875,-1.1500999927520752,0.8901999592781067,-0.7716000080108643
1683009857735399700,20.221399658203126,-0.7313999533653259,0.6517999768257141,-1.3560999631881714
1683009857755399700,20.241399658203125,-0.20899999141693115,0.019199999049305916,-0.9781999588012695
1683009857775399700,20.261399658203125,0.3294000029563904,-0.4746999740600586,0.19209998846054077
1683009857795399700,20.281399658203124,0.42549997568130493,-0.6955999732017517,1.6744999885559082
1683009857815399700,20.301399658203124,0.27649998664855957,-0.6615999937057495,3.0271999835968018
1683009857835399700,20.321399658203124,0.2368999868631363,-0.7354999780654907,3.926800012588501
1683009857855399700,20.341399658203127,0.3127000033855438,-0.18199999630451202,3.6499998569488525
1683009857875399700,20.361399658203126,0.37869998812675476,-0.20649999380111694,3.9038000106811523
1683009857895399700,20.381399658203126,0.6578999757766724,-0.1500999927520752,4.079400062561035
1683009857915399700,20.401399658203125,0.642300009727478,-0.2052999883890152,3.853799819946289
1683009857935401200,20.421401123046873,0.43709999322891235,-0.28859999775886536,3.4498000144958496
1683009857955399700,20.441399658203125,0.2402999997138977,-0.38169997930526733,2.8185999393463135
1683009857975399700,20.461399658203124,0.09619999676942825,-0.35009998083114624,1.9035999774932861
1683009857995399700,20.481399658203124,0.08249999582767487,-0.44419997930526733,0.979699969291687
1683009858015399700,20.501399658203123,0.1876000016927719,-0.6563999652862549,0.07660000026226044
1683009858035399700,20.521399658203126,0.4521999955177307,-0.8550999760627747,-0.491599977016449
1683009858055399700,20.541399658203126,0.7324999570846558,-0.9230999946594238,-0.7057999968528748
1683009858075399700,20.561399658203126,0.8686999678611755,-0.6931999921798706,-0.8319999575614929
1683009858095399700,20.581399658203125,0.7644000053405762,-0.3443000018596649,-0.8126999735832214
1683009858115399700,20.601399658203125,0.5503999590873718,-0.01979999989271164,-0.9228999614715576
1683009858135399700,20.621399658203124,0.4453999996185303,0.22929999232292175,-0.9740999937057495
1683009858155399700,20.641399658203124,0.37389999628067017,0.4357999861240387,-0.9264999628067017
1683009858175399700,20.661399658203123,0.12219999730587006,0.5849999785423279,-0.7213999629020691
1683009858195399700,20.681399658203127,-0.20659999549388885,0.6504999995231628,-0.5167999863624573
1683009858215399700,20.701399658203126,-0.4765999913215637,0.7119999527931213,-0.7049999833106995
1683009858235399700,20.721399658203126,-0.6851999759674072,0.6111999750137329,-1.2853999137878418
1683009858255399700,20.741399658203125,-0.7145999670028687,0.29999998211860657,-1.9325999021530151
1683009858275402800,20.76140283203125,-0.3546999990940094,0.010799999348819256,-2.3020999431610107
1683009858295399700,20.781399658203124,-0.04609999805688858,-0.23199999332427979,-2.629699945449829
1683009858315399700,20.801399658203124,0.10009999573230743,-0.37849998474121094,-2.819700002670288
1683009858335399700,20.821399658203124,0.25360000133514404,-0.5385000109672546,-2.8348000049591064
1683009858355399700,20.841399658203127,0.2818000018596649,-0.6241999864578247,-2.677500009536743
1683009858375399700,20.861399658203126,0.36159998178482056,-0.609499990940094,-2.386199951171875
1683009858395399700,20.881399658203126,0.38760000467300415,-0.6132999658584595,-1.7519999742507935
1683009858415399700,20.901399658203125,0.6381999850273132,-0.5252999663352966,-1.1942999362945557
1683009858435399700,20.921399658203125,1.142899990081787,-0.2646999955177307,-0.5856999754905701
1683009858455399700,20.941399658203125,1.2070999145507812,-0.1981000006198883,0.8560000061988831
1683009858475399700,20.961399658203124,1.087499976158142,-0.3617999851703644,2.61899995803833
1683009858495399700,20.981399658203124,0.942799985408783,-0.25619998574256897,3.7530999183654785
1683009858515401200,21.001401123046875,0.6825999617576599,-0.311599999666214,4.133599758148193
1683009858535399700,21.021399658203126,0.4341999888420105,-0.3276999890804291,4.152499675750732
1683009858555399700,21.041399658203126,0.4089999794960022,-0.7351999878883362,4.495299816131592
1683009858575401200,21.061401123046874,0.5691999793052673,-1.0720999240875244,4.85890007019043
1683009858595399700,21.081399658203125,0.6039999723434448,-0.8561999797821045,4.888899803161621
1683009858615399700,21.101399658203125,0.37459999322891235,-0.5408999919891357,4.037499904632568
1683009858635401200,21.121401123046876,-0.004600000102072954,-0.2897999882698059,2.5219998359680176
1683009858655401200,21.141401123046876,-0.3610999882221222,-0.6146999597549438,1.3911999464035034
1683009858675399700,21.161399658203123,-0.5148999691009521,-0.7615000009536743,0.44749999046325684
1683009858695399700,21.181399658203127,-0.8163999915122986,-0.5080000162124634,-0.35830000042915344
1683009858715401200,21.201401123046875,-1.2875999212265015,-0.18629999458789825,-0.9016000032424927
1683009858735399700,21.221399658203126,-1.507599949836731,0.09139999747276306,-1.1936999559402466
1683009858755399700,21.241399658203125,-1.4656000137329102,0.28839999437332153,-1.419600009918213
1683009858775399700,21.261399658203125,-1.1862999200820923,0.370199978351593,-1.410499930381775
1683009858795399700,21.281399658203124,-0.8694999814033508,0.3549000024795532,-1.489300012588501
1683009858815399700,21.301399658203124,-0.708899974822998,0.32919999957084656,-1.4602999687194824
1683009858835399700,21.321399658203124,-0.6696000099182129,0.18609999120235443,-1.3144999742507935
1683009858855399700,21.341399658203127,-0.613599956035614,0.0139999995008111,-1.0714999437332153
1683009858875399700,21.361399658203126,-0.45569998025894165,-0.004900000058114529,-0.8093000054359436
1683009858895399700,21.381399658203126,-0.493399977684021,0.13220000267028809,-0.7723999619483948
1683009858915399700,21.401399658203125,-0.5270000100135803,0.3008999824523926,-0.901199996471405
1683009858935401200,21.421401123046873,-0.616100013256073,0.47259998321533203,-1.0189999341964722
1683009858955399700,21.441399658203125,-0.6146000027656555,0.6202999949455261,-1.2042999267578125
1683009858975399700,21.461399658203124,-0.6654999852180481,0.7628999948501587,-1.5461000204086304
1683009858995399700,21.481399658203124,-0.6852999925613403,0.8077999949455261,-2.1026999950408936
1683009859015399700,21.501399658203123,-0.6924999952316284,0.7752999663352966,-2.4723000526428223
1683009859035399700,21.521399658203126,-0.6225000023841858,0.811199963092804,-2.449399948120117
1683009859055399700,21.541399658203126,-0.6714999675750732,0.8824999928474426,-1.9860999584197998
1683009859075401200,21.561401123046874,-0.8357999920845032,1.1158000230789185,-1.4947999715805054
1683009859095399700,21.581399658203125,-1.048699975013733,1.295699954032898,-1.0542999505996704
1683009859115399700,21.601399658203125,-1.1225999593734741,1.4537999629974365,-0.8876999616622925
1683009859135401200,21.621401123046876,-1.0471999645233154,1.0677999258041382,-0.43539997935295105
1683009859155401200,21.641401123046876,-0.3971000015735626,0.3986999988555908,0.6044999957084656
1683009859175399700,21.661399658203123,0.23849999904632568,-0.08309999853372574,1.722000002861023
1683009859195399700,21.681399658203127,0.6251999735832214,-0.36389997601509094,2.605599880218506
1683009859215401200,21.701401123046875,0.7414000034332275,-0.7364000082015991,3.342099905014038
1683009859235399700,21.721399658203126,0.9584999680519104,-0.8210999965667725,3.674799919128418
1683009859255399700,21.741399658203125,1.0539000034332275,-0.85999995470047,3.710899829864502
1683009859275399700,21.761399658203125,1.1162999868392944,-0.6110000014305115,3.5906999111175537
1683009859295399700,21.781399658203124,0.7723999619483948,-0.5435999631881714,3.520399808883667
1683009859315399700,21.801399658203124,0.5698999762535095,-0.9775999784469604,3.8904998302459717
1683009859335399700,21.821399658203124,0.38819998502731323,-1.3157999515533447,4.296499729156494
1683009859355399700,21.841399658203127,0.2246999889612198,-1.1197999715805054,3.624199867248535
1683009859375399700,21.861399658203126,0.1119999960064888,-0.736799955368042,1.8015999794006348
1683009859395399700,21.881399658203126,-0.041999999433755875,-0.8205999732017517,0.3465999960899353
1683009859415399700,21.901399658203125,0.15039999783039093,-1.0795999765396118,-0.5985000133514404
1683009859435401200,21.921401123046873,0.3955000042915344,-1.2197999954223633,-1.1220999956130981
1683009859455399700,21.941399658203125,0.36550000309944153,-1.021899938583374,-1.0698999166488647
1683009859475399700,21.961399658203124,-0.043299999088048935,-0.5977999567985535,-0.58160001039505
1683009859495401200,21.981401123046876,-0.4138999879360199,-0.13429999351501465,-0.3718000054359436
1683009859515399700,22.001399658203123,-0.6462999582290649,0.26819998025894165,-0.5649999976158142
1683009859535399700,22.021399658203126,-0.5875999927520752,0.5611000061035156,-1.0205999612808228
1683009859555399700,22.041399658203126,-0.2418999969959259,0.6509999632835388,-1.5018999576568604
1683009859575401200,22.061401123046874,0.09559999406337738,0.640999972820282,-2.010499954223633
1683009859595399700,22.081399658203125,0.15569999814033508,0.5634999871253967,-2.460399866104126
1683009859615399700,22.101399658203125,0.033799998462200165,0.5557999610900879,-2.67579984664917
1683009859635399700,22.121399658203124,-0.23309999704360962,0.37539997696876526,-2.6280999183654785
1683009859655401200,22.141401123046876,-0.4108999967575073,0.2003999948501587,-2.394399881362915
1683009859675399700,22.161399658203123,-0.3700000047683716,-0.07519999891519547,-1.994399905204773
1683009859695399700,22.181399658203127,-0.10019999742507935,-0.13830000162124634,-1.5946999788284302
1683009859715401200,22.201401123046875,0.2158999890089035,-0.10419999808073044,-1.4786999225616455
1683009859735399700,22.221399658203126,0.45249998569488525,-0.16210000216960907,-1.5784999132156372
1683009859755399700,22.241399658203125,0.7421999573707581,-0.10159999877214432,-1.6871999502182007
1683009859775399700,22.261399658203125,0.9343999624252319,-0.042399998754262924,-1.6277999877929688
1683009859795399700,22.281399658203124,1.0569000244140625,-0.04490000009536743,-1.28249990940094
1683009859815399700,22.301399658203124,0.8660999536514282,-0.17899999022483826,-0.47609999775886536
1683009859835399700,22.321399658203124,0.6000999808311462,-0.40849998593330383,0.8579999804496765
1683009859855399700,22.341399658203127,0.3319000005722046,-0.6033999919891357,2.5332000255584717
1683009859875399700,22.361399658203126,0.10209999978542328,-0.5734999775886536,3.4228999614715576
1683009859895399700,22.381399658203126,-0.23479999601840973,-0.004900000058114529,3.1375999450683594
1683009859915399700,22.401399658203125,-0.4756999909877777,0.34059998393058777,2.454200029373169
1683009859935399700,22.421399658203125,-0.32589998841285706,-0.25699999928474426,2.6676998138427734
1683009859955399700,22.441399658203125,0.03500000014901161,-0.7211999893188477,3.585899829864502
1683009859975399700,22.461399658203124,0.029399998486042023,-0.579800009727478,4.244699954986572
1683009859995399700,22.481399658203124,-0.5306000113487244,-0.2721000015735626,3.764699935913086
1683009860015399700,22.501399658203123,-1.121999979019165,-0.03909999877214432,2.5588998794555664
1683009860035399700,22.521399658203126,-1.2900999784469604,-0.2004999965429306,1.6689000129699707
1683009860055399700,22.541399658203126,-0.9157999753952026,-0.3034999966621399,1.2143999338150024
1683009860075399700,22.561399658203126,-0.9919999837875366,-0.15389999747276306,0.9943999648094177
1683009860095399700,22.581399658203125,-1.4387999773025513,0.171999990940094,0.5067999958992004
1683009860115399700,22.601399658203125,-1.6227999925613403,0.505899965763092,-0.033799998462200165
1683009860135399700,22.621399658203124,-1.5198999643325806,0.809499979019165,-0.48819997906684875
1683009860155399700,22.641399658203124,-1.1491999626159668,0.824999988079071,-0.8532999753952026
1683009860175399700,22.661399658203123,-0.7590000033378601,0.8039000034332275,-1.149899959564209
1683009860195399700,22.681399658203127,-0.39879998564720154,0.7890999913215637,-1.3596999645233154
1683009860215399700,22.701399658203126,-0.17909999191761017,0.8256999850273132,-1.5520999431610107
1683009860235399700,22.721399658203126,-0.0284000001847744,0.8394999504089355,-1.7551000118255615
1683009860255399700,22.741399658203125,0.23199999332427979,0.9269999861717224,-2.084199905395508
1683009860275399700,22.761399658203125,0.4729999899864197,0.8467999696731567,-2.292799949645996
1683009860295399700,22.781399658203124,0.5432000160217285,0.7447999715805054,-2.517899990081787
1683009860315399700,22.801399658203124,0.4017999768257141,0.7121999859809875,-2.5251998901367188
1683009860335399700,22.821399658203124,-0.06679999828338623,0.7317000031471252,-2.032599925994873
1683009860355399700,22.841399658203127,-0.4737999737262726,0.8436999917030334,-1.4427999258041382
1683009860375399700,22.861399658203126,-0.7943999767303467,1,-0.8325999975204468
1683009860395399700,22.881399658203126,-1.2343000173568726,0.8543999791145325,-0.30949997901916504
1683009860415399700,22.901399658203125,-1.1934999227523804,0.7851999998092651,0.10649999976158142
1683009860435399700,22.921399658203125,-0.8406999707221985,0.7572000026702881,0.40609997510910034
1683009860455399700,22.941399658203125,-0.5782999992370605,0.6883999705314636,0.37469998002052307
1683009860475399700,22.961399658203124,-0.4324999749660492,0.6588000059127808,-0.03720000013709068
1683009860495399700,22.981399658203124,-0.3513000011444092,0.28380000591278076,-0.17459999024868011
1683009860515399700,23.001399658203123,-0.17149999737739563,-0.5157999992370605,0.5787000060081482
1683009860535399700,23.021399658203126,0.11759999394416809,-0.9353999495506287,1.5942000150680542
1683009860555399700,23.041399658203126,0.2587999999523163,-1.0379999876022339,2.3731000423431396
1683009860575399700,23.061399658203126,0.1370999962091446,-0.8765999674797058,2.7084999084472656
1683009860595399700,23.081399658203125,0.2157999873161316,-0.8448999524116516,2.796799898147583
1683009860615399700,23.101399658203125,0.4997999966144562,-1.0368999242782593,2.8160998821258545
1683009860635399700,23.121399658203124,0.7285000085830688,-1.0738999843597412,3.0032999515533447
1683009860655399700,23.141399658203124,0.5410000085830688,-1.107100009918213,3.8173999786376953
1683009860675399700,23.161399658203123,0.10399999469518661,-1.2703999280929565,4.403299808502197
1683009860695399700,23.181399658203127,-0.38659998774528503,-1.3810999393463135,4.328000068664551
1683009860715399700,23.201399658203126,-0.7339000105857849,-1.433899998664856,3.4872000217437744
1683009860735399700,23.221399658203126,-0.6151999831199646,-1.3478999137878418,1.9845999479293823
1683009860755399700,23.241399658203125,-0.6103000044822693,-1.3700000047683716,0.5640999674797058
1683009860775399700,23.261399658203125,-0.49889999628067017,-1.4622999429702759,-0.23809999227523804
1683009860795399700,23.281399658203124,-0.6010000109672546,-1.4055999517440796,-0.3463999927043915
1683009860815399700,23.301399658203124,-0.8047999739646912,-1.0514999628067017,0.06079999729990959
1683009860835399700,23.321399658203124,-0.9102999567985535,-0.5791999697685242,-0.09279999881982803
1683009860855399700,23.341399658203127,-0.8812999725341797,-0.2637999951839447,-0.7840999960899353
1683009860875399700,23.361399658203126,-0.655299961566925,-0.24199999868869781,-1.3934999704360962
1683009860895399700,23.381399658203126,-0.5697000026702881,-0.2874000072479248,-1.8043999671936035
1683009860915399700,23.401399658203125,-0.6570999622344971,-0.3887999951839447,-1.9203999042510986
1683009860935399700,23.421399658203125,-0.8600999712944031,-0.3782999813556671,-1.843400001525879
1683009860955399700,23.441399658203125,-0.8662999868392944,-0.25369998812675476,-1.4744999408721924
1683009860975399700,23.461399658203124,-0.8113999962806702,-0.1477999985218048,-1.0964000225067139
1683009860995399700,23.481399658203124,-0.26819998025894165,-0.04879999905824661,-1.089900016784668
1683009861015399700,23.501399658203123,0.12239999324083328,-0.121799997985363,-0.9559999704360962
1683009861035399700,23.521399658203126,0.13259999454021454,0.03500000014901161,-0.4315999746322632
1683009861055399700,23.541399658203126,-0.0640999972820282,0.2895999848842621,0.24139998853206635
1683009861075399700,23.561399658203126,-0.3660999834537506,0.6577000021934509,0.839199960231781
1683009861095399700,23.581399658203125,-0.597599983215332,0.8910999894142151,1.4013999700546265
1683009861115399700,23.601399658203125,-0.5849999785423279,1.0929999351501465,1.5430999994277954
1683009861135399700,23.621399658203124,-0.375900000333786,1.138700008392334,1.313099980354309
1683009861155399700,23.641399658203124,-0.13169999420642853,0.8520999550819397,1.209299921989441
1683009861175399700,23.661399658203123,-0.06359999626874924,0.3240000009536743,1.49399995803833
1683009861195399700,23.681399658203127,0.0867999941110611,-0.1282999962568283,1.8442999124526978
1683009861215399700,23.701399658203126,0.18320000171661377,-0.24889999628067017,2.1462998390197754
1683009861235399700,23.721399658203126,-0.03219999745488167,0.14350000023841858,1.6265000104904175
1683009861255399700,23.741399658203125,-0.4396999776363373,0.6377999782562256,0.3944999873638153
1683009861275399700,23.761399658203125,-0.6132999658584595,0.6171999573707581,-0.5712000131607056
1683009861295399700,23.781399658203124,-0.4034000039100647,0.2789999842643738,0.1256999969482422
1683009861315399700,23.801399658203124,-0.33719998598098755,-0.30969998240470886,2.1124000549316406
1683009861335399700,23.821399658203124,-0.6035000085830688,-0.5338000059127808,3.3020999431610107
1683009861355399700,23.841399658203127,-1.1017999649047852,-0.8251999616622925,3.1750998497009277
1683009861375399700,23.861399658203126,-1.1022000312805176,-0.8614999651908875,1.5645999908447266
1683009861395399700,23.881399658203126,-0.9551999568939209,-1.128000020980835,0.23799999058246613
1683009861415399700,23.901399658203125,-0.7202000021934509,-1.212499976158142,-0.5462999939918518
1683009861435399700,23.921399658203125,-0.5830000042915344,-1.0125999450683594,-1.0049999952316284
1683009861455399700,23.941399658203125,-0.7757999897003174,-0.7436000108718872,-0.8545999526977539
1683009861475399700,23.961399658203124,-1.1371999979019165,-0.5799999833106995,-0.762999951839447
1683009861495399700,23.981399658203124,-1.285599946975708,-0.35569998621940613,-0.9249999523162842
1683009861515399700,24.001399658203123,-1.4139000177383423,-0.15950000286102295,-1.0166000127792358
1683009861535399700,24.021399658203126,-1.452799916267395,0.08919999748468399,-1.1270999908447266
1683009861555399700,24.041399658203126,-1.3996999263763428,0.3182999789714813,-1.1292999982833862
1683009861575399700,24.061399658203126,-1.2739999294281006,0.4235999882221222,-0.9943999648094177
1683009861595399700,24.081399658203125,-1.1312999725341797,0.40129998326301575,-0.9571999907493591
1683009861615399700,24.101399658203125,-0.9283999800682068,0.3752000033855438,-1.1253999471664429
1683009861635399700,24.121399658203124,-0.7024999856948853,0.43209999799728394,-1.3422999382019043
1683009861655401200,24.141401123046876,-0.538100004196167,0.4684999883174896,-1.4311999082565308
1683009861675399700,24.161399658203123,-0.39309999346733093,0.5067999958992004,-1.2940999269485474
1683009861695399700,24.181399658203127,-0.22599999606609344,0.49639999866485596,-1.0097999572753906
1683009861715401200,24.201401123046875,0.08329999446868896,0.524899959564209,-0.6942999958992004
1683009861735399700,24.221399658203126,0.2500999867916107,0.5781999826431274,-0.37709999084472656
1683009861755399700,24.241399658203125,0.3878999948501587,0.7678999900817871,-0.02019999921321869
1683009861775399700,24.261399658203125,0.4440999925136566,0.882099986076355,0.36640000343322754
1683009861795399700,24.281399658203124,0.3775999844074249,1.1323000192642212,0.527999997138977
1683009861815399700,24.301399658203124,0.09959999471902847,1.1990000009536743,0.7185999751091003
1683009861835399700,24.321399658203124,-0.2919999957084656,1.2226999998092651,0.8895999789237976
1683009861855401200,24.341401123046875,-0.7902999520301819,1.093999981880188,1.0124999284744263
1683009861875401200,24.361401123046875,-1.1675999164581299,0.9911999702453613,0.9791999459266663
1683009861895399700,24.381399658203126,-1.5271999835968018,0.6675999760627747,1.0140999555587769
1683009861915399700,24.401399658203125,-1.442699909210205,0.319599986076355,0.9793999791145325
1683009861935401200,24.421401123046873,-1.0157999992370605,-0.031700000166893005,1.0134999752044678
1683009861955399700,24.441399658203125,-0.6252999901771545,-0.1573999971151352,1.0777000188827515
1683009861975399700,24.461399658203124,-0.33390000462532043,0.16939999163150787,1.1129999160766602
1683009861995399700,24.481399658203124,0.006799999624490738,0.7305999994277954,0.6581999659538269
1683009862015401200,24.501401123046875,0.19039998948574066,0.9204999804496765,0.613599956035614
1683009862035399700,24.521399658203126,-0.019700000062584877,0.6967999935150146,1.3791999816894531
1683009862055399700,24.541399658203126,-0.6316999793052673,0.22199998795986176,2.2894999980926514
1683009862075401200,24.561401123046874,-1.1775000095367432,0.017999999225139618,2.677000045776367
