time,seconds_elapsed,z,y,x
1683009837555399700,0.041399658203125,1.8249999284744263,0.499099999666214,9.622300148010254
1683009837575405800,0.06140576171875,1.8249999284744263,0.499099999666214,9.622300148010254
1683009837595399700,0.081399658203125,1.900999903678894,-0.7310999631881714,9.59280014038086
1683009837615399700,0.101399658203125,1.8769999742507935,-0.7502999901771545,9.595999717712402
1683009837635399700,0.121399658203125,1.892199993133545,-0.7396000027656555,9.593799591064453
1683009837655399700,0.141399658203125,1.9301999807357788,-0.7195000052452087,9.587800025939941
1683009837675399700,0.161399658203125,1.927799940109253,-0.7227999567985535,9.58799934387207
1683009837695399700,0.181399658203125,1.9098999500274658,-0.7307999730110168,9.590999603271484
1683009837715399700,0.201399658203125,1.8671000003814697,-0.7267000079154968,9.599699974060059
1683009837735399700,0.221399658203125,1.8529999256134033,-0.6972000002861023,9.604700088500977
1683009837755399700,0.241399658203125,1.8155999183654785,-0.7128999829292297,9.610599517822266
1683009837775401200,0.261401123046875,1.750999927520752,-0.5282999873161316,9.634499549865723
1683009837795399700,0.281399658203125,1.7285999059677124,-0.4197999835014343,9.643899917602539
1683009837815399700,0.301399658203125,1.7239999771118164,-0.3227999806404114,9.648499488830566
1683009837835399700,0.321399658203125,1.716599941253662,-0.22929999232292175,9.65250015258789
1683009837855399700,0.341399658203125,1.6962000131607056,-0.15369999408721924,9.657599449157715
1683009837875399700,0.361399658203125,1.653499960899353,-0.0348999984562397,9.666099548339844
1683009837895399700,0.381399658203125,1.5981999635696411,0.032099999487400055,9.675399780273438
1683009837915401200,0.401401123046875,1.5185999870300293,0.14589999616146088,9.687199592590332
1683009837935402800,0.42140283203125,1.4769999980926514,0.23839999735355377,9.691800117492676
1683009837955399700,0.441399658203125,1.427799940109253,0.3075999915599823,9.697199821472168
1683009837975399700,0.461399658203125,1.3854999542236328,0.3709999918937683,9.701099395751953
1683009837995399700,0.481399658203125,1.3889999389648438,0.42489999532699585,9.698399543762207
1683009838015399700,0.501399658203125,1.424299955368042,0.49139997363090515,9.690199851989746
1683009838035399700,0.521399658203125,1.4759999513626099,0.5715999603271484,9.677999496459961
1683009838055401200,0.541401123046875,1.5166999101638794,0.6269999742507935,9.668299674987793
1683009838075399700,0.561399658203125,1.5521999597549438,0.6595999598503113,9.660499572753906
1683009838095399700,0.581399658203125,1.590399980545044,0.6915000081062317,9.651999473571777
1683009838115399700,0.601399658203125,1.607699990272522,0.718999981880188,9.647199630737305
1683009838135401200,0.621401123046875,1.6021000146865845,0.731499969959259,9.647099494934082
1683009838155399700,0.641399658203125,1.5856999158859253,0.7455999851226807,9.648799896240234
1683009838175399700,0.661399658203125,1.5583000183105469,0.7342000007629395,9.654099464416504
1683009838195399700,0.681399658203125,1.5227999687194824,0.6864999532699585,9.663299560546875
1683009838215399700,0.701399658203125,1.4686999320983887,0.6114999651908875,9.6766996383667
1683009838235399700,0.721399658203125,1.4208999872207642,0.5209000110626221,9.689099311828613
1683009838255399700,0.741399658203125,1.417699933052063,0.44269999861717224,9.693499565124512
1683009838275401200,0.761401123046875,1.4244999885559082,0.4585999846458435,9.691699981689453
1683009838295399700,0.781399658203125,1.4282000064849854,0.5602999925613403,9.685799598693848
1683009838315399700,0.801399658203125,1.438599944114685,0.6365999579429626,9.67959976196289
1683009838335399700,0.821399658203125,1.4747999906539917,0.6502000093460083,9.673199653625488
1683009838355399700,0.841399658203125,1.5305999517440796,0.6369999647140503,9.665399551391602
1683009838375399700,0.861399658203125,1.5647999048233032,0.6366999745368958,9.65999984741211
1683009838395399700,0.881399658203125,1.5651999711990356,0.6384999752044678,9.659799575805664
1683009838415399700,0.901399658203125,1.5404999256134033,0.6401999592781067,9.663599967956543
1683009838435399700,0.921399658203125,1.5313999652862549,0.6304999589920044,9.66569995880127
1683009838455399700,0.941399658203125,1.559000015258789,0.5881999731063843,9.663999557495117
1683009838475399700,0.961399658203125,1.5924999713897705,0.524899959564209,9.662199974060059
1683009838495399700,0.981399658203125,1.618399977684021,0.44929999113082886,9.661699295043945
1683009838515399700,1.001399658203125,1.6368999481201172,0.37939998507499695,9.661600112915039
1683009838535399700,1.021399658203125,1.6549999713897705,0.3249000012874603,9.660499572753906
1683009838555399700,1.041399658203125,1.6591999530792236,0.2874000072479248,9.660900115966797
1683009838575399700,1.061399658203125,1.6497999429702759,0.2741999924182892,9.6628999710083
1683009838595399700,1.081399658203125,1.6488999128341675,0.2793999910354614,9.6628999710083
1683009838615399700,1.101399658203125,1.6500999927520752,0.26510000228881836,9.66309928894043
1683009838635399700,1.121399658203125,1.6233999729156494,0.2475999891757965,9.668099403381348
1683009838655399700,1.141399658203125,1.5655999183654785,0.2313999980688095,9.677999496459961
1683009838675399700,1.161399658203125,1.5063999891281128,0.20649999380111694,9.687999725341797
1683009838695399700,1.181399658203125,1.483799934387207,0.17419999837875366,9.692099571228027
1683009838715399700,1.201399658203125,1.4923999309539795,0.1492999941110611,9.69119930267334
1683009838735399700,1.221399658203125,1.479099988937378,0.1289999932050705,9.693599700927734
1683009838755399700,1.241399658203125,1.4495999813079834,0.09619999676942825,9.698399543762207
1683009838775399700,1.261399658203125,1.4191999435424805,0.041099999099969864,9.703299522399902
1683009838795399700,1.281399658203125,1.4053000211715698,-0.0471000000834465,9.705299377441406
1683009838815399700,1.301399658203125,1.3883999586105347,-0.13660000264644623,9.706899642944336
1683009838835399700,1.321399658203125,1.3564000129699707,-0.2029999941587448,9.710199356079102
1683009838855399700,1.341399658203125,1.317699909210205,-0.24399998784065247,9.714599609375
1683009838875399700,1.361399658203125,1.2700999975204468,-0.2766999900341034,9.720099449157715
1683009838895399700,1.381399658203125,1.2245999574661255,-0.32409998774528503,9.72439956665039
1683009838915399700,1.401399658203125,1.1572999954223633,-0.37539997696876526,9.730799674987793
1683009838935399700,1.421399658203125,1.0680999755859375,-0.4174000024795532,9.739299774169922
1683009838955399700,1.441399658203125,0.9690999984741211,-0.4294999837875366,9.749099731445312
1683009838975399700,1.461399658203125,0.8865999579429626,-0.4122999906539917,9.757699966430664
1683009838995399700,1.481399658203125,0.8226000070571899,-0.3919999897480011,9.764200210571289
1683009839015399700,1.501399658203125,0.7543999552726746,-0.3854999840259552,9.769899368286133
1683009839035399700,1.521399658203125,0.6796999573707581,-0.39229997992515564,9.775099754333496
1683009839055399700,1.541399658203125,0.6114000082015991,-0.3992999792098999,9.779399871826172
1683009839075399700,1.561399658203125,0.6003999710083008,-0.3895999789237976,9.780399322509766
1683009839095399700,1.581399658203125,0.6039999723434448,-0.36409997940063477,9.78119945526123
1683009839115399700,1.601399658203125,0.6191999912261963,-0.3427000045776367,9.781000137329102
1683009839135399700,1.621399658203125,0.6572999954223633,-0.3163999915122986,9.779399871826172
1683009839155399700,1.641399658203125,0.7167999744415283,-0.2709999978542328,9.776599884033203
1683009839175399700,1.661399658203125,0.7727999687194824,-0.22019998729228973,9.773599624633789
1683009839195399700,1.681399658203125,0.8152999877929688,-0.179299995303154,9.770999908447266
1683009839215399700,1.701399658203125,0.8367999792098999,-0.15240000188350677,9.769599914550781
1683009839235399700,1.721399658203125,0.8377999663352966,-0.13409999012947083,9.769800186157227
1683009839255399700,1.741399658203125,0.8445999622344971,-0.10949999839067459,9.769499778747559
1683009839275399700,1.761399658203125,0.8756999969482422,-0.08259999752044678,9.767099380493164
1683009839295399700,1.781399658203125,0.9247999787330627,-0.047199998050928116,9.762800216674805
1683009839315399700,1.801399658203125,0.9696999788284302,-0.011299999430775642,9.758500099182129
1683009839335399700,1.821399658203125,0.9854999780654907,0.019999999552965164,9.7568998336792
1683009839355399700,1.841399658203125,0.995199978351593,0.05769999697804451,9.755799293518066
1683009839375399700,1.861399658203125,1.0231999158859253,0.1039000004529953,9.7524995803833
1683009839395399700,1.881399658203125,1.0500999689102173,0.1454000025987625,9.749099731445312
1683009839415399700,1.901399658203125,1.0667999982833862,0.17509999871253967,9.74679946899414
1683009839435399700,1.921399658203125,1.0763999223709106,0.19579999148845673,9.745399475097656
1683009839455399700,1.941399658203125,1.0673999786376953,0.21570000052452087,9.74590015411377
1683009839475399700,1.961399658203125,1.0625,0.2312999963760376,9.746099472045898
1683009839495399700,1.981399658203125,1.0728999376296997,0.24210000038146973,9.744699478149414
1683009839515399700,2.001399658203125,1.0851999521255493,0.24319998919963837,9.74329948425293
1683009839535399700,2.021399658203125,1.0855000019073486,0.23959998786449432,9.743399620056152
1683009839555399700,2.041399658203125,1.0719000101089478,0.23959998786449432,9.74489974975586
1683009839575399700,2.061399658203125,1.0500999689102173,0.2409999966621399,9.747200012207031
1683009839595399700,2.081399658203125,1.0348999500274658,0.23029999434947968,9.749099731445312
1683009839615399700,2.101399658203125,1.0394999980926514,0.2141999900341034,9.74899959564209
1683009839635402800,2.12140283203125,1.0643999576568604,0.20809999108314514,9.746399879455566
1683009839655399700,2.141399658203125,1.1074999570846558,0.21369999647140503,9.741499900817871
1683009839675399700,2.161399658203125,1.1562999486923218,0.22059999406337738,9.735699653625488
1683009839695399700,2.181399658203125,1.188599944114685,0.2134999930858612,9.731999397277832
1683009839715399700,2.201399658203125,1.195199966430664,0.18449999392032623,9.73169994354248
1683009839735399700,2.221399658203125,1.1870999336242676,0.14890000224113464,9.73330020904541
1683009839755399700,2.241399658203125,1.1679999828338623,0.11419999599456787,9.736100196838379
1683009839775401200,2.261401123046875,1.1582999229431152,0.08980000019073486,9.737500190734863
1683009839795399700,2.281399658203125,1.178399920463562,0.07889999449253082,9.735199928283691
1683009839815399700,2.301399658203125,1.2166999578475952,0.07490000128746033,9.730500221252441
1683009839835399700,2.321399658203125,1.2645999193191528,0.08289999514818192,9.72439956665039
1683009839855399700,2.341399658203125,1.3076000213623047,0.08959999680519104,9.718599319458008
1683009839875399700,2.361399658203125,1.3382999897003174,0.09059999883174896,9.714399337768555
1683009839895399700,2.381399658203125,1.3567999601364136,0.08649999648332596,9.711899757385254
1683009839915401200,2.401401123046875,1.3601999282836914,0.07889999449253082,9.71150016784668
1683009839935399700,2.421399658203125,1.362299919128418,0.07419999688863754,9.711199760437012
1683009839955399700,2.441399658203125,1.354200005531311,0.06749999523162842,9.71239948272705
1683009839975399700,2.461399658203125,1.3282999992370605,0.05309999734163284,9.716099739074707
1683009839995399700,2.481399658203125,1.2968999147415161,0.03449999913573265,9.720399856567383
1683009840015399700,2.501399658203125,1.26829993724823,0.024699999019503593,9.724199295043945
1683009840035399700,2.521399658203125,1.2333999872207642,0.02719999849796295,9.728699684143066
1683009840055399700,2.541399658203125,1.184999942779541,0.03009999915957451,9.734700202941895
1683009840075399700,2.561399658203125,1.1381999254226685,0.032099999487400055,9.740300178527832
1683009840095399700,2.581399658203125,1.097499966621399,0.03799999877810478,9.74489974975586
1683009840115399700,2.601399658203125,1.0605000257492065,0.03869999945163727,9.74899959564209
1683009840135399700,2.621399658203125,1.0328999757766724,0.03539999946951866,9.751999855041504
1683009840155399700,2.641399658203125,1.007099986076355,0.022499999031424522,9.75469970703125
1683009840175399700,2.661399658203125,0.9667999744415283,-0.003499999875202775,9.75879955291748
1683009840195399700,2.681399658203125,0.9180999994277954,-0.03519999980926514,9.763500213623047
1683009840215399700,2.701399658203125,0.8901999592781067,-0.05159999802708626,9.765999794006348
1683009840235399700,2.721399658203125,0.8937000036239624,-0.044199999421834946,9.76569938659668
1683009840255399700,2.741399658203125,0.8988999724388123,-0.025999998673796654,9.765299797058105
1683009840275399700,2.761399658203125,0.8894999623298645,-0.01489999983459711,9.766200065612793
1683009840295399700,2.781399658203125,0.8499999642372131,-0.015799999237060547,9.769700050354004
1683009840315399700,2.801399658203125,0.8064000010490417,-0.0348999984562397,9.773300170898438
1683009840335399700,2.821399658203125,0.7841999530792236,-0.03749999776482582,9.775099754333496
1683009840355399700,2.841399658203125,0.7823999524116516,-0.010199999436736107,9.775300025939941
1683009840375399700,2.861399658203125,0.7953000068664551,0.029199998825788498,9.774299621582031
1683009840395399700,2.881399658203125,0.8075999617576599,0.04899999871850014,9.773200035095215
1683009840415399700,2.901399658203125,0.8077999949455261,0.02969999983906746,9.773200035095215
1683009840435399700,2.921399658203125,0.7953999638557434,-0.012399999424815178,9.774299621582031
1683009840455399700,2.941399658203125,0.7791000008583069,-0.048899997025728226,9.77549934387207
1683009840475399700,2.961399658203125,0.7620999813079834,-0.07079999893903732,9.776700019836426
1683009840495399700,2.981399658203125,0.7511000037193298,-0.0851999968290329,9.777400016784668
1683009840515399700,3.001399658203125,0.7416999936103821,-0.09290000051259995,9.77810001373291
1683009840535399700,3.021399658203125,0.7275999784469604,-0.093299999833107,9.779099464416504
1683009840555402800,3.04140283203125,0.7074999809265137,-0.08579999953508377,9.780699729919434
1683009840575399700,3.061399658203125,0.6920999884605408,-0.07109999656677246,9.781899452209473
1683009840595399700,3.081399658203125,0.6847999691963196,-0.04749999940395355,9.782499313354492
1683009840615399700,3.101399658203125,0.6783999800682068,-0.019500000402331352,9.783100128173828
1683009840635399700,3.121399658203125,0.6733999848365784,0.008700000122189522,9.78339958190918
1683009840655399700,3.141399658203125,0.6606000065803528,0.05049999803304672,9.784199714660645
1683009840675399700,3.161399658203125,0.6491000056266785,0.0982000008225441,9.784599304199219
1683009840695399700,3.181399658203125,0.6473999619483948,0.14239999651908875,9.784199714660645
1683009840715399700,3.201399658203125,0.6542999744415283,0.17729999125003815,9.783100128173828
1683009840735402800,3.22140283203125,0.6547999978065491,0.19759999215602875,9.782699584960938
1683009840755402800,3.24140283203125,0.6453999876976013,0.20019999146461487,9.783299446105957
1683009840775401200,3.261401123046875,0.6372999548912048,0.1875,9.784099578857422
1683009840795399700,3.281399658203125,0.6414999961853027,0.18069998919963837,9.783899307250977
1683009840815399700,3.301399658203125,0.6661999821662903,0.18869999051094055,9.782099723815918
1683009840835399700,3.321399658203125,0.7044000029563904,0.2021999955177307,9.779199600219727
1683009840855399700,3.341399658203125,0.751800000667572,0.21729999780654907,9.775300025939941
1683009840875399700,3.361399658203125,0.7818999886512756,0.23399999737739563,9.772600173950195
1683009840895399700,3.381399658203125,0.7981999516487122,0.24879999458789825,9.770899772644043
1683009840915401200,3.401401123046875,0.8100999593734741,0.25589999556541443,9.769700050354004
1683009840935399700,3.421399658203125,0.8125999569892883,0.2450999915599823,9.769800186157227
1683009840955399700,3.441399658203125,0.7985000014305115,0.21949999034404755,9.771599769592285
1683009840975399700,3.461399658203125,0.7717999815940857,0.18410000205039978,9.774399757385254
1683009840995399700,3.481399658203125,0.7683999538421631,0.1665000021457672,9.774999618530273
1683009841015399700,3.501399658203125,0.7973999977111816,0.18679998815059662,9.772299766540527
1683009841035399700,3.521399658203125,0.8057999610900879,0.20149999856948853,9.77139949798584
1683009841055401200,3.541401123046875,0.7601999640464783,0.16519999504089355,9.775699615478516
1683009841075399700,3.561399658203125,0.6660999655723572,0.1013999953866005,9.78339958190918
1683009841095399700,3.581399658203125,0.592199981212616,0.07360000163316727,9.788399696350098
1683009841115399700,3.601399658203125,0.5913000106811523,0.11979999393224716,9.788000106811523
1683009841135401200,3.621401123046875,0.6520000100135803,0.19909998774528503,9.782899856567383
1683009841155399700,3.641399658203125,0.7228999733924866,0.2744999825954437,9.776100158691406
1683009841175399700,3.661399658203125,0.7680000066757202,0.322299987077713,9.771200180053711
1683009841195399700,3.681399658203125,0.767799973487854,0.33559998869895935,9.770699501037598
1683009841215401200,3.701401123046875,0.7387999892234802,0.32339999079704285,9.773399353027344
1683009841235399700,3.721399658203125,0.7177000045776367,0.29659998416900635,9.775799751281738
1683009841255399700,3.741399658203125,0.7215999960899353,0.2678000032901764,9.776299476623535
1683009841275401200,3.761401123046875,0.7400000095367432,0.2361999899148941,9.775799751281738
1683009841295399700,3.781399658203125,0.7545999884605408,0.20679999887943268,9.775300025939941
1683009841315399700,3.801399658203125,0.7543999552726746,0.18769998848438263,9.775699615478516
1683009841335399700,3.821399658203125,0.7434999942779541,0.17989999055862427,9.776700019836426
1683009841355399700,3.841399658203125,0.7343999743461609,0.17180000245571136,9.777599334716797
1683009841375399700,3.861399658203125,0.7379999756813049,0.16120000183582306,9.77750015258789
1683009841395399700,3.881399658203125,0.7512999773025513,0.14649999141693115,9.776700019836426
1683009841415401200,3.901401123046875,0.7562999725341797,0.13509999215602875,9.77649974822998
1683009841435399700,3.921399658203125,0.7581999897956848,0.13619999587535858,9.776299476623535
1683009841455399700,3.941399658203125,0.760699987411499,0.15549999475479126,9.775799751281738
1683009841475399700,3.961399658203125,0.765500009059906,0.17579999566078186,9.775099754333496
1683009841495399700,3.981399658203125,0.7708999514579773,0.19049999117851257,9.774399757385254
1683009841515399700,4.001399658203125,0.7689999938011169,0.20839999616146088,9.774199485778809
1683009841535399700,4.021399658203125,0.7642999887466431,0.2368999868631363,9.773900032043457
1683009841555401200,4.041401123046875,0.7626999616622925,0.2726999819278717,9.773099899291992
1683009841575401200,4.061401123046875,0.7810999751091003,0.3084999918937683,9.770599365234375
1683009841595399700,4.081399658203125,0.8170999884605408,0.3456999957561493,9.766399383544922
1683009841615399700,4.101399658203125,0.8567999601364136,0.37860000133514404,9.761799812316895
1683009841635401200,4.121401123046875,0.8750999569892883,0.3894999921321869,9.759699821472168
1683009841655399700,4.141399658203125,0.8578999638557434,0.36890000104904175,9.76200008392334
1683009841675399700,4.161399658203125,0.8233999609947205,0.3215999901294708,9.76669979095459
1683009841695399700,4.181399658203125,0.7762999534606934,0.2726999819278717,9.77199935913086
1683009841715401200,4.201401123046875,0.7392999529838562,0.250900000333786,9.77549934387207
1683009841735399700,4.221399658203125,0.7231000065803528,0.26479998230934143,9.776299476623535
1683009841755399700,4.241399658203125,0.7347999811172485,0.2963999807834625,9.774499893188477
1683009841775401200,4.261401123046875,0.7597999572753906,0.3130999803543091,9.772099494934082
1683009841795399700,4.281399658203125,0.7683999538421631,0.2969000041484833,9.771900177001953
1683009841815399700,4.301399658203125,0.7343999743461609,0.2653000056743622,9.77549934387207
1683009841835399700,4.321399658203125,0.6811000108718872,0.23879998922348022,9.779999732971191
1683009841855399700,4.341399658203125,0.6456999778747559,0.2303999960422516,9.782599449157715
1683009841875399700,4.361399658203125,0.6478999853134155,0.2329999953508377,9.782400131225586
1683009841895399700,4.381399658203125,0.6643999814987183,0.2312999963760376,9.781299591064453
1683009841915401200,4.401401123046875,0.6703999638557434,0.21979999542236328,9.78119945526123
1683009841935399700,4.421399658203125,0.6688999533653259,0.20489999651908875,9.781599998474121
1683009841955399700,4.441399658203125,0.6714999675750732,0.18469999730587006,9.78179931640625
1683009841975399700,4.461399658203125,0.6847999691963196,0.16439999639987946,9.781299591064453
1683009841995399700,4.481399658203125,0.7026999592781067,0.15489999949932098,9.780200004577637
1683009842015399700,4.501399658203125,0.7157999873161316,0.15639999508857727,9.779199600219727
1683009842035399700,4.521399658203125,0.7231999635696411,0.15699999034404755,9.778599739074707
1683009842055399700,4.541399658203125,0.7246999740600586,0.15109999477863312,9.778599739074707
1683009842075399700,4.561399658203125,0.7214999794960022,0.13740000128746033,9.779099464416504
1683009842095399700,4.581399658203125,0.7128999829292297,0.12459999322891235,9.779899597167969
1683009842115399700,4.601399658203125,0.703499972820282,0.11979999393224716,9.780599594116211
1683009842135399700,4.621399658203125,0.7021999955177307,0.11989999562501907,9.780699729919434
1683009842155399700,4.641399658203125,0.7037000060081482,0.12209999561309814,9.780599594116211
1683009842175399700,4.661399658203125,0.6991999745368958,0.1256999969482422,9.780799865722656
1683009842195402800,4.68140283203125,0.6823999881744385,0.1371999979019165,9.781899452209473
1683009842215401200,4.701401123046875,0.6638999581336975,0.15609999001026154,9.782899856567383
1683009842235399700,4.721399658203125,0.6464999914169312,0.18129999935626984,9.783599853515625
1683009842255399700,4.741399658203125,0.636900007724762,0.21310000121593475,9.783599853515625
1683009842275401200,4.761401123046875,0.6329999566078186,0.25540000200271606,9.78279972076416
1683009842295399700,4.781399658203125,0.6261000037193298,0.30640000104904175,9.78179931640625
1683009842315402800,4.80140283203125,0.6202999949455261,0.34779998660087585,9.780799865722656
1683009842335401200,4.821401123046875,0.6141999959945679,0.362199991941452,9.780599594116211
1683009842355399700,4.841399658203125,0.6093999743461609,0.34700000286102295,9.781499862670898
1683009842375401200,4.861401123046875,0.5934000015258789,0.31520000100135803,9.783599853515625
1683009842395399700,4.881399658203125,0.5669000148773193,0.2760999798774719,9.786299705505371
1683009842415401200,4.901401123046875,0.5406000018119812,0.24699999392032623,9.788599967956543
1683009842435399700,4.921399658203125,0.521399974822998,0.23279999196529388,9.789999961853027
1683009842455399700,4.941399658203125,0.5285999774932861,0.22619999945163727,9.78969955444336
1683009842475399700,4.961399658203125,0.569599986076355,0.23330000042915344,9.787300109863281
1683009842495402800,4.98140283203125,0.6236000061035156,0.25679999589920044,9.78339958190918
1683009842515399700,5.001399658203125,0.6676999926567078,0.28700000047683716,9.779600143432617
1683009842535399700,5.021399658203125,0.6916999816894531,0.30559998750686646,9.777400016784668
1683009842555399700,5.041399658203125,0.7008999586105347,0.3061999976634979,9.776700019836426
1683009842575401200,5.061401123046875,0.7087000012397766,0.29829999804496765,9.776399612426758
1683009842595399700,5.081399658203125,0.7211999893188477,0.29319998621940613,9.775599479675293
1683009842615399700,5.101399658203125,0.7468999624252319,0.3012000024318695,9.773499488830566
1683009842635399700,5.121399658203125,0.7833999991416931,0.33329999446868896,9.769599914550781
1683009842655399700,5.141399658203125,0.8198999762535095,0.37629997730255127,9.764999389648438
1683009842675399700,5.161399658203125,0.8436999917030334,0.40869998931884766,9.761699676513672
1683009842695399700,5.181399658203125,0.8402000069618225,0.40779998898506165,9.76200008392334
1683009842715399700,5.201399658203125,0.818399965763092,0.3783999979496002,9.76509952545166
1683009842735399700,5.221399658203125,0.7863999605178833,0.3392999768257141,9.769100189208984
1683009842755399700,5.241399658203125,0.758899986743927,0.30379998683929443,9.772500038146973
1683009842775399700,5.261399658203125,0.738099992275238,0.27799999713897705,9.774799346923828
1683009842795399700,5.281399658203125,0.7227999567985535,0.26659998297691345,9.776299476623535
1683009842815399700,5.301399658203125,0.7156999707221985,0.27469998598098755,9.776599884033203
1683009842835399700,5.321399658203125,0.7181000113487244,0.30140000581741333,9.775599479675293
1683009842855399700,5.341399658203125,0.733299970626831,0.3310000002384186,9.773499488830566
1683009842875399700,5.361399658203125,0.765500009059906,0.357699990272522,9.770099639892578
1683009842895399700,5.381399658203125,0.8039000034332275,0.3856000006198883,9.765999794006348
1683009842915399700,5.401399658203125,0.8561999797821045,0.42179998755455017,9.760000228881836
1683009842935399700,5.421399658203125,0.9168999791145325,0.4520999789237976,9.753199577331543
1683009842955399700,5.441399658203125,0.9508000016212463,0.4587000012397766,9.74959945678711
1683009842975399700,5.461399658203125,0.9490999579429626,0.447299987077713,9.750299453735352
1683009842995399700,5.481399658203125,0.9336999654769897,0.4301999807357788,9.752599716186523
1683009843015399700,5.501399658203125,0.9098999500274658,0.41509997844696045,9.755499839782715
1683009843035399700,5.521399658203125,0.8863999843597412,0.40139999985694885,9.758199691772461
1683009843055399700,5.541399658203125,0.8976999521255493,0.3955000042915344,9.757399559020996
1683009843075399700,5.561399658203125,0.9414999485015869,0.41279998421669006,9.752599716186523
1683009843095399700,5.581399658203125,1.0059000253677368,0.45009997487068176,9.744500160217285
1683009843115399700,5.601399658203125,1.0683000087738037,0.49879997968673706,9.735499382019043
1683009843135399700,5.621399658203125,1.1125999689102173,0.5329999923706055,9.728699684143066
1683009843155399700,5.641399658203125,1.1222000122070312,0.5230000019073486,9.728099822998047
1683009843175399700,5.661399658203125,1.101199984550476,0.46609997749328613,9.733399391174316
1683009843195399700,5.681399658203125,1.076300024986267,0.39479997754096985,9.739399909973145
1683009843215399700,5.701399658203125,1.0609999895095825,0.33969998359680176,9.7431001663208
1683009843235399700,5.721399658203125,1.0616999864578247,0.3243999779224396,9.743599891662598
1683009843255399700,5.741399658203125,1.0606999397277832,0.3513999879360199,9.74269962310791
1683009843275399700,5.761399658203125,1.0436999797821045,0.3725000023841858,9.743800163269043
1683009843295399700,5.781399658203125,1.0321999788284302,0.39149999618530273,9.74429988861084
1683009843315399700,5.801399658203125,1.0145999193191528,0.4310999810695648,9.744400024414062
1683009843335399700,5.821399658203125,0.9966999888420105,0.47599998116493225,9.744199752807617
1683009843355399700,5.841399658203125,0.991599977016449,0.51419997215271,9.742799758911133
1683009843375399700,5.861399658203125,0.9962999820709229,0.5230000019073486,9.741799354553223
1683009843395399700,5.881399658203125,1.003999948501587,0.4998999834060669,9.742300033569336
1683009843415399700,5.901399658203125,1.0085999965667725,0.4657000005245209,9.743499755859375
1683009843435399700,5.921399658203125,1.0175999402999878,0.4193999767303467,9.744599342346191
1683009843455399700,5.941399658203125,1.0081000328063965,0.3343999981880188,9.748899459838867
1683009843475399700,5.961399658203125,0.9824999570846558,0.26589998602867126,9.753600120544434
1683009843495399700,5.981399658203125,0.9411999583244324,0.21449999511241913,9.758999824523926
1683009843515399700,6.001399658203125,0.9054999947547913,0.1623999923467636,9.763400077819824
1683009843535399700,6.021399658203125,0.8858000040054321,0.12269999831914902,9.76569938659668
1683009843555399700,6.041399658203125,0.8926999568939209,0.10899999737739563,9.765299797058105
1683009843575399700,6.061399658203125,0.9177999496459961,0.11329999566078186,9.762899398803711
1683009843595399700,6.081399658203125,0.9407999515533447,0.1386999934911728,9.76039981842041
1683009843615399700,6.101399658203125,0.9508999586105347,0.17019999027252197,9.758899688720703
1683009843635399700,6.121399658203125,0.9396999478340149,0.19709999859333038,9.759499549865723
1683009843655399700,6.141399658203125,0.9253000020980835,0.22699999809265137,9.760199546813965
1683009843675399700,6.161399658203125,0.9168999791145325,0.25689998269081116,9.760299682617188
1683009843695399700,6.181399658203125,0.9065999984741211,0.2856999933719635,9.76039981842041
1683009843715399700,6.201399658203125,0.894599974155426,0.31619998812675476,9.760600090026855
1683009843735399700,6.221399658203125,0.8800999522209167,0.3506999909877777,9.760700225830078
1683009843755399700,6.241399658203125,0.8712999820709229,0.3917999863624573,9.759900093078613
1683009843775399700,6.261399658203125,0.8664000034332275,0.43199998140335083,9.758699417114258
1683009843795399700,6.281399658203125,0.8679999709129333,0.4666999876499176,9.7568998336792
1683009843815399700,6.301399658203125,0.8669999837875366,0.49969998002052307,9.755399703979492
1683009843835399700,6.321399658203125,0.8580999970436096,0.5299999713897705,9.754599571228027
1683009843855399700,6.341399658203125,0.8449999690055847,0.561199963092804,9.753999710083008
1683009843875399700,6.361399658203125,0.8240999579429626,0.5942999720573425,9.753799438476562
1683009843895399700,6.381399658203125,0.7825999855995178,0.6261999607086182,9.755199432373047
1683009843915399700,6.401399658203125,0.7283999919891357,0.6486999988555908,9.757999420166016
1683009843935399700,6.421399658203125,0.6890999674797058,0.648099958896637,9.760899543762207
1683009843955399700,6.441399658203125,0.6783999800682068,0.6225000023841858,9.763299942016602
1683009843975399700,6.461399658203125,0.6955999732017517,0.5986999869346619,9.763500213623047
1683009843995399700,6.481399658203125,0.7270999550819397,0.5999000072479248,9.761199951171875
1683009844015399700,6.501399658203125,0.7462999820709229,0.6098999977111816,9.759099960327148
1683009844035399700,6.521399658203125,0.7533999681472778,0.6126999855041504,9.758399963378906
1683009844055399700,6.541399658203125,0.7542999982833862,0.6209999918937683,9.757800102233887
1683009844075399700,6.561399658203125,0.767300009727478,0.6489999890327454,9.755000114440918
1683009844095399700,6.581399658203125,0.7998999953269958,0.7021999955177307,9.748700141906738
1683009844115402800,6.60140283203125,0.8434999585151672,0.7598999738693237,9.740699768066406
1683009844135399700,6.621399658203125,0.885699987411499,0.8127999901771545,9.732600212097168
1683009844155399700,6.641399658203125,0.9146999716758728,0.8441999554634094,9.727299690246582
1683009844175399700,6.661399658203125,0.924299955368042,0.848800003528595,9.72599983215332
1683009844195399700,6.681399658203125,0.9125999808311462,0.8357999920845032,9.72819995880127
1683009844215401200,6.701401123046875,0.8878999948501587,0.8107999563217163,9.732600212097168
1683009844235399700,6.721399658203125,0.8658999800682068,0.7774999737739563,9.737299919128418
1683009844255399700,6.741399658203125,0.8477999567985535,0.7400999665260315,9.741799354553223
1683009844275401200,6.761401123046875,0.8341000080108643,0.7102000117301941,9.745200157165527
1683009844295399700,6.781399658203125,0.8247999548912048,0.6967999935150146,9.746999740600586
1683009844315399700,6.801399658203125,0.8224999904632568,0.6944999694824219,9.747300148010254
1683009844335399700,6.821399658203125,0.8309999704360962,0.6972999572753906,9.746399879455566
1683009844355399700,6.841399658203125,0.8484999537467957,0.6942999958992004,9.745100021362305
1683009844375399700,6.861399658203125,0.8639000058174133,0.6827999949455261,9.744599342346191
1683009844395399700,6.881399658203125,0.8762999773025513,0.6624999642372131,9.74489974975586
1683009844415401200,6.901401123046875,0.8912999629974365,0.6334999799728394,9.745399475097656
1683009844435401200,6.921401123046875,0.9031999707221985,0.5893999934196472,9.747099876403809
1683009844455399700,6.941399658203125,0.9027000069618225,0.5318999886512756,9.750499725341797
1683009844475399700,6.961399658203125,0.8999999761581421,0.47669997811317444,9.753600120544434
1683009844495399700,6.981399658203125,0.904699981212616,0.42289999127388,9.755599975585938
1683009844515399700,7.001399658203125,0.9085999727249146,0.36569997668266296,9.757599830627441
1683009844535399700,7.021399658203125,0.904699981212616,0.306799978017807,9.760000228881836
1683009844555399700,7.041399658203125,0.8935999870300293,0.25349998474121094,9.762499809265137
1683009844575399700,7.061399658203125,0.8829999566078186,0.22349999845027924,9.764200210571289
1683009844595399700,7.081399658203125,0.8962000012397766,0.23240000009536743,9.762800216674805
1683009844615399700,7.101399658203125,0.9528999924659729,0.27079999446868896,9.756400108337402
1683009844635399700,7.121399658203125,1.0109999179840088,0.3156999945640564,9.749199867248535
1683009844655399700,7.141399658203125,1.035099983215332,0.3349999785423279,9.746099472045898
1683009844675399700,7.161399658203125,1.0160000324249268,0.31779998540878296,9.748600006103516
1683009844695399700,7.181399658203125,0.9625999927520752,0.27709999680519104,9.75529956817627
1683009844715399700,7.201399658203125,0.9084999561309814,0.2305999994277954,9.761699676513672
1683009844735399700,7.221399658203125,0.8761000037193298,0.2078000009059906,9.765199661254883
1683009844755399700,7.241399658203125,0.8776999711990356,0.2102999985218048,9.764999389648438
1683009844775399700,7.261399658203125,0.8937000036239624,0.22829999029636383,9.763099670410156
1683009844795399700,7.281399658203125,0.8885999917984009,0.2505999803543091,9.762999534606934
1683009844815399700,7.301399658203125,0.8640999794006348,0.26919999718666077,9.764699935913086
1683009844835399700,7.321399658203125,0.8399999737739563,0.29600000381469727,9.76609992980957
1683009844855399700,7.341399658203125,0.832099974155426,0.34450000524520874,9.765199661254883
1683009844875399700,7.361399658203125,0.8607999682426453,0.4048999845981598,9.760299682617188
1683009844895399700,7.381399658203125,0.9174999594688416,0.45260000228881836,9.75309944152832
1683009844915399700,7.401399658203125,0.9794999957084656,0.46059998869895935,9.746699333190918
1683009844935399700,7.421399658203125,1.010599970817566,0.40860000252723694,9.745800018310547
1683009844955399700,7.441399658203125,0.9824999570846558,0.3073999881744385,9.752399444580078
1683009844975399700,7.461399658203125,0.9131999611854553,0.19329999387264252,9.762100219726562
1683009844995399700,7.481399658203125,0.8495999574661255,0.09269999712705612,9.769299507141113
1683009845015399700,7.501399658203125,0.8270999789237976,0.020099999383091927,9.771599769592285
1683009845035399700,7.521399658203125,0.8485999703407288,-0.027799999341368675,9.769800186157227
1683009845055399700,7.541399658203125,0.8901999592781067,-0.05769999697804451,9.765899658203125
1683009845075399700,7.561399658203125,0.9236999750137329,-0.07119999825954437,9.762700080871582
1683009845095399700,7.581399658203125,0.9541999697685242,-0.07620000094175339,9.75979995727539
1683009845115399700,7.601399658203125,0.9942999482154846,-0.07429999858140945,9.755799293518066
1683009845135399700,7.621399658203125,1.0371999740600586,-0.06879999488592148,9.751299858093262
1683009845155399700,7.641399658203125,1.0667999982833862,-0.05480000004172325,9.748199462890625
1683009845175399700,7.661399658203125,1.0733000040054321,-0.036399997770786285,9.747599601745605
1683009845195399700,7.681399658203125,1.0598000288009644,-0.020600000396370888,9.749099731445312
1683009845215399700,7.701399658203125,1.0335999727249146,-0.010599999688565731,9.751999855041504
1683009845235399700,7.721399658203125,1.000100016593933,-0.004699999932199717,9.755499839782715
1683009845255399700,7.741399658203125,0.9637999534606934,0.003499999875202775,9.759099960327148
1683009845275399700,7.761399658203125,0.9347999691963196,0.014999999664723873,9.761899948120117
1683009845295399700,7.781399658203125,0.9188999533653259,0.028099998831748962,9.763400077819824
1683009845315399700,7.801399658203125,0.9107999801635742,0.044999998062849045,9.764100074768066
1683009845335399700,7.821399658203125,0.8940999507904053,0.06390000134706497,9.76550006866455
1683009845355399700,7.841399658203125,0.8732999563217163,0.08179999887943268,9.76729965209961
1683009845375399700,7.861399658203125,0.8574999570846558,0.09989999979734421,9.768499374389648
1683009845395399700,7.881399658203125,0.8344999551773071,0.12870000302791595,9.7701997756958
1683009845415399700,7.901399658203125,0.8018999695777893,0.15889999270439148,9.772500038146973
1683009845435399700,7.921399658203125,0.7829999923706055,0.1622999906539917,9.773900032043457
1683009845455399700,7.941399658203125,0.7838000059127808,0.14389999210834503,9.774199485778809
1683009845475399700,7.961399658203125,0.7985999584197998,0.12839999794960022,9.773200035095215
1683009845495399700,7.981399658203125,0.835599958896637,0.13429999351501465,9.769999504089355
1683009845515399700,8.001399658203125,0.8775999546051025,0.14899998903274536,9.76609992980957
1683009845535399700,8.021399658203125,0.8892999887466431,0.1451999992132187,9.76509952545166
1683009845555399700,8.041399658203124,0.8693000078201294,0.11599999666213989,9.76729965209961
1683009845575399700,8.061399658203126,0.8489999771118164,0.08479999750852585,9.769399642944336
1683009845595399700,8.081399658203125,0.8650999665260315,0.07459999620914459,9.768099784851074
1683009845615399700,8.101399658203125,0.9312999844551086,0.10749999433755875,9.761699676513672
1683009845635399700,8.121399658203124,1.0298999547958374,0.17260000109672546,9.750800132751465
1683009845655399700,8.141399658203126,1.121500015258789,0.2522999942302704,9.738999366760254
1683009845675399700,8.161399658203125,1.1800999641418457,0.32269999384880066,9.729999542236328
1683009845695399700,8.181399658203125,1.1952999830245972,0.3547999858856201,9.726999282836914
1683009845715399700,8.201399658203124,1.1654999256134033,0.35339999198913574,9.73069953918457
1683009845735399700,8.221399658203126,1.1187999248504639,0.33719998598098755,9.736700057983398
1683009845755399700,8.241399658203125,1.073099970817566,0.31529998779296875,9.742599487304688
1683009845775399700,8.261399658203125,1.031999945640564,0.290800005197525,9.74779987335205
1683009845795399700,8.281399658203124,1.0060999393463135,0.2662999927997589,9.751199722290039
1683009845815399700,8.301399658203126,1.003999948501587,0.24969999492168427,9.751899719238281
1683009845835399700,8.321399658203125,1.0197999477386475,0.249099999666214,9.750199317932129
1683009845855399700,8.341399658203125,1.042699933052063,0.26319998502731323,9.747499465942383
1683009845875402800,8.36140283203125,1.0674999952316284,0.27959999442100525,9.74429988861084
1683009845895399700,8.381399658203126,1.0930999517440796,0.28949999809265137,9.741199493408203
1683009845915401200,8.401401123046876,1.1116999387741089,0.28630000352859497,9.7391996383667
1683009845935399700,8.421399658203125,1.1131999492645264,0.25939998030662537,9.739799499511719
1683009845955399700,8.441399658203125,1.1079000234603882,0.21729999780654907,9.741399765014648
1683009845975399700,8.461399658203124,1.1000999212265015,0.17710000276565552,9.7431001663208
1683009845995399700,8.481399658203125,1.0961999893188477,0.14589999616146088,9.743999481201172
1683009846015399700,8.501399658203125,1.0960999727249146,0.12429999560117722,9.744400024414062
1683009846035399700,8.521399658203125,1.100000023841858,0.10589999705553055,9.744099617004395
1683009846055399700,8.541399658203124,1.1096999645233154,0.08529999852180481,9.743199348449707
1683009846075399700,8.561399658203126,1.118299961090088,0.06989999860525131,9.742400169372559
1683009846095399700,8.581399658203125,1.1319999694824219,0.06529999524354935,9.740799903869629
1683009846115399700,8.601399658203125,1.1589999198913574,0.07050000131130219,9.73759937286377
1683009846135401200,8.621401123046875,1.1998000144958496,0.08999999612569809,9.732500076293945
1683009846155402800,8.64140283203125,1.250499963760376,0.11539999395608902,9.725899696350098
1683009846175402800,8.66140283203125,1.2864999771118164,0.13539999723434448,9.72089958190918
1683009846195399700,8.681399658203125,1.285099983215332,0.1394999921321869,9.720999717712402
1683009846215399700,8.701399658203124,1.246999979019165,0.12690000236034393,9.726200103759766
1683009846235399700,8.721399658203126,1.1990000009536743,0.1143999993801117,9.732399940490723
1683009846255399700,8.741399658203125,1.1697999238967896,0.12039999663829803,9.735799789428711
1683009846275401200,8.761401123046875,1.1548999547958374,0.1542000025510788,9.737099647521973
1683009846295399700,8.781399658203124,1.1129999160766602,0.19049999117851257,9.741399765014648
1683009846315399700,8.801399658203126,1.0376999378204346,0.20919999480247498,9.749300003051758
1683009846335399700,8.821399658203125,0.9779999852180481,0.23499999940395355,9.754899978637695
1683009846355399700,8.841399658203125,0.9404999613761902,0.29979997873306274,9.756799697875977
1683009846375399700,8.861399658203124,0.9366999864578247,0.38909998536109924,9.753999710083008
1683009846395399700,8.881399658203126,0.9663999676704407,0.4684000015258789,9.747599601745605
1683009846415401200,8.901401123046876,0.996999979019165,0.5060999989509583,9.742599487304688
1683009846435401200,8.921401123046875,0.9982999563217163,0.5038999915122986,9.742599487304688
1683009846455399700,8.941399658203125,0.967199981212616,0.48169997334480286,9.746899604797363
1683009846475399700,8.961399658203124,0.9334999918937683,0.45739999413490295,9.751299858093262
1683009846495399700,8.981399658203125,0.9241999983787537,0.4399999976158142,9.752999305725098
1683009846515399700,9.001399658203125,0.9352999925613403,0.4315999746322632,9.752299308776855
1683009846535399700,9.021399658203125,0.9519000053405762,0.42639997601509094,9.750999450683594
1683009846555399700,9.041399658203124,0.9620999693870544,0.4259999990463257,9.75
1683009846575401200,9.061401123046876,0.9677000045776367,0.42719998955726624,9.74940013885498
1683009846595399700,9.081399658203125,0.9717999696731567,0.42969998717308044,9.748899459838867
1683009846615399700,9.101399658203125,0.9774999618530273,0.42969998717308044,9.748299598693848
1683009846635399700,9.121399658203124,0.9810999631881714,0.42229998111724854,9.748299598693848
1683009846655399700,9.141399658203126,0.9718999862670898,0.4047999978065491,9.749899864196777
1683009846675399700,9.161399658203125,0.948699951171875,0.3852999806404114,9.752999305725098
1683009846695399700,9.181399658203125,0.9195999503135681,0.3707999885082245,9.75629997253418
1683009846715401200,9.201401123046875,0.8944000005722046,0.3610999882221222,9.758999824523926
1683009846735399700,9.221399658203126,0.8726999759674072,0.35589998960494995,9.761199951171875
1683009846755399700,9.241399658203125,0.8601999878883362,0.3482999801635742,9.76259994506836
1683009846775401200,9.261401123046875,0.8615999817848206,0.33489999175071716,9.762899398803711
1683009846795399700,9.281399658203124,0.8710999488830566,0.31450000405311584,9.762800216674805
1683009846815399700,9.301399658203126,0.8877999782562256,0.28049999475479126,9.762299537658691
1683009846835399700,9.321399658203125,0.9075999855995178,0.24719999730587006,9.76140022277832
1683009846855399700,9.341399658203125,0.9333999752998352,0.21209999918937683,9.75979995727539
1683009846875399700,9.361399658203124,0.9592999815940857,0.1753999888896942,9.757999420166016
1683009846895399700,9.381399658203126,0.98089998960495,0.15109999477863312,9.756199836730957
1683009846915401200,9.401401123046876,0.9919999837875366,0.13650000095367432,9.75529956817627
1683009846935399700,9.421399658203125,1.0094000101089478,0.12159999459981918,9.753799438476562
1683009846955399700,9.441399658203125,1.0226999521255493,0.11129999905824661,9.7524995803833
1683009846975399700,9.461399658203124,1.0160999298095703,0.09449999779462814,9.753399848937988
1683009846995399700,9.481399658203125,1.0069999694824219,0.06849999725818634,9.754499435424805
1683009847015399700,9.501399658203125,1.0206999778747559,0.06300000101327896,9.75309944152832
1683009847035399700,9.521399658203125,1.041700005531311,0.08729999512434006,9.750699996948242
1683009847055399700,9.541399658203124,1.0540000200271606,0.11469999700784683,9.749099731445312
1683009847075399700,9.561399658203126,1.0677999258041382,0.14810000360012054,9.747200012207031
1683009847095399700,9.581399658203125,1.0740000009536743,0.18629999458789825,9.745800018310547
1683009847115399700,9.601399658203125,1.0760999917984009,0.23439998924732208,9.744599342346191
1683009847135401200,9.621401123046875,1.0951999425888062,0.2827000021934509,9.74109935760498
1683009847155399700,9.641399658203126,1.1438000202178955,0.3245999813079834,9.734199523925781
1683009847175399700,9.661399658203125,1.2085000276565552,0.3553999960422516,9.725299835205078
1683009847195399700,9.681399658203125,1.2689999341964722,0.38029998540878296,9.716699600219727
1683009847215401200,9.701401123046875,1.311900019645691,0.3990999758243561,9.710199356079102
1683009847235399700,9.721399658203126,1.3357999324798584,0.4016999900341034,9.706899642944336
1683009847255399700,9.741399658203125,1.3442000150680542,0.3789999783039093,9.706600189208984
1683009847275401200,9.761401123046875,1.3398000001907349,0.3349999785423279,9.70889949798584
1683009847295399700,9.781399658203124,1.3210999965667725,0.27629998326301575,9.713299751281738
1683009847315402800,9.80140283203125,1.2985999584197998,0.21220000088214874,9.717899322509766
1683009847335399700,9.821399658203125,1.2788000106811523,0.15119999647140503,9.721699714660645
1683009847355399700,9.841399658203125,1.2632999420166016,0.0965999960899353,9.72439956665039
1683009847375399700,9.861399658203124,1.255199909210205,0.050599999725818634,9.725799560546875
1683009847395399700,9.881399658203126,1.2493000030517578,0.016999999061226845,9.726699829101562
1683009847415401200,9.901401123046876,1.2461999654769897,-0.010300000198185444,9.727099418640137
1683009847435401200,9.921401123046875,1.2458999156951904,-0.029999999329447746,9.727099418640137
1683009847455399700,9.941399658203125,1.2459999322891235,-0.03929999843239784,9.726999282836914
1683009847475399700,9.961399658203124,1.2502999305725098,-0.041999999433755875,9.726499557495117
1683009847495399700,9.981399658203125,1.260599970817566,-0.04339999705553055,9.725099563598633
1683009847515399700,10.001399658203125,1.2802000045776367,-0.049300000071525574,9.722599983215332
1683009847535399700,10.021399658203125,1.2965999841690063,-0.06039999797940254,9.72029972076416
1683009847555399700,10.041399658203124,1.308899998664856,-0.06629999727010727,9.718599319458008
1683009847575402800,10.06140283203125,1.3193999528884888,-0.06509999930858612,9.717199325561523
1683009847595399700,10.081399658203125,1.3328999280929565,-0.055299997329711914,9.715399742126465
1683009847615399700,10.101399658203125,1.3580999374389648,-0.03759999945759773,9.711999893188477
1683009847635399700,10.121399658203124,1.392300009727478,-0.023099999874830246,9.707200050354004
1683009847655399700,10.141399658203126,1.4311999082565308,-0.012600000016391277,9.701600074768066
1683009847675399700,10.161399658203125,1.4771000146865845,0.002699999837204814,9.69469928741455
1683009847695399700,10.181399658203125,1.5032999515533447,0.018400000408291817,9.690699577331543
1683009847715399700,10.201399658203124,1.500599980354309,0.015099999494850636,9.691100120544434
1683009847735399700,10.221399658203126,1.4780999422073364,-0.006199999712407589,9.694600105285645
1683009847755399700,10.241399658203125,1.4438999891281128,-0.039000000804662704,9.699600219726562
1683009847775399700,10.261399658203125,1.4074000120162964,-0.09299999475479126,9.704599380493164
1683009847795399700,10.281399658203124,1.3712999820709229,-0.16339999437332153,9.70889949798584
1683009847815399700,10.301399658203126,1.3273999691009521,-0.22450000047683716,9.713699340820312
1683009847835399700,10.321399658203125,1.2666999101638794,-0.25519999861717224,9.721099853515625
1683009847855399700,10.341399658203125,1.2329999208450317,-0.25920000672340393,9.725299835205078
1683009847875399700,10.361399658203124,1.2353999614715576,-0.24449999630451202,9.7253999710083
1683009847895399700,10.381399658203126,1.2508000135421753,-0.2134999930858612,9.724199295043945
1683009847915399700,10.401399658203125,1.261699914932251,-0.18529999256134033,9.723299980163574
1683009847935399700,10.421399658203125,1.2687000036239624,-0.17080000042915344,9.722700119018555
1683009847955399700,10.441399658203125,1.264299988746643,-0.1712999939918518,9.723199844360352
1683009847975399700,10.461399658203124,1.247399926185608,-0.1834999918937683,9.725199699401855
1683009847995399700,10.481399658203125,1.2269999980926514,-0.2085999995470047,9.727299690246582
1683009848015399700,10.501399658203125,1.2156000137329102,-0.23319999873638153,9.72819995880127
1683009848035399700,10.521399658203125,1.2170000076293945,-0.24650000035762787,9.727699279785156
1683009848055399700,10.541399658203124,1.2287999391555786,-0.24769999086856842,9.726099967956543
1683009848075399700,10.561399658203126,1.2425999641418457,-0.23909999430179596,9.724599838256836
1683009848095399700,10.581399658203125,1.2527999877929688,-0.2246999889612198,9.723599433898926
1683009848115399700,10.601399658203125,1.2574999332427979,-0.20509999990463257,9.723499298095703
1683009848135399700,10.621399658203124,1.2584999799728394,-0.18129999935626984,9.723799705505371
1683009848155399700,10.641399658203126,1.2541999816894531,-0.15299999713897705,9.724899291992188
1683009848175399700,10.661399658203125,1.2502999305725098,-0.11949999630451202,9.725799560546875
1683009848195399700,10.681399658203125,1.243299961090088,-0.08139999955892563,9.727099418640137
1683009848215399700,10.701399658203124,1.2371000051498413,-0.04580000042915344,9.728099822998047
1683009848235399700,10.721399658203126,1.2346999645233154,-0.020899999886751175,9.728499412536621
1683009848255399700,10.741399658203125,1.2324999570846558,-0.00699999975040555,9.728799819946289
1683009848275399700,10.761399658203125,1.2312999963760376,-0.0013000000035390258,9.729000091552734
1683009848295399700,10.781399658203124,1.226199984550476,0.00139999995008111,9.729599952697754
1683009848315399700,10.801399658203126,1.2221999168395996,0.0013000000035390258,9.73009967803955
1683009848335399700,10.821399658203125,1.2299000024795532,0.0007999999797903001,9.729199409484863
1683009848355399700,10.841399658203125,1.2573000192642212,0.002099999925121665,9.725699424743652
1683009848375399700,10.861399658203124,1.2950999736785889,0.00419999985024333,9.720699310302734
1683009848395399700,10.881399658203126,1.3395999670028687,0.009599999524652958,9.714699745178223
1683009848415399700,10.901399658203125,1.3888999223709106,0.02979999966919422,9.7076997756958
1683009848435399700,10.921399658203125,1.434399962425232,0.05460000038146973,9.701000213623047
1683009848455399700,10.941399658203125,1.4874999523162842,0.07609999924898148,9.69279956817627
1683009848475399700,10.961399658203124,1.5419999361038208,0.09539999812841415,9.684100151062012
1683009848495399700,10.981399658203125,1.6085999011993408,0.09709999710321426,9.673299789428711
1683009848515399700,11.001399658203125,1.6878999471664429,0.09769999980926514,9.659699440002441
1683009848535399700,11.021399658203125,1.7496999502182007,0.09339999407529831,9.648799896240234
1683009848555399700,11.041399658203124,1.7572999000549316,0.04600000008940697,9.647799491882324
1683009848575399700,11.061399658203126,1.7213999032974243,-0.03799999877810478,9.654199600219727
1683009848595399700,11.081399658203125,1.6761999130249023,-0.1168999969959259,9.661600112915039
1683009848615399700,11.101399658203125,1.6567999124526978,-0.1589999943971634,9.664299964904785
1683009848635399700,11.121399658203124,1.6633999347686768,-0.1670999974012375,9.66309928894043
1683009848655399700,11.141399658203126,1.6798999309539795,-0.15139999985694885,9.660399436950684
1683009848675399700,11.161399658203125,1.6861999034881592,-0.11599999666213989,9.659799575805664
1683009848695399700,11.181399658203125,1.677299976348877,-0.07580000162124634,9.661799430847168
1683009848715399700,11.201399658203124,1.6622999906539917,-0.04919999837875366,9.664599418640137
1683009848735399700,11.221399658203126,1.6480998992919922,-0.04470000043511391,9.666999816894531
1683009848755399700,11.241399658203125,1.6272999048233032,-0.06659999489784241,9.67039966583252
1683009848775399700,11.261399658203125,1.584999918937683,-0.10319999605417252,9.67710018157959
1683009848795399700,11.281399658203124,1.5300999879837036,-0.14000000059604645,9.685500144958496
1683009848815399700,11.301399658203126,1.487299919128418,-0.16589999198913574,9.691699981689453
1683009848835399700,11.321399658203125,1.4617999792099,-0.17509999871253967,9.695499420166016
1683009848855399700,11.341399658203125,1.4512999057769775,-0.17409999668598175,9.696999549865723
1683009848875399700,11.361399658203124,1.4441999197006226,-0.1680999994277954,9.698200225830078
1683009848895399700,11.381399658203126,1.4351999759674072,-0.15869998931884766,9.699699401855469
1683009848915399700,11.401399658203125,1.4246000051498413,-0.14819999039173126,9.701399803161621
1683009848935399700,11.421399658203125,1.4098999500274658,-0.13899999856948853,9.703700065612793
1683009848955399700,11.441399658203125,1.3887999057769775,-0.13609999418258667,9.706799507141113
1683009848975399700,11.461399658203124,1.3664000034332275,-0.14149999618530273,9.70989990234375
1683009848995399700,11.481399658203125,1.357100009918213,-0.14589999616146088,9.711099624633789
1683009849015399700,11.501399658203125,1.3661999702453613,-0.13930000364780426,9.710000038146973
1683009849035399700,11.521399658203125,1.381500005722046,-0.12399999797344208,9.708000183105469
1683009849055399700,11.541399658203124,1.4027999639511108,-0.1062999963760376,9.7052001953125
1683009849075399700,11.561399658203126,1.4312999248504639,-0.08659999817609787,9.701199531555176
1683009849095399700,11.581399658203125,1.4696999788284302,-0.06119999662041664,9.695599555969238
1683009849115399700,11.601399658203125,1.5048999786376953,-0.02159999869763851,9.690400123596191
1683009849135399700,11.621399658203124,1.5185999870300293,0.009499999694526196,9.688300132751465
1683009849155399700,11.641399658203126,1.5133999586105347,0.016499999910593033,9.689099311828613
1683009849175399700,11.661399658203125,1.5020999908447266,-0.008200000040233135,9.690899848937988
1683009849195399700,11.681399658203125,1.5008999109268188,-0.05729999765753746,9.690899848937988
1683009849215399700,11.701399658203124,1.50819993019104,-0.093299999833107,9.689499855041504
1683009849235399700,11.721399658203126,1.5339999198913574,-0.09079999476671219,9.685400009155273
1683009849255399700,11.741399658203125,1.5894999504089355,-0.05169999971985817,9.676799774169922
1683009849275399700,11.761399658203125,1.65749990940094,0.015799999237060547,9.665499687194824
1683009849295399700,11.781399658203124,1.7005999088287354,0.09779999405145645,9.657499313354492
1683009849315399700,11.801399658203126,1.7148998975753784,0.18039999902248383,9.653800010681152
1683009849335399700,11.821399658203125,1.7116999626159668,0.24939998984336853,9.652799606323242
1683009849355399700,11.841399658203125,1.7077000141143799,0.29919999837875366,9.652099609375
1683009849375399700,11.861399658203124,1.7067999839782715,0.33249998092651367,9.651199340820312
1683009849395399700,11.881399658203126,1.70169997215271,0.35839998722076416,9.651199340820312
1683009849415399700,11.901399658203125,1.6971999406814575,0.38439998030662537,9.651000022888184
1683009849435399700,11.921399658203125,1.7005999088287354,0.41499999165534973,9.649099349975586
1683009849455399700,11.941399658203125,1.7077999114990234,0.4521999955177307,9.646100044250488
1683009849475399700,11.961399658203124,1.7150999307632446,0.49309998750686646,9.642799377441406
1683009849495399700,11.981399658203125,1.7196999788284302,0.535099983215332,9.639800071716309
1683009849515399700,12.001399658203125,1.7181999683380127,0.5697999596595764,9.638099670410156
1683009849535399700,12.021399658203125,1.708799958229065,0.592199981212616,9.638400077819824
1683009849555399700,12.041399658203124,1.6897999048233032,0.5985999703407288,9.641300201416016
1683009849575399700,12.061399658203126,1.6614999771118164,0.590999960899353,9.646699905395508
1683009849595399700,12.081399658203125,1.6297999620437622,0.5719999670982361,9.653299331665039
1683009849615399700,12.101399658203125,1.6004999876022339,0.5367000102996826,9.660200119018555
1683009849635399700,12.121399658203124,1.5798999071121216,0.49300000071525574,9.665900230407715
1683009849655399700,12.141399658203126,1.5748999118804932,0.4453999996185303,9.669099807739258
1683009849675399700,12.161399658203125,1.5770999193191528,0.40359997749328613,9.670499801635742
1683009849695399700,12.181399658203125,1.5885999202728271,0.375900000333786,9.6697998046875
1683009849715399700,12.201399658203124,1.6100999116897583,0.350600004196167,9.667200088500977
1683009849735399700,12.221399658203126,1.6208000183105469,0.32029998302459717,9.666399955749512
1683009849755402800,12.24140283203125,1.6146999597549438,0.2847999930381775,9.668499946594238
1683009849775401200,12.261401123046875,1.6061999797821045,0.24639999866485596,9.670999526977539
1683009849795399700,12.281399658203124,1.6042999029159546,0.20319999754428864,9.6722993850708
1683009849815402800,12.30140283203125,1.6072999238967896,0.15439999103546143,9.672699928283691
1683009849835402800,12.32140283203125,1.6054999828338623,0.09809999912977219,9.673799514770508
1683009849855399700,12.341399658203125,1.594499945640564,0.03700000047683716,9.675999641418457
1683009849875399700,12.361399658203124,1.5755999088287354,-0.023099999874830246,9.679200172424316
1683009849895399700,12.381399658203126,1.5566999912261963,-0.07779999822378159,9.681900024414062
1683009849915399700,12.401399658203125,1.5374999046325684,-0.1241999939084053,9.684499740600586
1683009849935399700,12.421399658203125,1.5058000087738037,-0.15950000286102295,9.689000129699707
1683009849955399700,12.441399658203125,1.4449999332427979,-0.19029998779296875,9.697699546813965
1683009849975399700,12.461399658203124,1.3631999492645264,-0.2256999909877777,9.708799362182617
1683009849995399700,12.481399658203125,1.3001999855041504,-0.25679999589920044,9.716599464416504
1683009850015399700,12.501399658203125,1.277899980545044,-0.28110000491142273,9.718899726867676
1683009850035399700,12.521399658203125,1.2803000211715698,-0.29899999499320984,9.718099594116211
1683009850055399700,12.541399658203124,1.293299913406372,-0.3182999789714813,9.715700149536133
1683009850075399700,12.561399658203126,1.2857999801635742,-0.34450000524520874,9.715799331665039
1683009850095399700,12.581399658203125,1.2587000131607056,-0.35589998960494995,9.718999862670898
1683009850115399700,12.601399658203125,1.222000002861023,-0.3262999951839447,9.724699974060059
1683009850135399700,12.621399658203124,1.1963999271392822,-0.26440000534057617,9.729700088500977
1683009850155399700,12.641399658203126,1.187999963760376,-0.19569998979568481,9.732399940490723
1683009850175399700,12.661399658203125,1.1862000226974487,-0.13239999115467072,9.733699798583984
1683009850195399700,12.681399658203125,1.1923999786376953,-0.06689999997615814,9.733599662780762
1683009850215399700,12.701399658203124,1.2049000263214111,0.0017999999690800905,9.7322998046875
1683009850235399700,12.721399658203126,1.2247999906539917,0.06679999828338623,9.729599952697754
1683009850255399700,12.741399658203125,1.253499984741211,0.12060000002384186,9.7253999710083
1683009850275399700,12.761399658203125,1.2768999338150024,0.1525000035762787,9.72189998626709
1683009850295399700,12.781399658203124,1.2804999351501465,0.16210000216960907,9.72130012512207
1683009850315399700,12.801399658203126,1.2704999446868896,0.15119999647140503,9.722799301147461
1683009850335399700,12.821399658203125,1.2559000253677368,0.12150000035762787,9.725099563598633
1683009850355399700,12.841399658203125,1.2400000095367432,0.0754999965429306,9.72760009765625
1683009850375399700,12.861399658203124,1.228600025177002,0.01860000006854534,9.729299545288086
1683009850395399700,12.881399658203126,1.2252999544143677,-0.04729999974370003,9.729599952697754
1683009850415399700,12.901399658203125,1.2263000011444092,-0.1200999990105629,9.728899955749512
1683009850435399700,12.921399658203125,1.2186999320983887,-0.20669999718666077,9.728400230407715
1683009850455399700,12.941399658203125,1.1936999559402466,-0.2906999886035919,9.729299545288086
1683009850475399700,12.961399658203124,1.1663999557495117,-0.35749998688697815,9.730400085449219
1683009850495399700,12.981399658203125,1.1567999124526978,-0.41339999437332153,9.729299545288086
1683009850515399700,13.001399658203125,1.1679999828338623,-0.4601999819278717,9.725899696350098
1683009850535399700,13.021399658203125,1.1898000240325928,-0.4967999756336212,9.7214994430542
1683009850555399700,13.041399658203124,1.212999939918518,-0.5273000001907349,9.717000007629395
1683009850575399700,13.061399658203126,1.2309999465942383,-0.5579000115394592,9.71299934387207
1683009850595399700,13.081399658203125,1.2462999820709229,-0.5920000076293945,9.708999633789062
1683009850615399700,13.101399658203125,1.2664999961853027,-0.6299999952316284,9.703999519348145
1683009850635399700,13.121399658203124,1.291700005531311,-0.6721999645233154,9.69789981842041
1683009850655399700,13.141399658203126,1.3269000053405762,-0.7073000073432922,9.69059944152832
1683009850675399700,13.161399658203125,1.3738999366760254,-0.7292999625205994,9.68239974975586
1683009850695399700,13.181399658203125,1.424299955368042,-0.7468000054359436,9.673799514770508
1683009850715399700,13.201399658203124,1.4692999124526978,-0.7584999799728394,9.666199684143066
1683009850735399700,13.221399658203126,1.5041999816894531,-0.7644999623298645,9.660299301147461
1683009850755399700,13.241399658203125,1.535499930381775,-0.773099958896637,9.654699325561523
1683009850775399700,13.261399658203125,1.5622999668121338,-0.7735999822616577,9.650400161743164
1683009850795399700,13.281399658203124,1.5834999084472656,-0.76419997215271,9.647699356079102
1683009850815399700,13.301399658203126,1.6104999780654907,-0.7439000010490417,9.644800186157227
1683009850835399700,13.321399658203125,1.6517999172210693,-0.7058999538421631,9.64069938659668
1683009850855399700,13.341399658203125,1.70989990234375,-0.6581000089645386,9.633899688720703
1683009850875399700,13.361399658203124,1.786199927330017,-0.6118999719619751,9.623099327087402
1683009850895399700,13.381399658203126,1.855299949645996,-0.5767999887466431,9.612199783325195
1683009850915399700,13.401399658203125,1.8925999402999878,-0.5580999851226807,9.605999946594238
1683009850935401200,13.421401123046875,1.8906999826431274,-0.54339998960495,9.607199668884277
1683009850955399700,13.441399658203125,1.8644999265670776,-0.5180000066757202,9.613800048828125
1683009850975399700,13.461399658203124,1.830399990081787,-0.4756999909877777,9.622499465942383
1683009850995399700,13.481399658203125,1.8092999458312988,-0.4156000018119812,9.629300117492676
1683009851015399700,13.501399658203125,1.8001999855041504,-0.34579998254776,9.633699417114258
1683009851035399700,13.521399658203125,1.7942999601364136,-0.2719999849796295,9.637199401855469
1683009851055399700,13.541399658203124,1.7867999076843262,-0.18869999051094055,9.640600204467773
1683009851075401200,13.561401123046876,1.7868999242782593,-0.09629999846220016,9.641900062561035
1683009851095399700,13.581399658203125,1.792199969291687,-0.008299999870359898,9.641399383544922
1683009851115399700,13.601399658203125,1.792799949645996,0.06579999625682831,9.64109992980957
1683009851135399700,13.621399658203124,1.7773000001907349,0.11999999731779099,9.643400192260742
1683009851155399700,13.641399658203126,1.7371000051498413,0.1589999943971634,9.650199890136719
1683009851175399700,13.661399658203125,1.6749999523162842,0.18869999051094055,9.660599708557129
1683009851195399700,13.681399658203125,1.6085000038146973,0.21279999613761902,9.67140007019043
1683009851215401200,13.701401123046875,1.5525999069213867,0.23259998857975006,9.680099487304688
1683009851235399700,13.721399658203126,1.5118999481201172,0.2491999864578247,9.686100006103516
1683009851255399700,13.741399658203125,1.4814999103546143,0.2629999816417694,9.690499305725098
1683009851275401200,13.761401123046875,1.4519000053405762,0.27390000224113464,9.694600105285645
1683009851295399700,13.781399658203124,1.4217000007629395,0.2865000069141388,9.698800086975098
1683009851315399700,13.801399658203126,1.392300009727478,0.30059999227523804,9.70259952545166
1683009851335399700,13.821399658203125,1.3708000183105469,0.31610000133514404,9.7052001953125
1683009851355399700,13.841399658203125,1.3554999828338623,0.33709999918937683,9.706600189208984
1683009851375399700,13.861399658203124,1.3424999713897705,0.3594000041484833,9.707599639892578
1683009851395399700,13.881399658203126,1.330899953842163,0.3766999840736389,9.708600044250488
1683009851415399700,13.901399658203125,1.3184000253677368,0.3822000026702881,9.710100173950195
1683009851435399700,13.921399658203125,1.3004000186920166,0.36719998717308044,9.713099479675293
1683009851455399700,13.941399658203125,1.2933999300003052,0.33169999718666077,9.715299606323242
1683009851475399700,13.961399658203124,1.291100025177002,0.288100004196167,9.717000007629395
1683009851495399700,13.981399658203125,1.291100025177002,0.24879999458789825,9.718099594116211
1683009851515399700,14.001399658203125,1.292799949645996,0.21209999918937683,9.71869945526123
1683009851535399700,14.021399658203125,1.2991999387741089,0.17249999940395355,9.718599319458008
1683009851555399700,14.041399658203124,1.309999942779541,0.14309999346733093,9.717700004577637
1683009851575401200,14.061401123046876,1.317199945449829,0.125900000333786,9.716899871826172
1683009851595399700,14.081399658203125,1.322700023651123,0.11509999632835388,9.716300010681152
1683009851615399700,14.101399658203125,1.3240000009536743,0.10749999433755875,9.71619987487793
1683009851635401200,14.121401123046875,1.3241000175476074,0.08869999647140503,9.716400146484375
1683009851655401200,14.141401123046874,1.3335999250411987,0.05790000036358833,9.715299606323242
1683009851675399700,14.161399658203125,1.347100019454956,0.030899999663233757,9.713600158691406
1683009851695399700,14.181399658203125,1.3521000146865845,-0.009999999776482582,9.712900161743164
1683009851715401200,14.201401123046875,1.3626999855041504,-0.06539999693632126,9.711199760437012
1683009851735399700,14.221399658203126,1.3882999420166016,-0.10830000042915344,9.707200050354004
1683009851755399700,14.241399658203125,1.4275000095367432,-0.1265999972820282,9.701299667358398
1683009851775401200,14.261401123046875,1.479699969291687,-0.125,9.693499565124512
1683009851795399700,14.281399658203124,1.5312999486923218,-0.10809999704360962,9.685699462890625
1683009851815402800,14.30140283203125,1.5709999799728394,-0.09519999474287033,9.679499626159668
1683009851835399700,14.321399658203125,1.5871999263763428,-0.1054999977350235,9.6766996383667
1683009851855399700,14.341399658203125,1.57669997215271,-0.1445000022649765,9.677899360656738
1683009851875399700,14.361399658203124,1.5494999885559082,-0.19919998943805695,9.68139934539795
1683009851895399700,14.381399658203126,1.5252000093460083,-0.2515999972820282,9.684000015258789
1683009851915399700,14.401399658203125,1.5134999752044678,-0.2936999797821045,9.684599876403809
1683009851935401200,14.421401123046875,1.5,-0.32330000400543213,9.685799598693848
1683009851955399700,14.441399658203125,1.4750999212265015,-0.3416000008583069,9.689000129699707
1683009851975399700,14.461399658203124,1.4498000144958496,-0.35040000081062317,9.692500114440918
1683009851995399700,14.481399658203125,1.440500020980835,-0.35249999165534973,9.69379997253418
1683009852015399700,14.501399658203125,1.4514999389648438,-0.34790000319480896,9.692299842834473
1683009852035399700,14.521399658203125,1.4757999181747437,-0.3369999825954437,9.689099311828613
1683009852055399700,14.541399658203124,1.492799997329712,-0.32909998297691345,9.686699867248535
1683009852075399700,14.561399658203126,1.4882999658584595,-0.33169999718666077,9.687299728393555
1683009852095399700,14.581399658203125,1.4718999862670898,-0.3452000021934509,9.689399719238281
1683009852115399700,14.601399658203125,1.451200008392334,-0.3506999909877777,9.692299842834473
1683009852135399700,14.621399658203124,1.4334999322891235,-0.3351999819278717,9.695499420166016
1683009852155399700,14.641399658203126,1.4276999235153198,-0.29249998927116394,9.697699546813965
1683009852175399700,14.661399658203125,1.4394999742507935,-0.23469999432563782,9.697500228881836
1683009852195399700,14.681399658203125,1.480799913406372,-0.1776999980211258,9.692500114440918
1683009852215399700,14.701399658203124,1.5099999904632568,-0.12719999253749847,9.688799858093262
1683009852235399700,14.721399658203126,1.4936999082565308,-0.1022999957203865,9.69159984588623
1683009852255399700,14.741399658203125,1.4365999698638916,-0.13699999451637268,9.699799537658691
1683009852275399700,14.761399658203125,1.3712999820709229,-0.21969999372959137,9.707799911499023
1683009852295399700,14.781399658203124,1.299299955368042,-0.3073999881744385,9.715299606323242
1683009852315399700,14.801399658203126,1.2458000183105469,-0.33799999952316284,9.72130012512207
1683009852335399700,14.821399658203125,1.2335000038146973,-0.2992999851703644,9.724100112915039
1683009852355399700,14.841399658203125,1.2702999114990234,-0.22699999809265137,9.72130012512207
1683009852375399700,14.861399658203124,1.323099970817566,-0.1573999971151352,9.715700149536133
1683009852395399700,14.881399658203126,1.355299949645996,-0.1257999986410141,9.711699485778809
1683009852415399700,14.901399658203125,1.348699927330017,-0.11759999394416809,9.712699890136719
1683009852435402800,14.92140283203125,1.3191999197006226,-0.10369999706745148,9.716899871826172
1683009852455399700,14.941399658203125,1.3040999174118042,-0.07919999957084656,9.719200134277344
1683009852475399700,14.961399658203124,1.3229999542236328,-0.05130000039935112,9.71679973602295
1683009852495399700,14.981399658203125,1.3566999435424805,-0.041099999099969864,9.712200164794922
1683009852515399700,15.001399658203125,1.3737000226974487,-0.056199997663497925,9.709699630737305
1683009852535399700,15.021399658203125,1.3586000204086304,-0.09489999711513519,9.711599349975586
1683009852555399700,15.041399658203124,1.3305000066757202,-0.14299999177455902,9.714900016784668
1683009852575401200,15.061401123046876,1.3083999156951904,-0.19299998879432678,9.717000007629395
1683009852595399700,15.081399658203125,1.3009999990463257,-0.24300000071525574,9.716899871826172
1683009852615399700,15.101399658203125,1.296299934387207,-0.2928999960422516,9.716099739074707
1683009852635401200,15.121401123046875,1.2798999547958374,-0.33399999141693115,9.717000007629395
1683009852655399700,15.141399658203126,1.2443000078201294,-0.3626999855041504,9.720600128173828
1683009852675399700,15.161399658203125,1.1965999603271484,-0.3763999938964844,9.72599983215332
1683009852695399700,15.181399658203125,1.147499918937683,-0.36739999055862427,9.7322998046875
1683009852715401200,15.201401123046875,1.1140999794006348,-0.3360999822616577,9.737299919128418
1683009852735399700,15.221399658203126,1.0993999242782593,-0.29109999537467957,9.740399360656738
1683009852755399700,15.241399658203125,1.0961999893188477,-0.23739999532699585,9.742199897766113
1683009852775401200,15.261401123046875,1.1054999828338623,-0.1761000007390976,9.742499351501465
1683009852795399700,15.281399658203124,1.1231999397277832,-0.10849999636411667,9.741399765014648
1683009852815399700,15.301399658203126,1.1310999393463135,-0.037299998104572296,9.74109935760498
1683009852835399700,15.321399658203125,1.1435999870300293,0.03689999878406525,9.73960018157959
1683009852855399700,15.341399658203125,1.159600019454956,0.0908999964594841,9.73740005493164
1683009852875399700,15.361399658203124,1.1756999492645264,0.12529999017715454,9.735099792480469
1683009852895399700,15.381399658203126,1.199199914932251,0.15439999103546143,9.731800079345703
1683009852915399700,15.401399658203125,1.2113999128341675,0.17759999632835388,9.729899406433105
1683009852935401200,15.421401123046875,1.2120999097824097,0.18479999899864197,9.729599952697754
1683009852955399700,15.441399658203125,1.2142999172210693,0.18679998815059662,9.729299545288086
1683009852975399700,15.461399658203124,1.2264000177383423,0.1915999948978424,9.727699279785156
1683009852995399700,15.481399658203125,1.2584999799728394,0.18599998950958252,9.723699569702148
1683009853015399700,15.501399658203125,1.2883999347686768,0.1727999895811081,9.720099449157715
1683009853035399700,15.521399658203125,1.2796000242233276,0.14659999310970306,9.721599578857422
1683009853055399700,15.541399658203124,1.2491999864578247,0.08299999684095383,9.726299285888672
1683009853075401200,15.561401123046876,1.2263000011444092,-0.011599999852478504,9.729599952697754
1683009853095399700,15.581399658203125,1.2250999212265015,-0.09470000118017197,9.729299545288086
1683009853115399700,15.601399658203125,1.2567999362945557,-0.14899998903274536,9.724599838256836
1683009853135399700,15.621399658203124,1.3114999532699585,-0.18619999289512634,9.716699600219727
1683009853155399700,15.641399658203126,1.358299970626831,-0.22439999878406525,9.70949935913086
1683009853175399700,15.661399658203125,1.3787000179290771,-0.27309998869895935,9.705399513244629
1683009853195399700,15.681399658203125,1.37309992313385,-0.3270999789237976,9.704500198364258
1683009853215401200,15.701401123046875,1.3478999137878418,-0.37950000166893005,9.706099510192871
1683009853235399700,15.721399658203126,1.3113999366760254,-0.43140000104904175,9.70889949798584
1683009853255399700,15.741399658203125,1.2680000066757202,-0.4813999831676483,9.712299346923828
1683009853275401200,15.761401123046875,1.230799913406372,-0.527999997138977,9.714699745178223
1683009853295402800,15.78140283203125,1.2120000123977661,-0.568399965763092,9.714799880981445
1683009853315402800,15.80140283203125,1.2095999717712402,-0.5945999622344971,9.713500022888184
1683009853335402800,15.82140283203125,1.2121999263763428,-0.6103999614715576,9.712200164794922
1683009853355399700,15.841399658203125,1.2121999263763428,-0.6229000091552734,9.711400032043457
1683009853375399700,15.861399658203124,1.2095999717712402,-0.6319000124931335,9.711199760437012
1683009853395399700,15.881399658203126,1.2103999853134155,-0.6354999542236328,9.710800170898438
1683009853415399700,15.901399658203125,1.2149999141693115,-0.628600001335144,9.710700035095215
1683009853435401200,15.921401123046875,1.2276999950408936,-0.6189999580383301,9.709699630737305
1683009853455399700,15.941399658203125,1.2445999383926392,-0.6114999651908875,9.708099365234375
1683009853475399700,15.961399658203124,1.2573999166488647,-0.6141999959945679,9.706199645996094
1683009853495399700,15.981399658203125,1.257599949836731,-0.6313999891281128,9.705100059509277
1683009853515399700,16.001399658203123,1.2587000131607056,-0.6588999629020691,9.703100204467773
1683009853535401200,16.021401123046875,1.2796999216079712,-0.6894999742507935,9.698299407958984
1683009853555399700,16.041399658203126,1.3191999197006226,-0.7134000062942505,9.69119930267334
1683009853575399700,16.061399658203126,1.378999948501587,-0.7233999967575073,9.682199478149414
1683009853595399700,16.081399658203125,1.4453999996185303,-0.7042999863624573,9.67389965057373
1683009853615399700,16.101399658203125,1.4911999702453613,-0.6662999987602234,9.669599533081055
1683009853635401200,16.121401123046876,1.5195999145507812,-0.6408999562263489,9.666899681091309
1683009853655401200,16.141401123046876,1.5339999198913574,-0.6344999670982361,9.66510009765625
1683009853675399700,16.161399658203123,1.5367999076843262,-0.6396999955177307,9.664299964904785
1683009853695399700,16.181399658203127,1.5324000120162964,-0.646399974822998,9.664499282836914
1683009853715402800,16.20140283203125,1.5185999870300293,-0.6291999816894531,9.667799949645996
1683009853735399700,16.221399658203126,1.5097999572753906,-0.5741999745368958,9.672599792480469
1683009853755399700,16.241399658203125,1.5101999044418335,-0.4921000003814697,9.67710018157959
1683009853775399700,16.261399658203125,1.5161999464035034,-0.4059000015258789,9.68019962310791
1683009853795399700,16.281399658203124,1.5121999979019165,-0.3238999843597412,9.683899879455566
1683009853815399700,16.301399658203124,1.4950000047683716,-0.2630999982357025,9.688399314880371
1683009853835399700,16.321399658203124,1.4880999326705933,-0.2248999923467636,9.690400123596191
1683009853855399700,16.341399658203127,1.490399956703186,-0.1996999979019165,9.69059944152832
1683009853875399700,16.361399658203126,1.4994999170303345,-0.19029998779296875,9.689399719238281
1683009853895399700,16.381399658203126,1.5058000087738037,-0.1972000002861023,9.688300132751465
1683009853915399700,16.401399658203125,1.5020999908447266,-0.2133999913930893,9.688499450683594
1683009853935399700,16.421399658203125,1.4914000034332275,-0.23249998688697815,9.68970012664795
1683009853955399700,16.441399658203125,1.480199933052063,-0.2466999888420105,9.691100120544434
1683009853975399700,16.461399658203124,1.4778000116348267,-0.2524999976158142,9.691299438476562
1683009853995399700,16.481399658203124,1.483199954032898,-0.24949999153614044,9.69059944152832
1683009854015399700,16.501399658203123,1.4966999292373657,-0.23989999294281006,9.688699722290039
1683009854035399700,16.521399658203126,1.5123999118804932,-0.22749999165534973,9.686599731445312
1683009854055399700,16.541399658203126,1.5247999429702759,-0.2084999978542328,9.685099601745605
1683009854075401200,16.561401123046874,1.5303999185562134,-0.1873999983072281,9.684599876403809
1683009854095399700,16.581399658203125,1.521299958229065,-0.1664000004529953,9.68649959564209
1683009854115399700,16.601399658203125,1.5016999244689941,-0.14350000023841858,9.689899444580078
1683009854135401200,16.621401123046876,1.4805999994277954,-0.11719999462366104,9.693499565124512
1683009854155399700,16.641399658203124,1.4595999717712402,-0.09479999542236328,9.6968994140625
1683009854175399700,16.661399658203123,1.4444999694824219,-0.08590000122785568,9.699199676513672
1683009854195399700,16.681399658203127,1.4290000200271606,-0.08799999952316284,9.701499938964844
1683009854215401200,16.701401123046875,1.4078999757766724,-0.08989999443292618,9.704599380493164
1683009854235399700,16.721399658203126,1.3911999464035034,-0.07490000128746033,9.707099914550781
1683009854255399700,16.741399658203125,1.3918999433517456,-0.048499997705221176,9.707200050354004
1683009854275399700,16.761399658203125,1.3966000080108643,-0.020600000396370888,9.706600189208984
1683009854295399700,16.781399658203124,1.4021999835968018,-0.006899999920278788,9.70580005645752
1683009854315399700,16.801399658203124,1.4031000137329102,-0.011799999512732029,9.705699920654297
1683009854335399700,16.821399658203124,1.407599925994873,-0.03700000047683716,9.704999923706055
1683009854355399700,16.841399658203127,1.4321999549865723,-0.09200000017881393,9.701000213623047
1683009854375399700,16.861399658203126,1.466599941253662,-0.1656000018119812,9.694899559020996
1683009854395399700,16.881399658203126,1.5162999629974365,-0.22630000114440918,9.685999870300293
1683009854415399700,16.901399658203125,1.5652999877929688,-0.24629999697208405,9.67770004272461
1683009854435399700,16.921399658203125,1.5882999897003174,-0.25189998745918274,9.673799514770508
1683009854455399700,16.941399658203125,1.5571999549865723,-0.3003000020980835,9.677499771118164
1683009854475399700,16.961399658203124,1.4866999387741089,-0.39879998564720154,9.684999465942383
1683009854495399700,16.981399658203124,1.4262999296188354,-0.4867999851703644,9.690099716186523
1683009854515399700,17.001399658203123,1.4154999256134033,-0.5101999640464783,9.690499305725098
1683009854535399700,17.021399658203126,1.4810999631881714,-0.4948999881744385,9.681499481201172
1683009854555399700,17.041399658203126,1.5877999067306519,-0.48079997301101685,9.665199279785156
1683009854575399700,17.061399658203126,1.670799970626831,-0.4717999994754791,9.651700019836426
1683009854595399700,17.081399658203125,1.702299952507019,-0.46549999713897705,9.646499633789062
1683009854615399700,17.101399658203125,1.6883999109268188,-0.4658999741077423,9.648900032043457
1683009854635399700,17.121399658203124,1.6577999591827393,-0.47509998083114624,9.653800010681152
1683009854655399700,17.141399658203124,1.6371999979019165,-0.49559998512268066,9.65619945526123
1683009854675399700,17.161399658203123,1.6240999698638916,-0.5356999635696411,9.656299591064453
1683009854695399700,17.181399658203127,1.612399935722351,-0.5827000141143799,9.655599594116211
1683009854715399700,17.201399658203126,1.6014999151229858,-0.617900013923645,9.655200004577637
1683009854735399700,17.221399658203126,1.5971999168395996,-0.6331999897956848,9.654899597167969
1683009854755399700,17.241399658203125,1.6047999858856201,-0.6354999542236328,9.653499603271484
1683009854775399700,17.261399658203125,1.6220999956130981,-0.6365999579429626,9.65049934387207
1683009854795399700,17.281399658203124,1.6460999250411987,-0.6425999999046326,9.646100044250488
1683009854815399700,17.301399658203124,1.6668999195098877,-0.6505999565124512,9.642000198364258
1683009854835399700,17.321399658203124,1.6816999912261963,-0.6570000052452087,9.638999938964844
1683009854855399700,17.341399658203127,1.6906999349594116,-0.6559000015258789,9.637499809265137
1683009854875399700,17.361399658203126,1.698099970817566,-0.6535999774932861,9.636300086975098
1683009854895399700,17.381399658203126,1.7056999206542969,-0.6549999713897705,9.634900093078613
1683009854915399700,17.401399658203125,1.7091999053955078,-0.6557999849319458,9.634200096130371
1683009854935399700,17.421399658203125,1.722599983215332,-0.6455000042915344,9.632499694824219
1683009854955399700,17.441399658203125,1.7421000003814697,-0.6079999804496765,9.631400108337402
1683009854975399700,17.461399658203124,1.7702000141143799,-0.5435000061988831,9.630199432373047
1683009854995399700,17.481399658203124,1.7898999452590942,-0.47039997577667236,9.630399703979492
1683009855015399700,17.501399658203123,1.7914999723434448,-0.4212999939918518,9.632299423217773
1683009855035399700,17.521399658203126,1.7684999704360962,-0.39489999413490295,9.637700080871582
1683009855055399700,17.541399658203126,1.7187999486923218,-0.3781999945640564,9.64739990234375
1683009855075399700,17.561399658203126,1.6685999631881714,-0.36159998178482056,9.65679931640625
1683009855095399700,17.581399658203125,1.6365000009536743,-0.3357999920845032,9.663199424743652
1683009855115399700,17.601399658203125,1.5932999849319458,-0.32739999890327454,9.67080020904541
1683009855135399700,17.621399658203124,1.5336999893188477,-0.3642999827861786,9.679100036621094
1683009855155399700,17.641399658203124,1.4789999723434448,-0.4275999963283539,9.684999465942383
1683009855175399700,17.661399658203123,1.4333000183105469,-0.4781000018119812,9.689499855041504
1683009855195399700,17.681399658203127,1.399899959564209,-0.4992999732494354,9.693299293518066
1683009855215399700,17.701399658203126,1.4089999198913574,-0.5036999583244324,9.691800117492676
1683009855235399700,17.721399658203126,1.4513999223709106,-0.49779999256134033,9.685799598693848
1683009855255399700,17.741399658203125,1.5084999799728394,-0.49399998784065247,9.677299499511719
1683009855275399700,17.761399658203125,1.5494999885559082,-0.4964999854564667,9.670700073242188
1683009855295399700,17.781399658203124,1.567099928855896,-0.5049999952316284,9.667399406433105
1683009855315399700,17.801399658203124,1.570099949836731,-0.5151999592781067,9.666399955749512
1683009855335399700,17.821399658203124,1.5643999576568604,-0.5163999795913696,9.667200088500977
1683009855355402800,17.84140283203125,1.5643999576568604,-0.5073999762535095,9.667699813842773
1683009855375399700,17.861399658203126,1.5644999742507935,-0.4916999936103821,9.668499946594238
1683009855395402800,17.88140283203125,1.567699909210205,-0.4756999909877777,9.66879940032959
1683009855415402800,17.90140283203125,1.5688999891281128,-0.45389997959136963,9.669599533081055
1683009855435399700,17.921399658203125,1.5622999668121338,-0.4251999855041504,9.67199993133545
1683009855455399700,17.941399658203125,1.5591999292373657,-0.39239999651908875,9.67389965057373
1683009855475399700,17.961399658203124,1.5562999248504639,-0.3595999777317047,9.675600051879883
1683009855495399700,17.981399658203124,1.5548999309539795,-0.32359999418258667,9.67710018157959
1683009855515399700,18.001399658203123,1.5568000078201294,-0.27559998631477356,9.678299903869629
1683009855535399700,18.021399658203126,1.566499948501587,-0.20809999108314514,9.678400039672852
1683009855555399700,18.041399658203126,1.5782999992370605,-0.12690000236034393,9.677899360656738
1683009855575402800,18.06140283203125,1.58489990234375,-0.04690000042319298,9.677599906921387
1683009855595399700,18.081399658203125,1.5901999473571777,0.01939999870955944,9.676799774169922
1683009855615399700,18.101399658203125,1.589900016784668,0.06909999996423721,9.676599502563477
1683009855635401200,18.121401123046876,1.59089994430542,0.09889999777078629,9.676199913024902
1683009855655401200,18.141401123046876,1.5959999561309814,0.10779999941587448,9.675199508666992
1683009855675399700,18.161399658203123,1.6039999723434448,0.10339999943971634,9.673999786376953
1683009855695399700,18.181399658203127,1.5965999364852905,0.08909999579191208,9.675299644470215
1683009855715401200,18.201401123046875,1.5586999654769897,0.06399999558925629,9.681699752807617
1683009855735399700,18.221399658203126,1.4955999851226807,0.034699998795986176,9.691800117492676
1683009855755402800,18.24140283203125,1.4096999168395996,-0.003999999724328518,9.704699516296387
1683009855775402800,18.26140283203125,1.3377999067306519,-0.051899999380111694,9.714799880981445
1683009855795399700,18.281399658203124,1.3113999366760254,-0.09179999679327011,9.718099594116211
1683009855815399700,18.301399658203124,1.289199948310852,-0.10639999806880951,9.72089958190918
1683009855835399700,18.321399658203124,1.2803999185562134,-0.12770000100135803,9.721799850463867
1683009855855399700,18.341399658203127,1.3054999113082886,-0.16589999198913574,9.717899322509766
1683009855875399700,18.361399658203126,1.3393999338150024,-0.1996999979019165,9.712599754333496
1683009855895402800,18.38140283203125,1.3695999383926392,-0.2231999933719635,9.707900047302246
1683009855915399700,18.401399658203125,1.3970999717712402,-0.22829999029636383,9.703899383544922
1683009855935401200,18.421401123046873,1.4184999465942383,-0.22269999980926514,9.700900077819824
1683009855955399700,18.441399658203125,1.4294999837875366,-0.21409998834133148,9.69950008392334
1683009855975402800,18.46140283203125,1.431399941444397,-0.20739999413490295,9.699299812316895
1683009855995399700,18.481399658203124,1.4322999715805054,-0.20569999516010284,9.699299812316895
1683009856015399700,18.501399658203123,1.4301999807357788,-0.2078000009059906,9.69950008392334
1683009856035399700,18.521399658203126,1.4330999851226807,-0.21459999680519104,9.69890022277832
1683009856055399700,18.541399658203126,1.435499906539917,-0.2215999960899353,9.698399543762207
1683009856075401200,18.561401123046874,1.434999942779541,-0.23189999163150787,9.698299407958984
1683009856095399700,18.581399658203125,1.4304999113082886,-0.2442999929189682,9.698599815368652
1683009856115399700,18.601399658203125,1.4148999452590942,-0.2611999809741974,9.700499534606934
1683009856135401200,18.621401123046876,1.3964999914169312,-0.28689998388290405,9.702400207519531
1683009856155399700,18.641399658203124,1.381500005722046,-0.3199999928474426,9.703499794006348
1683009856175399700,18.661399658203123,1.3740999698638916,-0.35599997639656067,9.703299522399902
1683009856195399700,18.681399658203127,1.3727999925613403,-0.3880999982357025,9.702300071716309
1683009856215399700,18.701399658203126,1.3708000183105469,-0.41169998049736023,9.701600074768066
1683009856235399700,18.721399658203126,1.368299961090088,-0.4219000041484833,9.701499938964844
1683009856255399700,18.741399658203125,1.3632999658584595,-0.42339998483657837,9.702099800109863
1683009856275399700,18.761399658203125,1.3538999557495117,-0.4235000014305115,9.703399658203125
1683009856295399700,18.781399658203124,1.3386999368667603,-0.421999990940094,9.705599784851074
1683009856315399700,18.801399658203124,1.3330999612808228,-0.4153999984264374,9.70669937133789
1683009856335399700,18.821399658203124,1.3507000207901,-0.38989999890327454,9.705299377441406
1683009856355399700,18.841399658203127,1.389799952507019,-0.3407999873161316,9.701600074768066
1683009856375399700,18.861399658203126,1.4345999956130981,-0.27789998054504395,9.697099685668945
1683009856395399700,18.881399658203126,1.4652999639511108,-0.22219999134540558,9.693999290466309
1683009856415399700,18.901399658203125,1.4757999181747437,-0.19909998774528503,9.692899703979492
1683009856435399700,18.921399658203125,1.4567999839782715,-0.21369999647140503,9.695399284362793
1683009856455399700,18.941399658203125,1.4289000034332275,-0.2386999875307083,9.698999404907227
1683009856475399700,18.961399658203124,1.4168999195098877,-0.25459998846054077,9.700300216674805
1683009856495399700,18.981399658203124,1.423200011253357,-0.2529999911785126,9.69950008392334
1683009856515399700,19.001399658203123,1.4399999380111694,-0.24689999222755432,9.697199821472168
1683009856535399700,19.021399658203126,1.4721999168395996,-0.25849997997283936,9.691999435424805
1683009856555399700,19.041399658203126,1.5003999471664429,-0.27149999141693115,9.687299728393555
1683009856575399700,19.061399658203126,1.5033999681472778,-0.2717999815940857,9.68690013885498
1683009856595399700,19.081399658203125,1.497499942779541,-0.2586999833583832,9.68809986114502
1683009856615399700,19.101399658203125,1.5001999139785767,-0.24229998886585236,9.68809986114502
1683009856635399700,19.121399658203124,1.5084999799728394,-0.22839999198913574,9.687199592590332
1683009856655399700,19.141399658203124,1.5128999948501587,-0.2166999876499176,9.686800003051758
1683009856675399700,19.161399658203123,1.5065999031066895,-0.20419999957084656,9.687999725341797
1683009856695399700,19.181399658203127,1.4890999794006348,-0.19039998948574066,9.690999984741211
1683009856715399700,19.201399658203126,1.4670000076293945,-0.17870000004768372,9.694600105285645
1683009856735399700,19.221399658203126,1.4394999742507935,-0.17339999973773956,9.698800086975098
1683009856755399700,19.241399658203125,1.4089000225067139,-0.17399999499320984,9.703299522399902
1683009856775399700,19.261399658203125,1.3773000240325928,-0.18199999630451202,9.7076997756958
1683009856795399700,19.281399658203124,1.3370999097824097,-0.19020000100135803,9.713099479675293
1683009856815399700,19.301399658203124,1.2980999946594238,-0.19370000064373016,9.718400001525879
1683009856835399700,19.321399658203124,1.274399995803833,-0.18599998950958252,9.721699714660645
1683009856855399700,19.341399658203127,1.26829993724823,-0.16200000047683716,9.722899436950684
1683009856875399700,19.361399658203126,1.2688000202178955,-0.125,9.723400115966797
1683009856895399700,19.381399658203126,1.2720999717712402,-0.08179999887943268,9.723400115966797
1683009856915399700,19.401399658203125,1.2818999290466309,-0.039799999445676804,9.722399711608887
1683009856935399700,19.421399658203125,1.2964999675750732,-0.00009999999747378752,9.720499992370605
1683009856955399700,19.441399658203125,1.3084999322891235,0.026999998837709427,9.718899726867676
1683009856975399700,19.461399658203124,1.3156999349594116,0.030499998480081558,9.717899322509766
1683009856995399700,19.481399658203124,1.313099980354309,0.013499999418854713,9.718299865722656
1683009857015399700,19.501399658203123,1.3071999549865723,-0.004399999976158142,9.719099998474121
1683009857035399700,19.521399658203126,1.2898999452590942,-0.02419999986886978,9.721399307250977
1683009857055399700,19.541399658203126,1.270799994468689,-0.05829999968409538,9.723699569702148
1683009857075399700,19.561399658203126,1.253600001335144,-0.1111999973654747,9.725500106811523
1683009857095399700,19.581399658203125,1.2275999784469604,-0.16679999232292175,9.727999687194824
1683009857115399700,19.601399658203125,1.2034999132156372,-0.20960000157356262,9.730199813842773
1683009857135399700,19.621399658203124,1.1934000253677368,-0.23279999196529388,9.730899810791016
1683009857155399700,19.641399658203124,1.194599986076355,-0.22669999301433563,9.730899810791016
1683009857175399700,19.661399658203123,1.1869999170303345,-0.19829998910427094,9.732500076293945
1683009857195399700,19.681399658203127,1.180899977684021,-0.18799999356269836,9.733399391174316
1683009857215399700,19.701399658203126,1.1725000143051147,-0.1832999885082245,9.73449993133545
1683009857235399700,19.721399658203126,1.1721999645233154,-0.15299999713897705,9.735099792480469
1683009857255399700,19.741399658203125,1.1842999458312988,-0.09809999912977219,9.734299659729004
1683009857275399700,19.761399658203125,1.212399959564209,-0.04559999704360962,9.73129940032959
1683009857295399700,19.781399658203124,1.251099944114685,0.000699999975040555,9.726499557495117
1683009857315399700,19.801399658203124,1.2842999696731567,0.034299999475479126,9.722099304199219
1683009857335399700,19.821399658203124,1.294700026512146,0.04969999939203262,9.720600128173828
1683009857355399700,19.841399658203127,1.2889000177383423,0.043699998408555984,9.721399307250977
1683009857375399700,19.861399658203126,1.2725999355316162,0.017500000074505806,9.723699569702148
1683009857395399700,19.881399658203126,1.2493000030517578,-0.011899999342858791,9.726699829101562
1683009857415399700,19.901399658203125,1.2207999229431152,-0.03199999779462814,9.730299949645996
1683009857435399700,19.921399658203125,1.1892999410629272,-0.0340999998152256,9.734099388122559
1683009857455399700,19.941399658203125,1.1576999425888062,-0.030499998480081558,9.73799991607666
1683009857475399700,19.961399658203124,1.128000020980835,-0.024799998849630356,9.741499900817871
1683009857495399700,19.981399658203124,1.111799955368042,-0.010499999858438969,9.743399620056152
1683009857515399700,20.001399658203123,1.1129000186920166,0.009999999776482582,9.743199348449707
1683009857535399700,20.021399658203126,1.1302000284194946,0.031199999153614044,9.741199493408203
1683009857555402800,20.04140283203125,1.1561999320983887,0.03759999945759773,9.738100051879883
1683009857575401200,20.061401123046874,1.1899999380111694,0.02419999986886978,9.734099388122559
1683009857595399700,20.081399658203125,1.2307000160217285,-0.006000000052154064,9.729100227355957
1683009857615399700,20.101399658203125,1.2652000188827515,-0.04989999905228615,9.724499702453613
1683009857635401200,20.121401123046876,1.2786999940872192,-0.0965999960899353,9.722399711608887
1683009857655401200,20.141401123046876,1.2684999704360962,-0.14890000224113464,9.723099708557129
1683009857675399700,20.161399658203123,1.2530999183654785,-0.19529999792575836,9.724199295043945
1683009857695399700,20.181399658203127,1.2384999990463257,-0.22899998724460602,9.7253999710083
1683009857715401200,20.201401123046875,1.2382999658584595,-0.24289999902248383,9.725099563598633
1683009857735399700,20.221399658203126,1.270799994468689,-0.23009999096393585,9.721199989318848
1683009857755399700,20.241399658203125,1.317099928855896,-0.1859000027179718,9.715999603271484
1683009857775399700,20.261399658203125,1.3473999500274658,-0.14299999177455902,9.712499618530273
1683009857795399700,20.281399658203124,1.3592000007629395,-0.1378999948501587,9.710999488830566
1683009857815399700,20.301399658203124,1.3513000011444092,-0.17189998924732208,9.71150016784668
1683009857835399700,20.321399658203124,1.3221999406814575,-0.2352999895811081,9.714200019836426
1683009857855399700,20.341399658203127,1.2954999208450317,-0.28859999775886536,9.716400146484375
1683009857875399700,20.361399658203126,1.278499960899353,-0.3228999972343445,9.717499732971191
1683009857895399700,20.381399658203126,1.2640999555587769,-0.3498999774456024,9.718500137329102
1683009857915399700,20.401399658203125,1.26010000705719,-0.3633999824523926,9.718500137329102
1683009857935401200,20.421401123046873,1.2494999170303345,-0.34880000352859497,9.720399856567383
1683009857955399700,20.441399658203125,1.2305999994277954,-0.31439998745918274,9.723999977111816
1683009857975399700,20.461399658203124,1.2178000211715698,-0.2676999866962433,9.726999282836914
1683009857995399700,20.481399658203124,1.211899995803833,-0.2126999944448471,9.729100227355957
1683009858015399700,20.501399658203123,1.2146999835968018,-0.147599995136261,9.729999542236328
1683009858035399700,20.521399658203126,1.2245999574661255,-0.08619999885559082,9.729499816894531
1683009858055399700,20.541399658203126,1.2384999990463257,-0.047599997371435165,9.727999687194824
1683009858075399700,20.561399658203126,1.249400019645691,-0.0421999990940094,9.72659969329834
1683009858095399700,20.581399658203125,1.2458999156951904,-0.06749999523162842,9.726900100708008
1683009858115399700,20.601399658203125,1.2244999408721924,-0.10759999603033066,9.729199409484863
1683009858135399700,20.621399658203124,1.2020000219345093,-0.15079998970031738,9.731499671936035
1683009858155399700,20.641399658203124,1.1852999925613403,-0.1906999945640564,9.732799530029297
1683009858175399700,20.661399658203123,1.1721999645233154,-0.22219999134540558,9.733799934387207
1683009858195399700,20.681399658203127,1.1578999757766724,-0.2386000007390976,9.735099792480469
1683009858215399700,20.701399658203126,1.1434999704360962,-0.2313999980688095,9.736899375915527
1683009858235399700,20.721399658203126,1.136299967765808,-0.18949998915195465,9.738699913024902
1683009858255399700,20.741399658203125,1.1460999250411987,-0.1136000007390976,9.738699913024902
1683009858275402800,20.76140283203125,1.178399920463562,-0.020600000396370888,9.735499382019043
1683009858295399700,20.781399658203124,1.2228999137878418,0.07509999722242355,9.7298002243042
1683009858315399700,20.801399658203124,1.2628999948501587,0.16279999911785126,9.723599433898926
1683009858335399700,20.821399658203124,1.2860000133514404,0.234499990940094,9.719099998474121
1683009858355399700,20.841399658203127,1.2773000001907349,0.2906999886035919,9.71869945526123
1683009858375399700,20.861399658203126,1.2465999126434326,0.32510000467300415,9.721599578857422
1683009858395399700,20.881399658203126,1.2206000089645386,0.32889997959136963,9.724800109863281
1683009858415399700,20.901399658203125,1.2150999307632446,0.30949997901916504,9.726099967956543
1683009858435399700,20.921399658203125,1.230199933052063,0.2646999955177307,9.725500106811523
1683009858455399700,20.941399658203125,1.244499921798706,0.1981000006198883,9.725299835205078
1683009858475399700,20.961399658203124,1.2365999221801758,0.12639999389648438,9.727499961853027
1683009858495399700,20.981399658203124,1.2145999670028687,0.060099996626377106,9.730899810791016
1683009858515401200,21.001401123046875,1.2001999616622925,-0.002099999925121665,9.73289966583252
1683009858535399700,21.021399658203126,1.1935999393463135,-0.04479999840259552,9.733599662780762
1683009858555399700,21.041399658203126,1.1893999576568604,-0.05900000035762787,9.734000205993652
1683009858575401200,21.061401123046874,1.1958999633789062,-0.05549999698996544,9.73330020904541
1683009858595399700,21.081399658203125,1.2002999782562256,-0.055799998342990875,9.732699394226074
1683009858615399700,21.101399658203125,1.2139999866485596,-0.06700000166893005,9.730899810791016
1683009858635401200,21.121401123046876,1.25,-0.06319999694824219,9.726399421691895
1683009858655401200,21.141401123046876,1.3025000095367432,-0.03240000084042549,9.71969985961914
1683009858675399700,21.161399658203123,1.358299970626831,0.006399999838322401,9.7121000289917
1683009858695399700,21.181399658203127,1.4146000146865845,0.027499999850988388,9.703999519348145
1683009858715401200,21.201401123046875,1.4542999267578125,0.029399998486042023,9.698100090026855
1683009858735399700,21.221399658203126,1.4682999849319458,0.01640000008046627,9.696000099182129
1683009858755399700,21.241399658203125,1.4656000137329102,-0.003999999724328518,9.696499824523926
1683009858775399700,21.261399658203125,1.4608999490737915,-0.026999998837709427,9.697099685668945
1683009858795399700,21.281399658203124,1.4578999280929565,-0.05089999735355377,9.697500228881836
1683009858815399700,21.301399658203124,1.4541999101638794,-0.07419999688863754,9.69789981842041
1683009858835399700,21.321399658203124,1.4443999528884888,-0.09789999574422836,9.699199676513672
1683009858855399700,21.341399658203127,1.4275999069213867,-0.12189999967813492,9.701399803161621
1683009858875399700,21.361399658203126,1.4068999290466309,-0.15189999341964722,9.703999519348145
1683009858895399700,21.381399658203126,1.3858000040054321,-0.19099999964237213,9.706299781799316
1683009858915399700,21.401399658203125,1.3703999519348145,-0.2321999967098236,9.707599639892578
1683009858935401200,21.421401123046873,1.3614000082015991,-0.27649998664855957,9.7076997756958
1683009858955399700,21.441399658203125,1.3598999977111816,-0.31630000472068787,9.70669937133789
1683009858975399700,21.461399658203124,1.361799955368042,-0.35109999775886536,9.7052001953125
1683009858995399700,21.481399658203124,1.3716999292373657,-0.37629997730255127,9.702899932861328
1683009859015399700,21.501399658203123,1.3887999057769775,-0.3928000032901764,9.699799537658691
1683009859035399700,21.521399658203126,1.406999945640564,-0.4090999960899353,9.696499824523926
1683009859055399700,21.541399658203126,1.4168000221252441,-0.43140000104904175,9.694099426269531
1683009859075401200,21.561401123046874,1.4143999814987183,-0.4587000012397766,9.69320011138916
1683009859095399700,21.581399658203125,1.4017000198364258,-0.48179998993873596,9.693900108337402
1683009859115399700,21.601399658203125,1.3971999883651733,-0.4927999973297119,9.693999290466309
1683009859135401200,21.621401123046876,1.410099983215332,-0.47939997911453247,9.69279956817627
1683009859155401200,21.641401123046876,1.426800012588501,-0.43789997696876526,9.692399978637695
1683009859175399700,21.661399658203123,1.4383000135421753,-0.38749998807907104,9.69279956817627
1683009859195399700,21.681399658203127,1.4536999464035034,-0.35189998149871826,9.691899299621582
1683009859215401200,21.701401123046875,1.4649999141693115,-0.33249998092651367,9.690899848937988
1683009859235399700,21.721399658203126,1.4635999202728271,-0.3163999915122986,9.69159984588623
1683009859255399700,21.741399658203125,1.4466999769210815,-0.296999990940094,9.69469928741455
1683009859275399700,21.761399658203125,1.4333000183105469,-0.28129997849464417,9.697199821472168
1683009859295399700,21.781399658203124,1.4241999387741089,-0.2703000009059906,9.69890022277832
1683009859315399700,21.801399658203124,1.4108999967575073,-0.24809999763965607,9.701399803161621
1683009859335399700,21.821399658203124,1.3768999576568604,-0.20409999787807465,9.707300186157227
1683009859355399700,21.841399658203127,1.3442000150680542,-0.15489999949932098,9.712800025939941
1683009859375399700,21.861399658203126,1.3588999509811401,-0.11629999428987503,9.711299896240234
1683009859395399700,21.881399658203126,1.4052000045776367,-0.07169999927282333,9.705100059509277
1683009859415399700,21.901399658203125,1.4478999376296997,-0.01860000006854534,9.69909954071045
1683009859435401200,21.921401123046873,1.4872000217437744,0.023399999365210533,9.693099975585938
1683009859455399700,21.941399658203125,1.5074999332427979,0.03150000050663948,9.6899995803833
1683009859475399700,21.961399658203124,1.4946999549865723,-0.010099999606609344,9.691999435424805
1683009859495401200,21.981401123046876,1.4534000158309937,-0.08139999955892563,9.69789981842041
1683009859515399700,22.001399658203123,1.4013999700546265,-0.15049999952316284,9.70479965209961
1683009859535399700,22.021399658203126,1.362299919128418,-0.20799998939037323,9.70930004119873
1683009859555399700,22.041399658203126,1.3500999212265015,-0.24889999628067017,9.710000038146973
1683009859575401200,22.061401123046874,1.3557000160217285,-0.26829999685287476,9.708700180053711
1683009859595399700,22.081399658203125,1.3641999959945679,-0.2692999839782715,9.707499504089355
1683009859615399700,22.101399658203125,1.368399977684021,-0.26159998774528503,9.707099914550781
1683009859635399700,22.121399658203124,1.3608999252319336,-0.24789999425411224,9.708499908447266
1683009859655401200,22.141401123046876,1.3523999452590942,-0.22989998757839203,9.710199356079102
1683009859675399700,22.161399658203123,1.34089994430542,-0.20909999310970306,9.712200164794922
1683009859695399700,22.181399658203127,1.3259999752044678,-0.19499999284744263,9.714599609375
1683009859715401200,22.201401123046875,1.3138999938964844,-0.1898999959230423,9.716300010681152
1683009859735399700,22.221399658203126,1.3026999235153198,-0.181099995970726,9.717999458312988
1683009859755399700,22.241399658203125,1.2975000143051147,-0.17289999127388,9.718799591064453
1683009859775399700,22.261399658203125,1.3013999462127686,-0.17329999804496765,9.718299865722656
1683009859795399700,22.281399658203124,1.3162000179290771,-0.18050000071525574,9.71619987487793
1683009859815399700,22.301399658203124,1.3305000066757202,-0.19349999725818634,9.71399974822998
1683009859835399700,22.321399658203124,1.3316999673843384,-0.20919999480247498,9.713500022888184
1683009859855399700,22.341399658203127,1.315500020980835,-0.23009999096393585,9.71519947052002
1683009859875399700,22.361399658203126,1.2903000116348267,-0.2599000036716461,9.717899322509766
1683009859895399700,22.381399658203126,1.2742999792099,-0.29899999499320984,9.718799591064453
1683009859915399700,22.401399658203125,1.2896000146865845,-0.33069998025894165,9.715799331665039
1683009859935399700,22.421399658203125,1.3457999229431152,-0.3312999904155731,9.708199501037598
1683009859955399700,22.441399658203125,1.3966000080108643,-0.2985999882221222,9.70199966430664
1683009859975399700,22.461399658203124,1.4120999574661255,-0.2830999791622162,9.700300216674805
1683009859995399700,22.481399658203124,1.4132000207901,-0.29659998416900635,9.699699401855469
1683009860015399700,22.501399658203123,1.4161999225616455,-0.29420000314712524,9.699299812316895
1683009860035399700,22.521399658203126,1.4371999502182007,-0.2700999975204468,9.6968994140625
1683009860055399700,22.541399658203126,1.4845999479293823,-0.24560000002384186,9.690499305725098
1683009860075399700,22.561399658203126,1.5216000080108643,-0.23819999396800995,9.68489933013916
1683009860095399700,22.581399658203125,1.5368999242782593,-0.25049999356269836,9.682199478149414
1683009860115399700,22.601399658203125,1.5246999263763428,-0.27059999108314514,9.683599472045898
1683009860135399700,22.621399658203124,1.5002999305725098,-0.2897000014781952,9.686800003051758
1683009860155399700,22.641399658203124,1.4825999736785889,-0.3052999973297119,9.689099311828613
1683009860175399700,22.661399658203123,1.4650999307632446,-0.31360000371932983,9.691499710083008
1683009860195399700,22.681399658203127,1.4383000135421753,-0.31839999556541443,9.695300102233887
1683009860215399700,22.701399658203126,1.3952000141143799,-0.3255999982357025,9.701399803161621
1683009860235399700,22.721399658203126,1.3424999713897705,-0.3392999768257141,9.70829963684082
1683009860255399700,22.741399658203125,1.2976999282836914,-0.35819998383522034,9.713699340820312
1683009860275399700,22.761399658203125,1.272499918937683,-0.37610000371932983,9.716400146484375
1683009860295399700,22.781399658203124,1.2709999084472656,-0.39169999957084656,9.715999603271484
1683009860315399700,22.801399658203124,1.2848999500274658,-0.4080999791622162,9.713500022888184
1683009860335399700,22.821399658203124,1.2925999164581299,-0.4375,9.711199760437012
1683009860355399700,22.841399658203127,1.2877999544143677,-0.48089998960494995,9.709799766540527
1683009860375399700,22.861399658203126,1.2846999168395996,-0.5292999744415283,9.7076997756958
1683009860395399700,22.881399658203126,1.2932000160217285,-0.5699999928474426,9.70419979095459
1683009860415399700,22.901399658203125,1.3112000226974487,-0.5988999605178833,9.70009994506836
1683009860435399700,22.921399658203125,1.3407999277114868,-0.6198999881744385,9.69469928741455
1683009860455399700,22.941399658203125,1.392300009727478,-0.6295999884605408,9.686800003051758
1683009860475399700,22.961399658203124,1.4621999263763428,-0.6195999979972839,9.677199363708496
1683009860495399700,22.981399658203124,1.5378999710083008,-0.5877999663352966,9.667399406433105
1683009860515399700,23.001399658203123,1.6031999588012695,-0.5432999730110168,9.65939998626709
1683009860535399700,23.021399658203126,1.647499918937683,-0.5060999989509583,9.653999328613281
1683009860555399700,23.041399658203126,1.6729999780654907,-0.5015000104904175,9.649799346923828
1683009860575399700,23.061399658203126,1.6769999265670776,-0.5256999731063843,9.647799491882324
1683009860595399700,23.081399658203125,1.6669999361038208,-0.5573999881744385,9.647799491882324
1683009860615399700,23.101399658203125,1.657599925994873,-0.5810999870300293,9.64799976348877
1683009860635399700,23.121399658203124,1.6543999910354614,-0.6029999852180481,9.647199630737305
1683009860655399700,23.141399658203124,1.645799994468689,-0.628600001335144,9.64699935913086
1683009860675399700,23.161399658203123,1.621899962425232,-0.6516000032424927,9.6496000289917
1683009860695399700,23.181399658203127,1.5829999446868896,-0.6487999558448792,9.65619945526123
1683009860715399700,23.201399658203126,1.5477999448776245,-0.6254000067710876,9.66349983215332
1683009860735399700,23.221399658203126,1.5468000173568726,-0.5936999917030334,9.665599822998047
1683009860755399700,23.241399658203125,1.5713999271392822,-0.5519999861717224,9.66409969329834
1683009860775399700,23.261399658203125,1.5972999334335327,-0.5087999701499939,9.662199974060059
1683009860795399700,23.281399658203124,1.6013000011444092,-0.4869999885559082,9.662699699401855
1683009860815399700,23.301399658203124,1.5698000192642212,-0.49779999256134033,9.6673002243042
1683009860835399700,23.321399658203124,1.51829993724823,-0.5288000106811523,9.67389965057373
1683009860855399700,23.341399658203127,1.479599952697754,-0.5500999689102173,9.678699493408203
1683009860875399700,23.361399658203126,1.4692999124526978,-0.552299976348877,9.68019962310791
1683009860895399700,23.381399658203126,1.4816999435424805,-0.536300003528595,9.679200172424316
1683009860915399700,23.401399658203125,1.500499963760376,-0.5133999586105347,9.677499771118164
1683009860935399700,23.421399658203125,1.4975999593734741,-0.4943999946117401,9.678999900817871
1683009860955399700,23.441399658203125,1.4742999076843262,-0.49149999022483826,9.682700157165527
1683009860975399700,23.461399658203124,1.439099907875061,-0.5090999603271484,9.68709945678711
1683009860995399700,23.481399658203124,1.4057999849319458,-0.5394999980926514,9.690299987792969
1683009861015399700,23.501399658203123,1.3680999279022217,-0.574400007724762,9.693699836730957
1683009861035399700,23.521399658203126,1.308899998664856,-0.6233999729156494,9.698800086975098
1683009861055399700,23.541399658203126,1.2408000230789185,-0.7013999819755554,9.702400207519531
1683009861075399700,23.561399658203126,1.1800999641418457,-0.7949999570846558,9.702799797058105
1683009861095399700,23.581399658203125,1.1369999647140503,-0.8910999894142151,9.699600219726562
1683009861115399700,23.601399658203125,1.1047999858856201,-0.9752999544143677,9.695199966430664
1683009861135399700,23.621399658203124,1.0917999744415283,-1.0406999588012695,9.689899444580078
1683009861155399700,23.641399658203124,1.0928000211715698,-1.0776000022888184,9.685799598693848
1683009861175399700,23.661399658203123,1.0835000276565552,-1.0889999866485596,9.685500144958496
1683009861195399700,23.681399658203127,1.0506999492645264,-1.0973999500274658,9.688199996948242
1683009861215399700,23.701399658203126,1.0032999515533447,-1.1238999366760254,9.690199851989746
1683009861235399700,23.721399658203126,0.9441999793052673,-1.173200011253357,9.690299987792969
1683009861255399700,23.741399658203125,0.9005999565124512,-1.2359999418258667,9.686599731445312
1683009861275399700,23.761399658203125,0.8878999948501587,-1.2840999364852905,9.681499481201172
1683009861295399700,23.781399658203124,0.8740999698638916,-1.2989000082015991,9.68079948425293
1683009861315399700,23.801399658203124,0.8276000022888184,-1.2984999418258667,9.68489933013916
1683009861335399700,23.821399658203124,0.7603999972343445,-1.2900999784469604,9.69159984588623
1683009861355399700,23.841399658203127,0.6997999548912048,-1.2537000179290771,9.700900077819824
1683009861375399700,23.861399658203126,0.6804999709129333,-1.1683999300003052,9.712900161743164
1683009861395399700,23.881399658203126,0.710099995136261,-1.039099931716919,9.725500106811523
1683009861415399700,23.901399658203125,0.7594000101089478,-0.9055999517440796,9.735099792480469
1683009861435399700,23.921399658203125,0.7986999750137329,-0.7818999886512756,9.74269962310791
1683009861455399700,23.941399658203125,0.8051999807357788,-0.687999963760376,9.749199867248535
1683009861475399700,23.961399658203124,0.7840999960899353,-0.6162999868392944,9.75570011138916
1683009861495399700,23.981399658203124,0.7657999992370605,-0.5561999678611755,9.760799407958984
1683009861515399700,24.001399658203123,0.7568999528884888,-0.5072000026702881,9.764200210571289
1683009861535399700,24.021399658203126,0.7466999888420105,-0.4715999960899353,9.76669979095459
1683009861555399700,24.041399658203126,0.7328999638557434,-0.44579997658729553,9.769000053405762
1683009861575399700,24.061399658203126,0.7150999903678894,-0.4235999882221222,9.771299362182617
1683009861595399700,24.081399658203125,0.6998999714851379,-0.40129998326301575,9.773399353027344
1683009861615399700,24.101399658203125,0.6929999589920044,-0.3752000033855438,9.77489948272705
1683009861635399700,24.121399658203124,0.6926999688148499,-0.34379997849464417,9.776100158691406
1683009861655401200,24.141401123046876,0.6949999928474426,-0.321399986743927,9.776700019836426
1683009861675399700,24.161399658203123,0.6970999836921692,-0.310699999332428,9.776899337768555
1683009861695399700,24.181399658203127,0.6966999769210815,-0.3100999891757965,9.776899337768555
1683009861715401200,24.201401123046875,0.7109000086784363,-0.3287999927997589,9.775300025939941
1683009861735399700,24.221399658203126,0.7402999997138977,-0.36239999532699585,9.771900177001953
1683009861755399700,24.241399658203125,0.7691999673843384,-0.4050999879837036,9.767999649047852
1683009861775399700,24.261399658203125,0.7914999723434448,-0.4603999853134155,9.763799667358398
1683009861795399700,24.281399658203124,0.808899998664856,-0.5242999792098999,9.759099960327148
1683009861815399700,24.301399658203124,0.8220999836921692,-0.5810999870300293,9.754799842834473
1683009861835399700,24.321399658203124,0.8411999940872192,-0.6244999766349792,9.750499725341797
1683009861855401200,24.341401123046875,0.8784999847412109,-0.6527000069618225,9.745299339294434
1683009861875401200,24.361401123046875,0.9322999715805054,-0.6675999760627747,9.739299774169922
1683009861895399700,24.381399658203126,0.9878999590873718,-0.6675999760627747,9.733799934387207
1683009861915399700,24.401399658203125,1.0406999588012695,-0.652999997138977,9.729299545288086
1683009861935401200,24.421401123046873,1.0942000150680542,-0.6349999904632568,9.724599838256836
1683009861955399700,24.441399658203125,1.1450999975204468,-0.6270999908447266,9.71929931640625
1683009861975399700,24.461399658203124,1.1869999170303345,-0.6401000022888184,9.713399887084961
1683009861995399700,24.481399658203124,1.2188999652862549,-0.6717000007629395,9.707300186157227
1683009862015401200,24.501401123046875,1.2411999702453613,-0.6949999928474426,9.702899932861328
1683009862035399700,24.521399658203126,1.2455999851226807,-0.6967999935150146,9.702199935913086
1683009862055399700,24.541399658203126,1.2396999597549438,-0.6829000115394592,9.703899383544922
1683009862075401200,24.561401123046874,1.2166999578475952,-0.6553999781608582,9.708700180053711
1683009862095399700,24.581399658203125,1.1830999851226807,-0.6107999682426453,9.715799331665039
1683009862115399700,24.601399658203125,1.160599946975708,-0.5414999723434448,9.722599983215332
1683009862135399700,24.621399658203124,1.166700005531311,-0.45319998264312744,9.726399421691895
1683009862155401200,24.641401123046876,1.1974999904632568,-0.36399999260902405,9.726399421691895
1683009862175399700,24.661399658203123,1.233799934387207,-0.28189998865127563,9.724599838256836
1683009862195399700,24.681399658203127,1.2649999856948853,-0.20979999005794525,9.722399711608887
1683009862215399700,24.701399658203126,1.2757999897003174,-0.15309999883174896,9.722000122070312
1683009862235399700,24.721399658203126,1.2699999809265137,-0.12209999561309814,9.723199844360352
1683009862255399700,24.741399658203125,1.2529000043869019,-0.11559999734163284,9.725500106811523
1683009862275399700,24.761399658203125,1.2348999977111816,-0.12770000100135803,9.727699279785156
1683009862295399700,24.781399658203124,1.2222999334335327,-0.15029999613761902,9.729000091552734
1683009862315399700,24.801399658203124,1.2141000032424927,-0.16920000314712524,9.729700088500977
1683009862335399700,24.821399658203124,1.2063000202178955,-0.18079999089241028,9.730400085449219
1683009862355399700,24.841399658203127,1.1942999362945557,-0.1946999877691269,9.731599807739258
1683009862375399700,24.861399658203126,1.1812999248504639,-0.21599999070167542,9.732799530029297
1683009862395399700,24.881399658203126,1.1697999238967896,-0.2457999885082245,9.733499526977539
1683009862415399700,24.901399658203125,1.1581000089645386,-0.28049999475479126,9.73390007019043
1683009862435401200,24.921401123046873,1.153499960899353,-0.31599998474121094,9.733399391174316
1683009862455399700,24.941399658203125,1.1582000255584717,-0.351500004529953,9.731599807739258
1683009862475399700,24.961399658203124,1.1618000268936157,-0.3905999958515167,9.729700088500977
1683009862495399700,24.981399658203124,1.1574000120162964,-0.43459999561309814,9.728400230407715
1683009862515401200,25.001401123046875,1.1413999795913696,-0.4854999780654907,9.727799415588379
1683009862535399700,25.021399658203126,1.118399977684021,-0.5399999618530273,9.72760009765625
1683009862555399700,25.041399658203126,1.090499997138977,-0.5816999673843384,9.728400230407715
1683009862575401200,25.061401123046874,1.0673999786376953,-0.6092999577522278,9.729299545288086
1683009862595399700,25.081399658203125,1.0537999868392944,-0.6234999895095825,9.729899406433105
1683009862615399700,25.101399658203125,1.038599967956543,-0.6241999864578247,9.731399536132812
1683009862635399700,25.121399658203124,1.006500005722046,-0.6139000058174133,9.735499382019043
1683009862655399700,25.141399658203124,0.9567999839782715,-0.6031999588012695,9.74109935760498
1683009862675402800,25.16140283203125,0.8988999724388123,-0.5902000069618225,9.747499465942383
1683009862695402800,25.18140283203125,0.8366999626159668,-0.576200008392334,9.753799438476562
1683009862715401200,25.201401123046875,0.7918999791145325,-0.5691999793052673,9.757999420166016
