time,seconds_elapsed,z,y,x,,z,y,x,,t,z,y,x
1.68301E+18,0.041399658,-0.559899986,0.706999958,0.409799993,,1.824999928,0.4991,9.622300148,,1,1.265099943,1.206099957,10.03210014
1.68301E+18,0.061405762,-0.559899986,0.706999958,0.409799993,,1.824999928,0.4991,9.622300148,,2,1.265099943,1.206099957,10.03210014
1.68301E+18,0.081399658,0.0112,-0.0043,0.056899998,,1.900999904,-0.731099963,9.59280014,,3,1.912199903,-0.735399963,9.649700139
1.68301E+18,0.101399658,-0.180500001,-0.151799992,0.0537,,1.876999974,-0.75029999,9.595999718,,4,1.696499974,-0.902099982,9.649699718
1.68301E+18,0.121399658,0.324000001,0.190499991,0.134299994,,1.892199993,-0.739600003,9.593799591,,5,2.216199994,-0.549100012,9.728099585
1.68301E+18,0.141399658,0.423299998,0.1998,0.071699999,,1.930199981,-0.719500005,9.587800026,,6,2.353499979,-0.519700006,9.659500025
1.68301E+18,0.161399658,0.033399999,-0.110699996,0.444099993,,1.92779994,-0.722799957,9.587999344,,7,1.961199939,-0.833499953,10.03209934
1.68301E+18,0.181399658,-0.262400001,-0.190899998,0.499899983,,1.90989995,-0.730799973,9.590999603,,8,1.647499949,-0.921699971,10.09089959
1.68301E+18,0.201399658,-0.35679999,0.0206,0.324499995,,1.8671,-0.726700008,9.599699974,,9,1.51030001,-0.706100008,9.924199969
1.68301E+18,0.221399658,-0.097599998,0.314799994,0.388199985,,1.852999926,-0.6972,9.604700089,,10,1.755399927,-0.382400006,9.992900074
1.68301E+18,0.241399658,0.086799994,0.300999999,0.333199978,,1.815599918,-0.712899983,9.610599518,,11,1.902399912,-0.411899984,9.943799496
1.68301E+18,0.261401123,-0.123099998,0.204599991,-0.024,,1.750999928,-0.528299987,9.63449955,,12,1.62789993,-0.323699996,9.61049955
1.68301E+18,0.281399658,-0.100599997,0.204099998,-0.239299998,,1.728599906,-0.419799984,9.643899918,,13,1.627999909,-0.215699986,9.40459992
1.68301E+18,0.301399658,0.237199992,0.303200006,-0.341999978,,1.723999977,-0.322799981,9.648499489,,14,1.961199969,-0.019599974,9.306499511
1.68301E+18,0.321399658,0.224999994,0.444999993,-0.188999996,,1.716599941,-0.229299992,9.652500153,,15,1.941599935,0.215700001,9.463500157
1.68301E+18,0.341399658,0.068899997,0.114399999,0.217599988,,1.696200013,-0.153699994,9.657599449,,16,1.76510001,-0.039299995,9.875199437
1.68301E+18,0.361399658,-0.270799994,0.015299999,0.532700002,,1.653499961,-0.034899998,9.666099548,,17,1.382699966,-0.019599999,10.19879955
1.68301E+18,0.381399658,-0.578299999,0.016799999,0.209600002,,1.598199964,0.032099999,9.67539978,,18,1.019899964,0.048899999,9.884999782
1.68301E+18,0.401401123,-0.675199986,0.412900001,0.031099999,,1.518599987,0.145899996,9.687199593,,19,0.843400002,0.558799997,9.718299592
1.68301E+18,0.421402832,-0.18249999,0.418499976,0.350099981,,1.476999998,0.238399997,9.691800117,,20,1.294500008,0.656899974,10.0419001
1.68301E+18,0.441399658,0.396200001,0.290499985,1.099799991,,1.42779994,0.307599992,9.697199821,,21,1.823999941,0.598099977,10.79699981
1.68301E+18,0.461399658,0.654199958,0.884199977,1.252799988,,1.385499954,0.370999992,9.701099396,,22,2.039699912,1.255199969,10.95389938
1.68301E+18,0.481399658,0.827199996,0.124199994,0.784799993,,1.388999939,0.424899995,9.698399544,,23,2.216199934,0.549099989,10.48319954
1.68301E+18,0.501399658,0.782099962,0.028299998,0.420399994,,1.424299955,0.491399974,9.690199852,,24,2.206399918,0.519699972,10.11059985
1.68301E+18,0.521399658,0.83829999,0.144199997,-0.175399989,,1.475999951,0.57159996,9.677999496,,25,2.314299941,0.715799958,9.502599508
1.68301E+18,0.541401123,0.346499979,0.029899999,-0.0185,,1.51669991,0.626999974,9.668299675,,26,1.86319989,0.656899974,9.649799675
1.68301E+18,0.561399658,-0.0126,0.16399999,-0.304899991,,1.55219996,0.65959996,9.660499573,,27,1.53959996,0.823599949,9.355599582
1.68301E+18,0.581399658,-0.080200002,0.279300004,-0.953499973,,1.590399981,0.691500008,9.651999474,,28,1.510199979,0.970800012,8.698499501
1.68301E+18,0.601399658,-0.293599993,0.192999989,-0.889799953,,1.60769999,0.718999982,9.647199631,,29,1.314099997,0.911999971,8.757399678
1.68301E+18,0.621401123,-0.484099984,0.062699996,-0.821199954,,1.602100015,0.73149997,9.647099495,,30,1.118000031,0.794199966,8.825899541
1.68301E+18,0.641399658,-0.536300004,0.215399995,-0.754199982,,1.585699916,0.745599985,9.648799896,,31,1.049399912,0.960999981,8.894599915
1.68301E+18,0.661399658,-0.636399984,0.197300002,-0.583000004,,1.558300018,0.734200001,9.654099464,,32,0.921900034,0.931500003,9.07109946
1.68301E+18,0.681399658,-0.640199959,0.274399996,-0.513700008,,1.522799969,0.686499953,9.663299561,,33,0.882600009,0.960899949,9.149599552
1.68301E+18,0.701399658,-0.507600009,-0.228999987,-0.272100002,,1.468699932,0.611499965,9.676699638,,34,0.961099923,0.382499978,9.404599637
1.68301E+18,0.721399658,0.079499997,-0.520900011,0.244899988,,1.420899987,0.520900011,9.689099312,,35,1.500399984,0,9.9339993
1.68301E+18,0.741399658,0.759199977,-0.638799965,0.917199969,,1.417699933,0.442699999,9.693499565,,36,2.17689991,-0.196099967,10.61069953
1.68301E+18,0.761401123,-0.0123,0.149299994,0.212899998,,1.424499989,0.458599985,9.691699982,,37,1.412199989,0.607899979,9.90459998
1.68301E+18,0.781399658,-0.378899992,0.292699993,-1.595399976,,1.428200006,0.560299993,9.685799599,,38,1.049300015,0.852999985,8.090399623
1.68301E+18,0.801399658,-0.379500002,0.255699992,-1.608699918,,1.438599944,0.636599958,9.679599762,,39,1.059099942,0.89229995,8.070899844
1.68301E+18,0.821399658,0.055,-0.267800003,-1.14139998,,1.474799991,0.650200009,9.673199654,,40,1.52979999,0.382400006,8.531799674
1.68301E+18,0.841399658,0.459999979,-0.136899993,-1.084599972,,1.530599952,0.636999965,9.665399551,,41,1.99059993,0.500099972,8.58079958
1.68301E+18,0.861399658,0.131599993,-0.077699997,-1.510699987,,1.564799905,0.636699975,9.659999847,,42,1.696399897,0.558999978,8.14929986
1.68301E+18,0.881399658,-0.290399998,-0.050099999,-1.834100008,,1.565199971,0.638499975,9.659799576,,43,1.274799973,0.588399976,7.825699568
1.68301E+18,0.901399658,-1.089399934,0.0363,-1.955599904,,1.540499926,0.640199959,9.663599968,,44,0.451099992,0.676499959,7.708000064
1.68301E+18,0.921399658,-1.070500016,-0.051899999,-2.193099976,,1.531399965,0.630499959,9.665699959,,45,0.460899949,0.57859996,7.472599983
1.68301E+18,0.941399658,-0.921599984,-0.078299999,-1.975600004,,1.559000015,0.588199973,9.663999557,,46,0.637400031,0.509899974,7.688399553
1.68301E+18,0.961399658,-0.337300003,0.102699995,-1.552099943,,1.592499971,0.52489996,9.662199974,,47,1.255199969,0.627599955,8.110100031
1.68301E+18,0.981399658,-0.431799978,0.0704,-1.218199968,,1.618399978,0.449299991,9.661699295,,48,1.1866,0.519699991,8.443499327
1.68301E+18,1.001399658,-0.214900002,0.189300001,-0.757099986,,1.636899948,0.379399985,9.661600113,,49,1.421999946,0.568699986,8.904500127
1.68301E+18,1.021399658,-0.164399996,0.400700003,-0.550099969,,1.654999971,0.324900001,9.660499573,,50,1.490599975,0.725600004,9.110399604
1.68301E+18,1.041399658,-0.2667,0.477399975,-0.0014,,1.659199953,0.287400007,9.660900116,,51,1.392499954,0.764799982,9.659500116
1.68301E+18,1.061399658,-0.306299984,0.343499988,-0.2289,,1.649799943,0.274199992,9.662899971,,52,1.343499959,0.617699981,9.433999971
1.68301E+18,1.081399658,-0.0112,0.053999998,0.045599997,,1.648899913,0.279399991,9.662899971,,53,1.637699913,0.333399989,9.708499968
1.68301E+18,1.101399658,0.487599999,-0.176799998,1.133899927,,1.650099993,0.265100002,9.663099289,,54,2.137699991,0.088300005,10.79699922
1.68301E+18,1.121399658,0.602599978,-0.345699996,2.217399836,,1.623399973,0.247599989,9.668099403,,55,2.225999951,-0.098100007,11.88549924
1.68301E+18,1.141399658,0.621199965,-0.515799999,3.119499922,,1.565599918,0.231399998,9.677999496,,56,2.186799884,-0.284400001,12.79749942
1.68301E+18,1.161399658,0.807899952,-0.579100013,3.668599844,,1.506399989,0.206499994,9.687999725,,57,2.314299941,-0.372600019,13.35659957
1.68301E+18,1.181399658,1.31099999,-0.693899989,3.546799898,,1.483799934,0.174199998,9.692099571,,58,2.794799924,-0.519699991,13.23889947
1.68301E+18,1.201399658,1.508299947,-0.923999965,2.949499846,,1.492399931,0.149299994,9.691199303,,59,3.000699878,-0.774699971,12.64069915
1.68301E+18,1.221399658,1.452999949,-1.168499947,2.388099909,,1.479099989,0.128999993,9.693599701,,60,2.932099938,-1.039499953,12.08169961
1.68301E+18,1.241399658,1.227499962,-1.263199925,2.148000002,,1.449599981,0.096199997,9.698399544,,61,2.677099943,-1.166999929,11.84639955
1.68301E+18,1.261399658,1.012799978,-0.894199967,2.172499895,,1.419199944,0.041099999,9.703299522,,62,2.431999922,-0.853099968,11.87579942
1.68301E+18,1.281399658,0.575599968,-0.57069999,2.199899912,,1.405300021,-0.0471,9.705299377,,63,1.98089999,-0.61779999,11.90519929
1.68301E+18,1.301399658,-0.192000002,-0.588999987,1.933499932,,1.388399959,-0.136600003,9.706899643,,64,1.196399957,-0.725599989,11.64039958
1.68301E+18,1.321399658,-0.620899975,-0.699099958,1.145599961,,1.356400013,-0.202999994,9.710199356,,65,0.735500038,-0.902099952,10.85579932
1.68301E+18,1.341399658,-0.709699988,-0.913100004,0.013499999,,1.317699909,-0.243999988,9.714599609,,66,0.607999921,-1.157099992,9.728099609
1.68301E+18,1.361399658,-0.505199969,-0.703799963,-0.796000004,,1.270099998,-0.27669999,9.720099449,,67,0.764900029,-0.980499953,8.924099445
1.68301E+18,1.381399658,-0.292999983,-0.411300004,-1.035699964,,1.224599957,-0.324099988,9.724399567,,68,0.931599975,-0.735399991,8.688699603
1.68301E+18,1.401399658,0.048799999,-0.104999997,-0.836199999,,1.157299995,-0.375399977,9.730799675,,69,1.206099994,-0.480399974,8.894599676
1.68301E+18,1.421399658,0.363499999,0.015299999,-0.570100009,,1.068099976,-0.417400002,9.739299774,,70,1.431599975,-0.402100003,9.169199765
1.68301E+18,1.441399658,0.462599993,-0.021499999,-0.864299953,,0.969099998,-0.429499984,9.749099731,,71,1.431699991,-0.450999983,8.884799778
1.68301E+18,1.461399658,0.545099974,-0.254399985,-1.235700011,,0.886599958,-0.412299991,9.757699966,,72,1.431699932,-0.666699976,8.521999955
1.68301E+18,1.481399658,0.77579999,-0.294400007,-1.183300018,,0.822600007,-0.39199999,9.764200211,,73,1.598399997,-0.686399996,8.580900192
1.68301E+18,1.501399658,0.932299972,-0.0361,-0.826299965,,0.754399955,-0.385499984,9.769899368,,74,1.686699927,-0.421599984,8.943599403
1.68301E+18,1.521399658,0.693099976,0.235399991,-0.478399992,,0.679699957,-0.39229998,9.775099754,,75,1.372799933,-0.156899989,9.296699762
1.68301E+18,1.541399658,0.320199996,0.477699995,-1.041599989,,0.611400008,-0.399299979,9.779399872,,76,0.931600004,0.078400016,8.737799883
1.68301E+18,1.561399658,0.13499999,0.53670001,-1.5625,,0.600399971,-0.389599979,9.780399323,,77,0.735399961,0.147100031,8.217899323
1.68301E+18,1.581399658,0.092099994,0.638700008,-1.622099996,,0.603999972,-0.364099979,9.781199455,,78,0.696099967,0.274600029,8.15909946
1.68301E+18,1.601399658,0.076899998,0.774199963,-1.288499951,,0.619199991,-0.342700005,9.781000137,,79,0.696099989,0.431499958,8.492500186
1.68301E+18,1.621399658,-0.068899997,0.728299975,-1.149600029,,0.657299995,-0.316399992,9.779399872,,80,0.588399999,0.411899984,8.629799843
1.68301E+18,1.641399658,0.077399999,0.467099994,-1.235000014,,0.716799974,-0.270999998,9.776599884,,81,0.794199973,0.196099997,8.54159987
1.68301E+18,1.661399658,0.384299994,0.190799996,-0.702499986,,0.772799969,-0.220199987,9.773599625,,82,1.157099962,-0.029399991,9.071099639
1.68301E+18,1.681399658,0.704599977,0.071499996,-0.0232,,0.815299988,-0.179299995,9.770999908,,83,1.519899964,-0.107799999,9.747799909
1.68301E+18,1.701399658,0.781199992,0.034699999,0.733199954,,0.836799979,-0.152400002,9.769599915,,84,1.617999971,-0.117700003,10.50279987
1.68301E+18,1.721399658,0.574299991,0.065399997,0.82129997,,0.837799966,-0.13409999,9.769800186,,85,1.412099957,-0.068699993,10.59110016
1.68301E+18,1.741399658,0.420399994,0.217399999,0.115499996,,0.844599962,-0.109499998,9.769499779,,86,1.264999956,0.107900001,9.884999774
1.68301E+18,1.761399658,0.379399985,0.288599998,-0.18599999,,0.875699997,-0.082599998,9.76709938,,87,1.255099982,0.206,9.581099391
1.68301E+18,1.781399658,0.212699994,0.262899995,-0.45629999,,0.924799979,-0.047199998,9.762800217,,88,1.137499973,0.215699997,9.306500226
1.68301E+18,1.801399658,0.177599996,0.246699989,-0.314699978,,0.969699979,-0.011299999,9.758500099,,89,1.147299975,0.235399989,9.443800122
1.68301E+18,1.821399658,0.230399996,0.342700005,0.343799978,,0.985499978,0.02,9.756899834,,90,1.215899974,0.362700004,10.10069981
1.68301E+18,1.841399658,-0.0244,0.324699998,0.089999996,,0.995199978,0.057699997,9.755799294,,91,0.970799979,0.382399995,9.84579929
1.68301E+18,1.861399658,-0.150399998,0.1118,0.005,,1.023199916,0.1039,9.75249958,,92,0.872799918,0.215700001,9.75749958
1.68301E+18,1.881399658,0.195199996,-0.243499994,0.979299963,,1.050099969,0.145400003,9.749099731,,93,1.245299965,-0.098099992,10.72839969
1.68301E+18,1.901399658,0.600199997,-0.724299967,2.011199951,,1.066799998,0.175099999,9.746799469,,94,1.666999996,-0.549199969,11.75799942
1.68301E+18,1.921399658,0.718100011,-0.941100001,2.365700006,,1.076399922,0.195799991,9.745399475,,95,1.794499934,-0.74530001,12.11109948
1.68301E+18,1.941399658,0.462300003,-1.039399981,2.325899839,,1.067399979,0.215700001,9.745900154,,96,1.529699981,-0.823699981,12.07179999
1.68301E+18,1.961399658,-0.0524,-1.074699998,1.835399985,,1.0625,0.231299996,9.746099472,,97,1.0101,-0.843400002,11.58149946
1.68301E+18,1.981399658,-0.347199976,-1.114899993,1.454399943,,1.072899938,0.2421,9.744699478,,98,0.725699961,-0.872799993,11.19909942
1.68301E+18,2.001399658,-0.271299988,-1.00819993,1.495000005,,1.085199952,0.243199989,9.743299484,,99,0.813899964,-0.764999941,11.23829949
1.68301E+18,2.021399658,-0.497099996,-0.965299964,1.436100006,,1.085500002,0.239599988,9.74339962,,100,0.588400006,-0.725699976,11.17949963
1.68301E+18,2.041399658,-0.650200009,-1.06340003,1.532699943,,1.07190001,0.239599988,9.74489975,,101,0.421700001,-0.823800042,11.27759969
1.68301E+18,2.061399658,-0.402899981,-1.24119997,2.236399889,,1.050099969,0.240999997,9.747200012,,102,0.647199988,-1.000199974,11.9835999
1.68301E+18,2.081399658,-0.054299999,-1.152199984,2.518899918,,1.03489995,0.230299994,9.749099731,,103,0.980599951,-0.921899989,12.26799965
1.68301E+18,2.101399658,0.0392,-0.881099999,1.999300003,,1.039499998,0.21419999,9.748999596,,104,1.078699999,-0.666900009,11.7482996
1.68301E+18,2.121402832,-0.064099997,-0.669099987,0.638700008,,1.064399958,0.208099991,9.746399879,,105,1.00029996,-0.460999995,10.38509989
1.68301E+18,2.141399658,-0.077799998,-0.635299981,-0.483999997,,1.107499957,0.213699996,9.741499901,,106,1.029699959,-0.421599984,9.257499903
1.68301E+18,2.161399658,-0.126599997,-0.593199968,-1.32159996,,1.156299949,0.220599994,9.735699654,,107,1.029699951,-0.372599974,8.414099693
1.68301E+18,2.181399658,-0.276600003,-0.507699966,-1.219799995,,1.188599944,0.213499993,9.731999397,,108,0.911999941,-0.294199973,8.512199402
1.68301E+18,2.201399658,-0.371399999,-0.243399993,-0.738999963,,1.195199966,0.184499994,9.731699944,,109,0.823799968,-0.058899999,8.992699981
1.68301E+18,2.221399658,-0.412299991,-0.040999997,-0.309199989,,1.187099934,0.148900002,9.733300209,,110,0.774799943,0.107900005,9.42410022
1.68301E+18,2.241399658,-0.354000002,0.0328,0.266599983,,1.167999983,0.114199996,9.736100197,,111,0.813999981,0.146999996,10.00270018
1.68301E+18,2.261401123,-0.1875,0.125799999,0.225899994,,1.158299923,0.0898,9.737500191,,112,0.970799923,0.215599999,9.963400185
1.68301E+18,2.281399658,-0.021299999,0.068099998,-0.0757,,1.17839992,0.078899994,9.735199928,,113,1.157099921,0.146999992,9.659499928
1.68301E+18,2.301399658,0.185599998,0.0035,-0.502499998,,1.216699958,0.074900001,9.730500221,,114,1.402299955,0.078400001,9.228000224
1.68301E+18,2.321399658,0.324000001,0.024799999,-1.23179996,,1.264599919,0.082899995,9.724399567,,115,1.58859992,0.107699994,8.492599607
1.68301E+18,2.341399658,0.153499991,0.067199998,-1.657499909,,1.307600021,0.089599997,9.718599319,,116,1.461100012,0.156799994,8.06109941
1.68301E+18,2.361399658,-0.239999995,0.174099997,-1.996599913,,1.33829999,0.090599999,9.714399338,,117,1.098299995,0.264699996,7.717799425
1.68301E+18,2.381399658,-0.582099974,0.335099995,-2.111700058,,1.35679996,0.086499996,9.711899757,,118,0.774699986,0.421599992,7.600199699
1.68301E+18,2.401401123,-0.92869997,0.352499992,-2.091699839,,1.360199928,0.078899994,9.711500168,,119,0.431499958,0.431399986,7.619800329
1.68301E+18,2.421399658,-1.068099976,0.327800006,-1.983599901,,1.362299919,0.074199997,9.71119976,,120,0.294199944,0.402000003,7.727599859
1.68301E+18,2.441399658,-0.932500005,0.314799994,-1.435599923,,1.354200006,0.067499995,9.712399483,,121,0.421700001,0.382299989,8.27679956
1.68301E+18,2.461399658,-0.671299994,0.270399988,-0.399699986,,1.328299999,0.053099997,9.716099739,,122,0.657000005,0.323499985,9.316399753
1.68301E+18,2.481399658,-0.561399996,0.279199988,0.037099998,,1.296899915,0.034499999,9.720399857,,123,0.735499918,0.313699987,9.757499855
1.68301E+18,2.501399658,-0.640699983,0.259599984,-0.42749998,,1.268299937,0.024699999,9.724199295,,124,0.627599955,0.284299983,9.296699315
1.68301E+18,2.521399658,-0.537099957,0.27669999,-1.059599996,,1.233399987,0.027199998,9.728699684,,125,0.69630003,0.303899989,8.669099689
1.68301E+18,2.541399658,-0.341699988,0.29339999,-1.536299944,,1.184999943,0.030099999,9.734700203,,126,0.843299955,0.323499989,8.198400259
1.68301E+18,2.561399658,-0.226199999,0.448299974,-2.228399992,,1.138199925,0.032099999,9.740300179,,127,0.911999926,0.480399974,7.511900187
1.68301E+18,2.581399658,-0.126599997,0.471799999,-2.32130003,,1.097499967,0.037999999,9.74489975,,128,0.970899969,0.509799998,7.42359972
1.68301E+18,2.601399658,0.018099999,0.216199994,-1.442799926,,1.060500026,0.038699999,9.748999596,,129,1.078600025,0.254899994,8.30619967
1.68301E+18,2.621399658,-0.179700002,-0.1237,-0.151299998,,1.032899976,0.035399999,9.751999855,,130,0.853199974,-0.088300001,9.600699857
1.68301E+18,2.641399658,-0.340299994,-0.35589999,1.473799944,,1.007099986,0.022499999,9.754699707,,131,0.666799992,-0.333399991,11.22849965
1.68301E+18,2.661399658,-0.0744,-0.368999988,2.871999979,,0.966799974,-0.0035,9.758799553,,132,0.892399974,-0.372499988,12.63079953
1.68301E+18,2.681399658,0.435199976,-0.327499986,3.553900003,,0.918099999,-0.0352,9.763500214,,133,1.353299975,-0.362699986,13.31740022
1.68301E+18,2.701399658,0.894499958,-0.350400001,3.17869997,,0.890199959,-0.051599998,9.765999794,,134,1.784699917,-0.401999999,12.94469976
1.68301E+18,2.721399658,1.057799935,-0.700999975,2.767099857,,0.893700004,-0.044199999,9.765699387,,135,1.951499939,-0.745199975,12.53279924
1.68301E+18,2.741399658,1.101599932,-1.150699973,3.012699842,,0.898899972,-0.025999999,9.765299797,,136,2.000499904,-1.176699972,12.77799964
1.68301E+18,2.761399658,1.238399982,-1.593299985,3.825799942,,0.889499962,-0.0149,9.766200066,,137,2.127899945,-1.608199985,13.59200001
1.68301E+18,2.781399658,0.954299986,-1.45509994,4.67539978,,0.849999964,-0.015799999,9.76970005,,138,1.804299951,-1.47089994,14.44509983
1.68301E+18,2.801399658,0.429099977,-1.033900023,4.044199944,,0.806400001,-0.034899998,9.773300171,,139,1.235499978,-1.068800021,13.81750011
1.68301E+18,2.821399658,-0.0095,-0.707699955,2.208499908,,0.784199953,-0.037499998,9.775099754,,140,0.774699953,-0.745199952,11.98359966
1.68301E+18,2.841399658,0.051099997,-0.80369997,0.609799981,,0.782399952,-0.010199999,9.775300026,,141,0.833499949,-0.81389997,10.38510001
1.68301E+18,2.861399658,0.58739996,-0.980399966,-0.193199992,,0.795300007,0.029199999,9.774299622,,142,1.382699966,-0.951199967,9.581099629
1.68301E+18,2.881399658,0.957499981,-0.833599985,-0.221499994,,0.807599962,0.048999999,9.773200035,,143,1.765099943,-0.784599986,9.551700041
1.68301E+18,2.901399658,0.878799975,-0.294499993,-0.172499999,,0.807799995,0.0297,9.773200035,,144,1.68659997,-0.264799993,9.600700036
1.68301E+18,2.921399658,0.391099989,0.228199989,-0.41869998,,0.795399964,-0.012399999,9.774299622,,145,1.186499953,0.215799989,9.355599642
1.68301E+18,2.941399658,-0.024,0.519699991,-0.714100003,,0.779100001,-0.048899997,9.775499344,,146,0.755100001,0.470799994,9.061399341
1.68301E+18,2.961399658,-0.301200002,0.580799997,-0.823199987,,0.762099981,-0.070799999,9.77670002,,147,0.460899979,0.509999998,8.953500032
1.68301E+18,2.981399658,-0.348999977,0.624599993,-0.912199974,,0.751100004,-0.085199997,9.777400017,,148,0.402100027,0.539399996,8.865200043
1.68301E+18,3.001399658,-0.104199998,0.553799987,-0.736299992,,0.741699994,-0.092900001,9.778100014,,149,0.637499996,0.460899986,9.041800022
1.68301E+18,3.021399658,0.262699991,0.603299975,-0.884499967,,0.727599978,-0.0933,9.779099464,,150,0.99029997,0.509999976,8.894599497
1.68301E+18,3.041402832,0.488799989,0.674199998,-0.984099984,,0.707499981,-0.0858,9.78069973,,151,1.19629997,0.588399999,8.796599746
1.68301E+18,3.061399658,0.553200006,0.551699996,-0.985300004,,0.692099988,-0.071099997,9.781899452,,152,1.245299995,0.480599999,8.796599448
1.68301E+18,3.081399658,0.521299958,0.488799989,-0.956599951,,0.684799969,-0.047499999,9.782499313,,153,1.206099927,0.44129999,8.825899363
1.68301E+18,3.101399658,0.243299991,0.539299965,-0.868799984,,0.67839998,-0.0195,9.783100128,,154,0.921699971,0.519799965,8.914300144
1.68301E+18,3.121399658,-0.094799995,0.452099979,-0.761299968,,0.673399985,0.0087,9.783399582,,155,0.578599989,0.460799979,9.022099614
1.68301E+18,3.141399658,-0.248799995,0.282900006,-0.801299989,,0.660600007,0.050499998,9.784199715,,156,0.411800012,0.333400004,8.982899725
1.68301E+18,3.161399658,0.135399997,0.058599997,-0.72329998,,0.649100006,0.098200001,9.784599304,,157,0.784500003,0.156799998,9.061299324
1.68301E+18,3.181399658,0.568499982,-0.142399997,-0.722799957,,0.647399962,0.142399997,9.784199715,,158,1.215899944,0,9.061399758
1.68301E+18,3.201399658,0.944099963,-0.294999987,-0.72179997,,0.654299974,0.177299991,9.783100128,,159,1.598399937,-0.117699996,9.061300159
1.68301E+18,3.221402832,1.208400011,-0.2368,-0.789999962,,0.654799998,0.197599992,9.782699585,,160,1.863200009,-0.039200008,8.992699623
1.68301E+18,3.241402832,1.276600003,0.035099998,-0.574800014,,0.645399988,0.200199991,9.783299446,,161,1.921999991,0.23529999,9.208499432
1.68301E+18,3.261401123,0.853199959,0.165399998,-0.252000004,,0.637299955,0.1875,9.784099579,,162,1.490499914,0.352899998,9.532099575
1.68301E+18,3.281399658,0.515599966,0.201700002,-0.42839998,,0.641499996,0.180699989,9.783899307,,163,1.157099962,0.382399991,9.355499327
1.68301E+18,3.301399658,0.294799984,0.105399996,-0.769800007,,0.666199982,0.188699991,9.782099724,,164,0.960999966,0.294099987,9.012299716
1.68301E+18,3.321399658,0.1193,0.0722,-1.345499992,,0.704400003,0.202199996,9.7791996,,165,0.823700003,0.274399996,8.433699608
1.68301E+18,3.341399658,0.0425,0.027799999,-1.645599961,,0.751800001,0.217299998,9.775300026,,166,0.794300001,0.245099997,8.129700065
1.68301E+18,3.361399658,-0.016999999,-0.1752,-1.093699932,,0.781899989,0.233999997,9.772600174,,167,0.76489999,0.058799997,8.678900242
1.68301E+18,3.381399658,-0.0039,-0.346799999,-0.66049999,,0.798199952,0.248799995,9.770899773,,168,0.794299952,-0.098000005,9.110399783
1.68301E+18,3.401401123,0.131200001,-0.501100004,0.438899994,,0.810099959,0.255899996,9.76970005,,169,0.94129996,-0.245200008,10.20860004
1.68301E+18,3.421399658,0.413100004,-0.647199988,2.027499914,,0.812599957,0.245099992,9.769800186,,170,1.225699961,-0.402099997,11.7973001
1.68301E+18,3.441399658,0.456599981,-0.601899981,3.379099846,,0.798500001,0.21949999,9.77159977,,171,1.255099982,-0.382399991,13.15069962
1.68301E+18,3.461399658,0.051899999,-0.115399994,3.032899857,,0.771799982,0.184100002,9.774399757,,172,0.823699981,0.068700008,12.80729961
1.68301E+18,3.481399658,-0.552699983,0.0296,1.198499918,,0.768399954,0.166500002,9.774999619,,173,0.215699971,0.196100002,10.97349954
1.68301E+18,3.501399658,-0.385499984,-0.480999976,0.514699996,,0.797399998,0.186799988,9.772299767,,174,0.411900014,-0.294199988,10.28699976
1.68301E+18,3.521399658,0.32189998,-0.789900005,1.986699939,,0.805799961,0.201499999,9.771399498,,175,1.127699941,-0.588400006,11.75809944
1.68301E+18,3.541401123,0.308599979,-0.459399998,4.198699951,,0.760199964,0.165199995,9.775699615,,176,1.068799943,-0.294200003,13.97439957
1.68301E+18,3.561399658,-0.263999999,0.045599997,5.367799759,,0.666099966,0.101399995,9.783399582,,177,0.402099967,0.146999992,15.15119934
1.68301E+18,3.581399658,-0.709899962,0.485299975,3.930999994,,0.592199981,0.073600002,9.788399696,,178,-0.117699981,0.558899976,13.71939969
1.68301E+18,3.601399658,-0.365699977,0.252799988,1.666000009,,0.591300011,0.119799994,9.788000107,,179,0.225600034,0.372599982,11.45400012
1.68301E+18,3.621401123,0.35799998,-0.27759999,0.308099985,,0.65200001,0.199099988,9.782899857,,180,1.00999999,-0.078500003,10.09099984
1.68301E+18,3.641399658,0.747999966,-0.676599979,-0.381300002,,0.722899973,0.274499983,9.776100159,,181,1.47089994,-0.402099997,9.394800156
1.68301E+18,3.661399658,0.428299993,-0.655699968,-1.003999949,,0.768000007,0.322299987,9.77120018,,182,1.1963,-0.333399981,8.767200232
1.68301E+18,3.681399658,-0.208799988,-0.404199988,-1.121299982,,0.767799973,0.335599989,9.770699501,,183,0.558999985,-0.068599999,8.649399519
1.68301E+18,3.701401123,-0.424999982,-0.068499997,-1.114099979,,0.738799989,0.323399991,9.773399353,,184,0.313800007,0.254899994,8.659299374
1.68301E+18,3.721399658,-0.423500001,0.154399991,-1.096899986,,0.717700005,0.296599984,9.775799751,,185,0.294200003,0.450999975,8.678899765
1.68301E+18,3.741399658,-0.280299991,0.291099995,-1.097499967,,0.721599996,0.267800003,9.776299477,,186,0.441300005,0.558899999,8.67879951
1.68301E+18,3.761401123,-0.092799999,0.410899997,-0.969399989,,0.74000001,0.23619999,9.775799751,,187,0.647200011,0.647099987,8.806399763
1.68301E+18,3.781399658,-0.1171,0.479499996,-0.968999982,,0.754599988,0.206799999,9.775300026,,188,0.637499988,0.686299995,8.806300044
1.68301E+18,3.801399658,-0.31309998,0.42019999,-1.155699968,,0.754399955,0.187699988,9.775699615,,189,0.441299975,0.607899979,8.619999647
1.68301E+18,3.821399658,-0.351300001,0.22209999,-1.17629993,,0.743499994,0.179899991,9.77670002,,190,0.392199993,0.40199998,8.60040009
1.68301E+18,3.841399658,-0.204799995,0.102699995,-0.853499949,,0.734399974,0.171800002,9.777599335,,191,0.52959998,0.274499997,8.924099386
1.68301E+18,3.861399658,-0.247699991,0.142700002,-0.863199949,,0.737999976,0.161200002,9.777500153,,192,0.490299985,0.303900003,8.914300203
1.68301E+18,3.881399658,-0.368799984,0.225999996,-0.715299964,,0.751299977,0.146499991,9.77670002,,193,0.382499993,0.372499987,9.061400056
1.68301E+18,3.901401123,-0.726899981,0.237399995,-0.793599963,,0.756299973,0.135099992,9.776499748,,194,0.029399991,0.372499987,8.982899785
1.68301E+18,3.921399658,-0.983699977,0.255899996,-0.960099995,,0.75819999,0.136199996,9.776299477,,195,-0.225499988,0.392099991,8.816199481
1.68301E+18,3.941399658,-1.162799954,0.118999995,-1.077299953,,0.760699987,0.155499995,9.775799751,,196,-0.402099967,0.27449999,8.698499799
1.68301E+18,3.961399658,-1.010599971,0.098699994,-0.850999951,,0.765500009,0.175799996,9.775099754,,197,-0.245099962,0.27449999,8.924099803
1.68301E+18,3.981399658,-0.819899976,0.083999999,-0.663999975,,0.770899951,0.190499991,9.774399757,,198,-0.049000025,0.27449999,9.110399783
1.68301E+18,4.001399658,-0.641499996,0.075899996,-0.663800001,,0.768999994,0.208399996,9.774199486,,199,0.127499998,0.284299992,9.110399485
1.68301E+18,4.021399658,-0.479900002,0.0082,-0.928299963,,0.764299989,0.236899987,9.773900032,,200,0.284399986,0.245099987,8.845600069
1.68301E+18,4.041401123,-0.262600005,-0.0276,-1.427599907,,0.762699962,0.272699982,9.773099899,,201,0.500099957,0.245099982,8.345499992
1.68301E+18,4.061401123,0.0033,-0.0044,-2.111599922,,0.781099975,0.308499992,9.770599365,,202,0.784399975,0.304099992,7.658999443
1.68301E+18,4.081399658,0.104599997,-0.090799995,-2.636899948,,0.817099988,0.345699996,9.766399384,,203,0.921699986,0.254900001,7.129499435
1.68301E+18,4.101399658,0.064999998,-0.280499995,-2.465600014,,0.85679996,0.378600001,9.761799812,,204,0.921799958,0.098100007,7.296199799
1.68301E+18,4.121401123,0.21329999,-0.536599994,-0.796399951,,0.875099957,0.389499992,9.759699821,,205,1.088399947,-0.147100002,8.96329987
1.68301E+18,4.141399658,0.358099997,-0.800300002,1.662599921,,0.857899964,0.368900001,9.762000084,,206,1.215999961,-0.431400001,11.42460001
1.68301E+18,4.161399658,0.206199989,-0.909999967,4.070399761,,0.823399961,0.32159999,9.766699791,,207,1.02959995,-0.588399976,13.83709955
1.68301E+18,4.181399658,-0.462499976,-0.684599996,4.643699646,,0.776299953,0.272699982,9.771999359,,208,0.313799977,-0.411900014,14.41569901
1.68301E+18,4.201401123,-1.170799971,-0.466600001,3.257499933,,0.739299953,0.2509,9.775499344,,209,-0.431500018,-0.215700001,13.03299928
1.68301E+18,4.221399658,-0.948599994,-0.735499978,2.060199976,,0.723100007,0.264799982,9.776299477,,210,-0.225499988,-0.470699996,11.83649945
1.68301E+18,4.241399658,0.363399982,-1.139799953,1.954099894,,0.734799981,0.296399981,9.774499893,,211,1.098199964,-0.843399972,11.72859979
1.68301E+18,4.261401123,1.583899975,-1.274199963,2.72149992,,0.759799957,0.31309998,9.772099495,,212,2.343699932,-0.961099982,12.49359941
1.68301E+18,4.281399658,1.771399975,-1.061800003,3.388499975,,0.768399954,0.296900004,9.771900177,,213,2.539799929,-0.764899999,13.16040015
1.68301E+18,4.301399658,0.942399979,-0.736000001,3.571299791,,0.734399974,0.265300006,9.775499344,,214,1.676799953,-0.470699996,13.34679914
1.68301E+18,4.321399658,0.221000001,-0.444700003,2.850899935,,0.681100011,0.238799989,9.779999733,,215,0.902100012,-0.205900013,12.63089967
1.68301E+18,4.341399658,-0.243599996,-0.308799982,1.838199973,,0.645699978,0.230399996,9.782599449,,216,0.402099982,-0.078399986,11.62079942
1.68301E+18,4.361399658,-0.285099983,-0.232999995,1.122499943,,0.647899985,0.232999995,9.782400131,,217,0.362800002,0,10.90490007
1.68301E+18,4.381399658,-0.134900004,-0.20189999,0.858799994,,0.664399981,0.231299996,9.781299591,,218,0.529499978,0.029400006,10.64009959
1.68301E+18,4.401401123,0.064999998,-0.082499996,0.623600006,,0.670399964,0.219799995,9.781199455,,219,0.735399961,0.1373,10.40479946
1.68301E+18,4.421399658,0.341099977,0.118599996,0.250499994,,0.668899953,0.204899997,9.781599998,,220,1.009999931,0.323499992,10.03209999
1.68301E+18,4.441399658,0.544399977,0.344699979,-0.092900001,,0.671499968,0.184699997,9.781799316,,221,1.215899944,0.529399976,9.688899316
1.68301E+18,4.461399658,0.550700009,0.472899973,-0.533599973,,0.684799969,0.164399996,9.781299591,,222,1.235499978,0.63729997,9.247699618
1.68301E+18,4.481399658,0.424999982,0.403999984,-1.032599926,,0.702699959,0.154899999,9.780200005,,223,1.127699941,0.558899984,8.747600079
1.68301E+18,4.501399658,0.186299995,0.216199994,-1.286599994,,0.715799987,0.156399995,9.7791996,,224,0.902099982,0.372599989,8.492599607
1.68301E+18,4.521399658,0.051399998,0.1567,-1.354699969,,0.723199964,0.15699999,9.778599739,,225,0.774599962,0.313699991,8.42389977
1.68301E+18,4.541399658,0.059699997,0.192000002,-1.315500021,,0.724699974,0.151099995,9.778599739,,226,0.784399971,0.343099996,8.463099718
1.68301E+18,4.561399658,0.239500001,0.264499992,-1.27670002,,0.721499979,0.137400001,9.779099464,,227,0.960999981,0.401899993,8.502399445
1.68301E+18,4.581399658,0.444199979,0.355800003,-1.365800023,,0.712899983,0.124599993,9.779899597,,228,1.157099962,0.480399996,8.414099574
1.68301E+18,4.601399658,0.630100012,0.370399982,-1.631299973,,0.703499973,0.119799994,9.780599594,,229,1.333599985,0.490199976,8.149299622
1.68301E+18,4.621399658,0.729399979,0.438999981,-1.798099995,,0.702199996,0.119899996,9.78069973,,230,1.431599975,0.558899976,7.982599735
1.68301E+18,4.641399658,0.757399976,0.368099988,-1.65079999,,0.703700006,0.122099996,9.780599594,,231,1.461099982,0.490199983,8.129799604
1.68301E+18,4.661399658,0.604999959,0.442999989,-1.435400009,,0.699199975,0.125699997,9.780799866,,232,1.304199934,0.568699986,8.345399857
1.68301E+18,4.681402832,0.307999998,0.441299975,-1.210899949,,0.682399988,0.137199998,9.781899452,,233,0.990399987,0.578499973,8.570999503
1.68301E+18,4.701401123,0.149899989,0.412599981,-0.888199985,,0.663899958,0.15609999,9.782899857,,234,0.813799948,0.568699971,8.894699872
1.68301E+18,4.721399658,0.108499996,0.269699991,-0.545700014,,0.646499991,0.181299999,9.783599854,,235,0.754999988,0.45099999,9.23789984
1.68301E+18,4.741399658,0.363199979,0.081,-0.594699979,,0.636900008,0.213100001,9.783599854,,236,1.000099987,0.294100001,9.188899875
1.68301E+18,4.761401123,0.651600003,-0.255400002,-1.211799979,,0.632999957,0.255400002,9.782799721,,237,1.28459996,0,8.570999742
1.68301E+18,4.781399658,0.88409996,-0.610399961,-1.956099987,,0.626100004,0.306400001,9.781799316,,238,1.510199964,-0.30399996,7.825699329
1.68301E+18,4.801402832,1.085999966,-0.749899983,-2.366899967,,0.620299995,0.347799987,9.780799866,,239,1.706299961,-0.402099997,7.413899899
1.68301E+18,4.821401123,0.817499995,-0.646600008,-2.111799955,,0.614199996,0.362199992,9.780599594,,240,1.431699991,-0.284400016,7.668799639
1.68301E+18,4.841399658,0.253499985,-0.425499976,-1.318400025,,0.609399974,0.347000003,9.781499863,,241,0.862899959,-0.078499973,8.463099837
1.68301E+18,4.861401123,-0.044199999,-0.256300002,0.170099989,,0.593400002,0.315200001,9.783599854,,242,0.549200002,0.058899999,9.953699842
1.68301E+18,4.881399658,0.119499996,-0.128999993,1.657999992,,0.566900015,0.27609998,9.786299706,,243,0.686400011,0.147099987,11.4442997
1.68301E+18,4.901401123,0.214399993,-0.168599993,2.744199991,,0.540600002,0.246999994,9.788599968,,244,0.754999995,0.078400001,12.53279996
1.68301E+18,4.921399658,0.518000007,-0.22299999,3.586199999,,0.521399975,0.232799992,9.789999962,,245,1.039399981,0.009800002,13.37619996
1.68301E+18,4.941399658,0.755899966,-0.3046,3.880599976,,0.528599977,0.226199999,9.789699554,,246,1.284499943,-0.078400001,13.67029953
1.68301E+18,4.961399658,0.665899992,-0.252999991,3.333899975,,0.569599986,0.2333,9.78730011,,247,1.235499978,-0.019699991,13.12120008
1.68301E+18,4.981402832,0.405999988,-0.394099981,2.621899843,,0.623600006,0.256799996,9.783399582,,248,1.029599994,-0.137299985,12.40529943
1.68301E+18,5.001399658,0.185299993,-0.639999986,2.507999897,,0.667699993,0.287,9.779600143,,249,0.852999985,-0.352999985,12.28760004
1.68301E+18,5.021399658,-0.0836,-0.619399965,2.67689991,,0.691699982,0.305599988,9.777400017,,250,0.608099982,-0.313799977,12.45429993
1.68301E+18,5.041399658,-0.357600003,-0.522000015,2.961999893,,0.700899959,0.306199998,9.77670002,,251,0.343299955,-0.215800017,12.73869991
1.68301E+18,5.061401123,-0.581200004,-0.308099985,3.119199991,,0.708700001,0.298299998,9.776399612,,252,0.127499998,-0.009799987,12.8955996
1.68301E+18,5.081399658,-0.75059998,-0.067699999,2.511999846,,0.721199989,0.293199986,9.77559948,,253,-0.029399991,0.225499988,12.28759933
1.68301E+18,5.101399658,-1.050899982,0.0027,1.043200016,,0.746899962,0.301200002,9.773499489,,254,-0.30400002,0.303900002,10.8166995
1.68301E+18,5.121399658,-1.116899967,-0.254900008,-0.296299994,,0.783399999,0.333299994,9.769599915,,255,-0.333499968,0.078399986,9.473299921
1.68301E+18,5.141399658,-0.937599957,-0.601799965,-1.115499973,,0.819899976,0.376299977,9.76499939,,256,-0.117699981,-0.225499988,8.649499416
1.68301E+18,5.161399658,-0.69659996,-0.634299994,-1.249499917,,0.843699992,0.408699989,9.761699677,,257,0.147100031,-0.225600004,8.512199759
1.68301E+18,5.181399658,-0.496999979,-0.407799989,-0.877200007,,0.840200007,0.407799989,9.762000084,,258,0.343200028,0,8.884800076
1.68301E+18,5.201399658,-0.543799996,-0.0058,-0.409500003,,0.818399966,0.378399998,9.765099525,,259,0.274599969,0.372599998,9.355599523
1.68301E+18,5.221399658,-0.629499972,0.199999988,-0.158600003,,0.786399961,0.339299977,9.769100189,,260,0.156899989,0.539299965,9.610500187
1.68301E+18,5.241399658,-0.35679999,0.421799988,-0.044299997,,0.758899987,0.303799987,9.772500038,,261,0.402099997,0.725599974,9.728200041
1.68301E+18,5.261399658,-0.1105,0.516200006,0.041499998,,0.738099992,0.277999997,9.774799347,,262,0.627599992,0.794200003,9.816299345
1.68301E+18,5.281399658,0.042099997,0.52759999,-0.204999998,,0.722799957,0.266599983,9.776299477,,263,0.764899954,0.794199973,9.571299478
1.68301E+18,5.301399658,0.098200001,0.313600004,-0.548500001,,0.715699971,0.274699986,9.776599884,,264,0.813899972,0.58829999,9.228099883
1.68301E+18,5.321399658,-0.0414,0.100499995,-0.841799974,,0.718100011,0.301400006,9.77559948,,265,0.676700011,0.401900001,8.933799505
1.68301E+18,5.341399658,-0.321399987,0.0317,-1.320199966,,0.733299971,0.331,9.773499489,,266,0.411899984,0.3627,8.453299522
1.68301E+18,5.361399658,-0.598800004,0.103099994,-1.807099938,,0.765500009,0.35769999,9.77009964,,267,0.166700006,0.460799985,7.962999701
1.68301E+18,5.381399658,-0.970599949,0.0066,-2.214900017,,0.803900003,0.385600001,9.765999794,,268,-0.166699946,0.392200001,7.551099777
1.68301E+18,5.401399658,-0.85619998,-0.068700001,-2.689399958,,0.85619998,0.421799988,9.760000229,,269,0,0.353099987,7.070600271
1.68301E+18,5.421399658,-0.446199983,-0.098999999,-2.53550005,,0.916899979,0.452099979,9.753199577,,270,0.470699996,0.353099979,7.217699528
1.68301E+18,5.441399658,-0.274199992,-0.066399999,-1.776799917,,0.950800002,0.458700001,9.749599457,,271,0.676600009,0.392300002,7.97279954
1.68301E+18,5.461399658,-0.3116,-0.035499997,-1.032199979,,0.949099958,0.447299987,9.750299454,,272,0.637499958,0.41179999,8.718099475
1.68301E+18,5.481399658,-0.13939999,0.040399998,-0.495099992,,0.933699965,0.430199981,9.752599716,,273,0.794299975,0.470599979,9.257499725
1.68301E+18,5.501399658,0.060799997,0.1241,0.041299999,,0.90989995,0.415099978,9.75549984,,274,0.970699947,0.539199978,9.796799839
1.68301E+18,5.521399658,0.290299982,0.294699997,0.116999999,,0.886399984,0.4014,9.758199692,,275,1.176699966,0.696099997,9.87519969
1.68301E+18,5.541399658,0.406499982,0.428199977,-0.362599999,,0.897699952,0.395500004,9.757399559,,276,1.304199934,0.823699981,9.39479956
1.68301E+18,5.561399658,0.294,0.400999993,-1.103099942,,0.941499949,0.412799984,9.752599716,,277,1.235499948,0.813799977,8.649499774
1.68301E+18,5.581399658,0.0041,0.118599996,-1.73239994,,1.005900025,0.450099975,9.74450016,,278,1.010000025,0.568699971,8.01210022
1.68301E+18,5.601399658,-0.381799996,-0.341899991,-1.890100002,,1.068300009,0.49879998,9.735499382,,279,0.686500013,0.156899989,7.84539938
1.68301E+18,5.621399658,-0.533999979,-0.680099964,-0.961499989,,1.112599969,0.532999992,9.728699684,,280,0.578599989,-0.147099972,8.767199695
1.68301E+18,5.641399658,-0.425899982,-0.591600001,0.951199949,,1.122200012,0.523000002,9.728099823,,281,0.69630003,-0.068599999,10.67929977
1.68301E+18,5.661399658,-0.296999991,-0.250400007,2.848399878,,1.101199985,0.466099977,9.733399391,,282,0.804199994,0.215699971,12.58179927
1.68301E+18,5.681399658,-0.193700001,0.095399998,3.832999945,,1.076300025,0.394799978,9.73939991,,283,0.882600024,0.490199976,13.57239985
1.68301E+18,5.701399658,-0.217599988,0.474099994,3.52519989,,1.06099999,0.339699984,9.743100166,,284,0.843400002,0.813799977,13.26830006
1.68301E+18,5.721399658,-0.247699991,0.156000003,2.818699837,,1.061699986,0.324399978,9.743599892,,285,0.813999996,0.480399981,12.56229973
1.68301E+18,5.741399658,0.1061,-0.547599971,3.456899881,,1.06069994,0.351399988,9.742699623,,286,1.16679994,-0.196199983,13.1995995
1.68301E+18,5.761399658,0.260499984,-0.548999965,3.769699812,,1.04369998,0.372500002,9.743800163,,287,1.304199964,-0.176499963,13.51349998
1.68301E+18,5.781399658,-0.159400001,-0.401299983,2.886600018,,1.032199979,0.391499996,9.744299889,,288,0.872799978,-0.009799987,12.63089991
1.68301E+18,5.801399658,-0.131999999,-0.588,2.25880003,,1.014599919,0.431099981,9.744400024,,289,0.88259992,-0.156900018,12.00320005
1.68301E+18,5.821399658,0.385899991,-0.995700002,2.013900042,,0.996699989,0.475999981,9.744199753,,290,1.38259998,-0.519700021,11.75809979
1.68301E+18,5.841399658,0.979399979,-1.171199918,1.73089993,,0.991599977,0.514199972,9.742799759,,291,1.970999956,-0.656999946,11.47369969
1.68301E+18,5.861399658,1.357199907,-0.993699968,1.545499921,,0.996299982,0.523000002,9.741799355,,292,2.353499889,-0.470699966,11.28729928
1.68301E+18,5.881399658,1.349499941,-0.60769999,0.907700002,,1.003999949,0.499899983,9.742300034,,293,2.353499889,-0.107800007,10.65000004
1.68301E+18,5.901399658,0.923199952,-0.298999995,0.131699994,,1.008599997,0.465700001,9.743499756,,294,1.931799948,0.166700006,9.87519975
1.68301E+18,5.921399658,1.218199968,0.070799999,-0.712700009,,1.01759994,0.419399977,9.744599342,,295,2.235799909,0.490199976,9.031899333
1.68301E+18,5.941399658,0.443099976,-0.030399999,-0.265899986,,1.008100033,0.334399998,9.74889946,,296,1.451200008,0.304,9.482999474
1.68301E+18,5.961399658,-0.0116,0.351799995,-0.54519999,,0.982499957,0.265899986,9.753600121,,297,0.970899957,0.617699981,9.20840013
1.68301E+18,5.981399658,-0.235100001,0.638599992,-0.677999973,,0.941199958,0.214499995,9.758999825,,298,0.706099957,0.853099987,9.080999851
1.68301E+18,6.001399658,-0.297499985,0.661199987,-0.43719998,,0.905499995,0.162399992,9.763400078,,299,0.60800001,0.823599979,9.326200098
1.68301E+18,6.021399658,-0.483799994,0.740199983,-0.753399968,,0.885800004,0.122699998,9.765699387,,300,0.40200001,0.862899981,9.012299418
1.68301E+18,6.041399658,-0.265100002,0.744099975,-1.154999971,,0.892699957,0.108999997,9.765299797,,301,0.627599955,0.853099972,8.610299826
1.68301E+18,6.061399658,0.101999998,0.494599998,-1.280099988,,0.91779995,0.113299996,9.762899399,,302,1.019799948,0.607899994,8.482799411
1.68301E+18,6.081399658,0.186799988,0.312299997,-1.581599951,,0.940799952,0.138699993,9.760399818,,303,1.12759994,0.45099999,8.178799868
1.68301E+18,6.101399658,0.078699999,0.23179999,-1.727299929,,0.950899959,0.17019999,9.758899689,,304,1.029599957,0.40199998,8.03159976
1.68301E+18,6.121399658,-0.16489999,0.0087,-1.48269999,,0.939699948,0.197099999,9.75949955,,305,0.774799958,0.205799999,8.27679956
1.68301E+18,6.141399658,-0.150600001,0.116099998,-1.561800003,,0.925300002,0.226999998,9.760199547,,306,0.774700001,0.343099996,8.198399544
1.68301E+18,6.161399658,-0.044099998,0.096000001,-1.248099923,,0.916899979,0.256899983,9.760299683,,307,0.872799981,0.352899984,8.512199759
1.68301E+18,6.181399658,-0.0044,0.126100004,-1.012899995,,0.906599998,0.285699993,9.760399818,,308,0.902199998,0.411799997,8.747499824
1.68301E+18,6.201399658,0.027099999,0.21329999,-1.091499925,,0.894599974,0.316199988,9.76060009,,309,0.921699973,0.529499978,8.669100165
1.68301E+18,6.221399658,-0.017099999,0.208199993,-1.36619997,,0.880099952,0.350699991,9.760700226,,310,0.862999953,0.558899984,8.394500256
1.68301E+18,6.241399658,0.177900001,0.167099997,-1.532199979,,0.871299982,0.391799986,9.759900093,,311,1.049199983,0.558899984,8.227700114
1.68301E+18,6.261399658,0.418099999,0.166099995,-1.589699984,,0.866400003,0.431999981,9.758699417,,312,1.284500003,0.598099977,8.168999434
1.68301E+18,6.281399658,0.504799962,0.131400004,-1.509599924,,0.867999971,0.466699988,9.756899834,,313,1.372799933,0.598099992,8.24729991
1.68301E+18,6.301399658,0.43719998,0.216099992,-1.478599906,,0.866999984,0.49969998,9.755399704,,314,1.304199964,0.715799972,8.276799798
1.68301E+18,6.321399658,0.357899994,0.215199992,-1.193400025,,0.858099997,0.529999971,9.754599571,,315,1.215999991,0.745199963,8.561199546
1.68301E+18,6.341399658,0.351300001,0.095799997,-0.516099989,,0.844999969,0.561199963,9.75399971,,316,1.19629997,0.656999961,9.237899721
1.68301E+18,6.361399658,0.342799991,-0.094099998,0.229299992,,0.824099958,0.594299972,9.753799438,,317,1.166899949,0.500199974,9.983099431
1.68301E+18,6.381399658,0.296000004,-0.341800004,1.120199919,,0.782599986,0.626199961,9.755199432,,318,1.078599989,0.284399956,10.87539935
1.68301E+18,6.401399658,0.359999985,-0.609499991,2.274699926,,0.728399992,0.648699999,9.75799942,,319,1.088399976,0.039200008,12.03269935
1.68301E+18,6.421399658,0.526899993,-0.648099959,3.458400011,,0.689099967,0.648099959,9.760899544,,320,1.215999961,0,13.21929955
1.68301E+18,6.441399658,0.292299986,-0.279300004,3.809000015,,0.67839998,0.622500002,9.763299942,,321,0.970699966,0.343199998,13.57229996
1.68301E+18,6.461399658,0.108399995,0.038599998,3.132099867,,0.695599973,0.598699987,9.763500214,,322,0.803999968,0.637299985,12.89560008
1.68301E+18,6.481399658,0.174999997,-0.129199997,2.859899998,,0.727099955,0.599900007,9.761199951,,323,0.902099952,0.470700011,12.62109995
1.68301E+18,6.501399658,0.332299978,-0.197999999,3.156100035,,0.746299982,0.609899998,9.75909996,,324,1.07859996,0.411899999,12.9152
1.68301E+18,6.521399658,-0.037499998,-0.171399996,3.37259984,,0.753399968,0.612699986,9.758399963,,325,0.71589997,0.44129999,13.1309998
1.68301E+18,6.541399658,-0.656199992,-0.111099996,3.1868999,,0.754299998,0.620999992,9.757800102,,326,0.098100007,0.509899996,12.9447
1.68301E+18,6.561399658,-0.98299998,-0.031199999,2.003099918,,0.76730001,0.648999989,9.755000114,,327,-0.215699971,0.61779999,11.75810003
1.68301E+18,6.581399658,-0.946999967,-0.290299982,1.264099956,,0.799899995,0.702199996,9.748700142,,328,-0.147099972,0.411900014,11.0128001
1.68301E+18,6.601402832,-0.529599965,-0.583400011,0.4287,,0.843499959,0.759899974,9.740699768,,329,0.313899994,0.176499963,10.16939977
1.68301E+18,6.621399658,-0.287499994,-0.802999973,-0.406499982,,0.885699987,0.81279999,9.732600212,,330,0.598199993,0.009800017,9.32610023
1.68301E+18,6.641399658,-0.100699998,-0.814799964,-0.773799956,,0.914699972,0.844199955,9.72729969,,331,0.813999973,0.029399991,8.953499734
1.68301E+18,6.661399658,0.105299994,-0.583999991,-0.899999976,,0.924299955,0.848800004,9.725999832,,332,1.02959995,0.264800012,8.825999856
1.68301E+18,6.681399658,0.136600003,-0.48269999,-0.69629997,,0.912599981,0.835799992,9.728199959,,333,1.049199983,0.353100002,9.031899989
1.68301E+18,6.701401123,0.0436,-0.408799976,-0.475099981,,0.887899995,0.810799956,9.732600212,,334,0.931499995,0.40199998,9.257500231
1.68301E+18,6.721399658,-0.071499996,-0.267499983,-0.254299998,,0.86589998,0.777499974,9.737299919,,335,0.794399984,0.50999999,9.482999921
1.68301E+18,6.741399658,-0.249599993,-0.141900003,0.0059,,0.847799957,0.740099967,9.741799355,,336,0.598199964,0.598199964,9.747699354
1.68301E+18,6.761401123,-0.49089998,0.0154,-0.1347,,0.834100008,0.710200012,9.745200157,,337,0.343200028,0.725600012,9.610500157
1.68301E+18,6.781399658,-0.697299957,-0.0986,-0.371800005,,0.824799955,0.696799994,9.746999741,,338,0.127499998,0.598199993,9.375199735
1.68301E+18,6.801399658,-0.557699978,-0.32189998,-0.568300009,,0.82249999,0.694499969,9.747300148,,339,0.264800012,0.372599989,9.179000139
1.68301E+18,6.821399658,-0.232799992,-0.403099984,-0.930199981,,0.83099997,0.697299957,9.746399879,,340,0.598199978,0.294199973,8.816199899
1.68301E+18,6.841399658,-0.0836,-0.360899985,-1.203499913,,0.848499954,0.694299996,9.745100021,,341,0.764899954,0.333400011,8.541600108
1.68301E+18,6.861399658,-0.167599991,-0.261199981,-1.497200012,,0.863900006,0.682799995,9.744599342,,342,0.696300015,0.421600014,8.24739933
1.68301E+18,6.881399658,-0.405599982,-0.162399992,-1.870099902,,0.876299977,0.662499964,9.74489975,,343,0.470699996,0.500099972,7.874799848
1.68301E+18,6.901401123,-0.616699994,0.023499999,-2.11590004,,0.891299963,0.63349998,9.745399475,,344,0.274599969,0.656999979,7.629499435
1.68301E+18,6.921401123,-0.628600001,0.185199991,-1.921399951,,0.903199971,0.589399993,9.747099876,,345,0.274599969,0.774599984,7.825699925
1.68301E+18,6.941399658,-0.598699987,0.419200003,-1.905099988,,0.902700007,0.531899989,9.750499725,,346,0.30400002,0.951099992,7.845399737
1.68301E+18,6.961399658,-0.684300005,0.552899957,-2.222100019,,0.899999976,0.476699978,9.753600121,,347,0.215699971,1.029599935,7.531500101
1.68301E+18,6.981399658,-0.747799993,0.587000012,-2.067199945,,0.904699981,0.422899991,9.755599976,,348,0.156899989,1.009900004,7.68840003
1.68301E+18,7.001399658,-0.771299958,0.614899993,-1.451299906,,0.908599973,0.365699977,9.757599831,,349,0.137300014,0.98059997,8.306299925
1.68301E+18,7.021399658,-0.767399967,0.801199973,-0.659399986,,0.904699981,0.306799978,9.760000229,,350,0.137300014,1.107999951,9.100600243
1.68301E+18,7.041399658,-0.981899977,1.050699949,-0.220599994,,0.893599987,0.253499985,9.762499809,,351,-0.08829999,1.304199934,9.541899815
1.68301E+18,7.061399658,-1.118399978,1.198400021,-0.53609997,,0.882999957,0.223499998,9.764200211,,352,-0.235400021,1.421900019,9.22810024
1.68301E+18,7.081399658,-0.768700004,1.042400002,-1.534999967,,0.896200001,0.2324,9.762800217,,353,0.127499998,1.274800003,8.22780025
1.68301E+18,7.101399658,-0.138999999,0.562599957,-2.166100025,,0.952899992,0.270799994,9.756400108,,354,0.813899994,0.833399951,7.590300083
1.68301E+18,7.121399658,0.557999969,-0.050899997,-1.511699915,,1.010999918,0.315699995,9.749199867,,355,1.568999887,0.264799997,8.237499952
1.68301E+18,7.141399658,0.8477,-0.334999979,0.040899999,,1.035099983,0.334999979,9.746099472,,356,1.882799983,0,9.786999471
1.68301E+18,7.161399658,0.621599972,-0.396200001,1.911399961,,1.016000032,0.317799985,9.748600006,,357,1.637600005,-0.078400016,11.65999997
1.68301E+18,7.181399658,0.4102,-0.0515,3.336499929,,0.962599993,0.277099997,9.755299568,,358,1.372799993,0.225599997,13.0917995
1.68301E+18,7.201399658,0.238799989,0.230199993,3.908699989,,0.908499956,0.230599999,9.761699677,,359,1.147299945,0.460799992,13.67039967
1.68301E+18,7.221399658,0.369199991,0.2236,3.973899841,,0.876100004,0.207800001,9.765199661,,360,1.245299995,0.431400001,13.7390995
1.68301E+18,7.241399658,0.828599989,-0.0436,3.954399824,,0.877699971,0.210299999,9.76499939,,361,1.706299961,0.166699998,13.71939921
1.68301E+18,7.261399658,1.146000028,-0.36559999,4.14260006,,0.893700004,0.22829999,9.76309967,,362,2.039700031,-0.1373,13.90569973
1.68301E+18,7.281399658,0.994099975,-0.515399992,4.515399933,,0.888599992,0.25059998,9.762999535,,363,1.882699966,-0.264800012,14.27839947
1.68301E+18,7.301399658,0.489099979,-0.347599983,4.101799965,,0.864099979,0.269199997,9.764699936,,364,1.353199959,-0.078399986,13.8664999
1.68301E+18,7.321399658,-0.0359,-0.433299989,3.266899824,,0.839999974,0.296000004,9.76609993,,365,0.804099973,-0.137299985,13.03299975
1.68301E+18,7.341399658,0.0111,-0.746499956,1.963499904,,0.832099974,0.344500005,9.765199661,,366,0.843199974,-0.40199995,11.72869956
1.68301E+18,7.361399658,0.384499997,-1.375800014,0.762099981,,0.860799968,0.404899985,9.760299683,,367,1.245299965,-0.970900029,10.52239966
1.68301E+18,7.381399658,0.759299994,-1.756899953,-0.3583,,0.917499959,0.452600002,9.753099442,,368,1.676799953,-1.304299951,9.394799441
1.68301E+18,7.401399658,1.138599992,-1.656999946,-1.067799926,,0.979499996,0.460599989,9.746699333,,369,2.118099988,-1.196399957,8.678899407
1.68301E+18,7.421399658,1.176100016,-1.144099951,-0.704099953,,1.010599971,0.408600003,9.745800018,,370,2.186699986,-0.735499948,9.041700065
1.68301E+18,7.441399658,1.01789999,-0.611400008,0.210999995,,0.982499957,0.307399988,9.752399445,,371,2.000399947,-0.30400002,9.96339944
1.68301E+18,7.461399658,0.8028,0.0028,0.603500009,,0.913199961,0.193299994,9.76210022,,372,1.715999961,0.196099994,10.36560023
1.68301E+18,7.481399658,0.601700008,0.456399977,0.331499994,,0.849599957,0.092699997,9.769299507,,373,1.451299965,0.549099974,10.1007995
1.68301E+18,7.501399658,0.074999996,0.558399975,-0.063000001,,0.827099979,0.020099999,9.77159977,,374,0.902099974,0.578499975,9.708599769
1.68301E+18,7.521399658,-0.407299995,0.51819998,-0.56129998,,0.84859997,-0.027799999,9.769800186,,375,0.441299975,0.490399981,9.208500206
1.68301E+18,7.541399658,-0.713699996,0.498999983,-1.077199936,,0.890199959,-0.057699997,9.765899658,,376,0.176499963,0.441299986,8.688699722
1.68301E+18,7.561399658,-0.609899998,0.492899984,-1.397699952,,0.923699975,-0.071199998,9.762700081,,377,0.313799977,0.421699986,8.365000129
1.68301E+18,7.581399658,-0.365799993,0.429199994,-1.522199988,,0.95419997,-0.076200001,9.759799957,,378,0.588399976,0.352999993,8.237599969
1.68301E+18,7.601399658,-0.092,0.417499989,-1.831999898,,0.994299948,-0.074299999,9.755799294,,379,0.902299948,0.343199991,7.923799396
1.68301E+18,7.621399658,0.159099996,0.392399997,-2.023699999,,1.037199974,-0.068799995,9.751299858,,380,1.19629997,0.323600002,7.727599859
1.68301E+18,7.641399658,0.286500007,0.309799999,-2.17750001,,1.066799998,-0.0548,9.748199463,,381,1.353300005,0.254999999,7.570699453
1.68301E+18,7.661399658,0.3486,0.134399995,-2.078799963,,1.073300004,-0.036399998,9.747599602,,382,1.421900004,0.097999997,7.668799639
1.68301E+18,7.681399658,0.381699979,0.118699998,-1.727299929,,1.059800029,-0.0206,9.749099731,,383,1.441500008,0.098099997,8.021799803
1.68301E+18,7.701399658,0.319599986,0.157700002,-1.514400005,,1.033599973,-0.0106,9.751999855,,384,1.353199959,0.147100003,8.23759985
1.68301E+18,7.721399658,0.411899984,0.191,-1.409999967,,1.000100017,-0.0047,9.75549984,,385,1.412,0.1863,8.345499873
1.68301E+18,7.741399658,0.467899978,0.270999998,-1.541099906,,0.963799953,0.0035,9.75909996,,386,1.431699932,0.274499998,8.218000054
1.68301E+18,7.761399658,0.428199977,0.367399991,-1.73029995,,0.934799969,0.015,9.761899948,,387,1.362999946,0.38239999,8.031599998
1.68301E+18,7.781399658,0.404899985,0.3935,-1.849399924,,0.918899953,0.028099999,9.763400078,,388,1.323799938,0.421599999,7.914000154
1.68301E+18,7.801399658,0.49149999,0.494299978,-1.869799972,,0.91079998,0.044999998,9.764100075,,389,1.40229997,0.539299976,7.894300103
1.68301E+18,7.821399658,0.4199,0.642099977,-1.488699913,,0.894099951,0.063900001,9.765500069,,390,1.313999951,0.705999978,8.276800156
1.68301E+18,7.841399658,-0.28489998,0.731999993,-0.568699956,,0.873299956,0.081799999,9.767299652,,391,0.588399976,0.813799992,9.198599696
1.68301E+18,7.861399658,-0.828099966,0.272599995,0.597000003,,0.857499957,0.0999,9.768499374,,392,0.029399991,0.372499995,10.36549938
1.68301E+18,7.881399658,-0.4912,-0.197300002,1.360299945,,0.834499955,0.128700003,9.770199776,,393,0.343299955,-0.068599999,11.13049972
1.68301E+18,7.901399658,0.649399996,-0.541400015,2.485800028,,0.80189997,0.158899993,9.772500038,,394,1.451299965,-0.382500023,12.25830007
1.68301E+18,7.921399658,1.442999959,-0.583999991,3.464900017,,0.782999992,0.162299991,9.773900032,,395,2.225999951,-0.421700001,13.23880005
1.68301E+18,7.941399658,1.550099969,-0.389099985,3.474499941,,0.783800006,0.143899992,9.774199486,,396,2.333899975,-0.245199993,13.24869943
1.68301E+18,7.961399658,1.329399943,-0.226399988,2.730199814,,0.798599958,0.128399998,9.773200035,,397,2.127999902,-0.09799999,12.50339985
1.68301E+18,7.981399658,1.076599956,-0.379500002,1.742900014,,0.835599959,0.134299994,9.769999504,,398,1.912199914,-0.245200008,11.51289952
1.68301E+18,8.001399658,0.907099962,-0.678599954,2.168499947,,0.877599955,0.148999989,9.76609993,,399,1.784699917,-0.529599965,11.93459988
1.68301E+18,8.021399658,0.532499969,-0.782599986,3.356099844,,0.889299989,0.145199999,9.765099525,,400,1.421799958,-0.637399986,13.12119937
1.68301E+18,8.041399658,-0.084699996,-0.576900005,4.53069973,,0.869300008,0.115999997,9.767299652,,401,0.784600012,-0.460900009,14.29799938
1.68301E+18,8.061399658,-0.711699963,-0.290699989,4.871799946,,0.848999977,0.084799998,9.769399643,,402,0.137300014,-0.205899991,14.64119959
1.68301E+18,8.081399658,-1.080799937,-0.0451,3.735599995,,0.865099967,0.074599996,9.768099785,,403,-0.215699971,0.029499996,13.50369978
1.68301E+18,8.101399658,-1.205899954,0.039499998,1.731599927,,0.931299984,0.107499994,9.761699677,,404,-0.274599969,0.146999992,11.4932996
1.68301E+18,8.121399658,-1.098500013,-0.270700008,-0.120699994,,1.029899955,0.172600001,9.750800133,,405,-0.068600059,-0.098100007,9.630100138
1.68301E+18,8.141399658,-0.993999958,-0.546499968,-1.462199926,,1.121500015,0.252299994,9.738999367,,406,0.127500057,-0.294199973,8.27679944
1.68301E+18,8.161399658,-0.827099979,-0.724699974,-1.972899914,,1.180099964,0.322699994,9.729999542,,407,0.352999985,-0.40199998,7.757099628
1.68301E+18,8.181399658,-0.616699994,-0.609799981,-1.656099916,,1.195299983,0.354799986,9.726999283,,408,0.578599989,-0.254999995,8.070899367
1.68301E+18,8.201399658,-0.557500005,-0.422099978,-1.071399927,,1.165499926,0.353399992,9.730699539,,409,0.607999921,-0.068699986,8.659299612
1.68301E+18,8.221399658,-0.422499985,-0.288199991,-0.528299987,,1.118799925,0.337199986,9.736700058,,410,0.69629994,0.048999995,9.208400071
1.68301E+18,8.241399658,-0.033599999,-0.246599987,-0.073199995,,1.073099971,0.315299988,9.742599487,,411,1.039499972,0.068700001,9.669399492
1.68301E+18,8.261399658,0.360399991,-0.153599992,0.372599989,,1.031999946,0.290800005,9.747799873,,412,1.392399937,0.137200013,10.12039986
1.68301E+18,8.281399658,0.621699989,-0.0211,0.62409997,,1.006099939,0.266299993,9.751199722,,413,1.627799928,0.245199993,10.37529969
1.68301E+18,8.301399658,0.417799979,0.093399994,0.437099993,,1.003999949,0.249699995,9.751899719,,414,1.421799928,0.343099989,10.18899971
1.68301E+18,8.321399658,0.107899994,0.0744,-0.296599984,,1.019799948,0.2491,9.750199318,,415,1.127699941,0.3235,9.453599334
1.68301E+18,8.341399658,-0.140399992,-0.076899998,-0.960699975,,1.042699933,0.263199985,9.747499466,,416,0.902299941,0.186299987,8.78679949
1.68301E+18,8.361402832,-0.253499985,-0.171700001,-1.467499971,,1.067499995,0.279599994,9.744299889,,417,0.81400001,0.107899994,8.276799917
1.68301E+18,8.381399658,-0.485100001,-0.269899994,-1.895900011,,1.093099952,0.289499998,9.741199493,,418,0.607999951,0.019600004,7.845299482
1.68301E+18,8.401401123,-0.689999998,-0.197999999,-1.854599953,,1.111699939,0.286300004,9.739199638,,419,0.421699941,0.088300005,7.884599686
1.68301E+18,8.421399658,-0.877900004,0.024899999,-1.433499932,,1.113199949,0.25939998,9.7397995,,420,0.235299945,0.284299979,8.306299567
1.68301E+18,8.441399658,-0.892099977,0.370999992,-1.229200006,,1.107900023,0.217299998,9.741399765,,421,0.215800047,0.58829999,8.512199759
1.68301E+18,8.461399658,-0.854900002,0.568099976,-1.289799929,,1.100099921,0.177100003,9.743100166,,422,0.245199919,0.745199978,8.453300238
1.68301E+18,8.481399658,-0.70389998,0.658100009,-1.349599957,,1.096199989,0.145899996,9.743999481,,423,0.39230001,0.804000005,8.394399524
1.68301E+18,8.501399658,-0.586099982,0.699400008,-1.398899913,,1.096099973,0.124299996,9.744400024,,424,0.50999999,0.823700003,8.345500112
1.68301E+18,8.521399658,-0.482199997,0.727499962,-1.300599933,,1.100000024,0.105899997,9.744099617,,425,0.617800027,0.833399959,8.443499684
1.68301E+18,8.541399658,-0.384000003,0.885399997,-1.113399982,,1.109699965,0.085299999,9.743199348,,426,0.725699961,0.970699996,8.629799366
1.68301E+18,8.561399658,-0.206199989,0.989099979,-0.93599999,,1.118299961,0.069899999,9.742400169,,427,0.912099972,1.058999978,8.80640018
1.68301E+18,8.581399658,-0.043499999,0.964299977,-0.836399972,,1.131999969,0.065299995,9.740799904,,428,1.088499971,1.029599972,8.904399931
1.68301E+18,8.601399658,0.096199997,0.959099948,-0.940999985,,1.15899992,0.070500001,9.737599373,,429,1.255199917,1.02959995,8.796599388
1.68301E+18,8.621401123,0.035700001,0.772899985,-0.935899973,,1.199800014,0.089999996,9.732500076,,430,1.235500015,0.862899981,8.796600103
1.68301E+18,8.641402832,0.132200003,0.355199993,-0.615499973,,1.250499964,0.115399994,9.725899696,,431,1.382699966,0.470599987,9.110399723
1.68301E+18,8.661402832,0.233399987,0.148900002,0.154299989,,1.286499977,0.135399997,9.720899582,,432,1.519899964,0.284299999,9.875199571
1.68301E+18,8.681399658,0.264200002,0.066399999,1.379999995,,1.285099983,0.139499992,9.720999718,,433,1.549299985,0.205899991,11.10099971
1.68301E+18,8.701399658,-0.030999999,0.167199999,2.57130003,,1.246999979,0.126900002,9.726200104,,434,1.21599998,0.294100001,12.29750013
1.68301E+18,8.721399658,-0.68900001,0.317000002,2.967200041,,1.199000001,0.114399999,9.73239994,,435,0.50999999,0.431400001,12.69959998
1.68301E+18,8.741399658,-0.826599956,0.213,2.708699942,,1.169799924,0.120399997,9.735799789,,436,0.343199968,0.333399996,12.44449973
1.68301E+18,8.761401123,0.335599989,-0.301299989,3.246799946,,1.154899955,0.154200003,9.737099648,,437,1.490499943,-0.147099987,12.98389959
1.68301E+18,8.781399658,1.524799943,-0.514100015,4.527199745,,1.112999916,0.190499991,9.741399765,,438,2.637799859,-0.323600024,14.26859951
1.68301E+18,8.801399658,1.639400005,-0.268000007,4.656599998,,1.037699938,0.209199995,9.749300003,,439,2.677099943,-0.058800012,14.4059
1.68301E+18,8.821399658,1.061699986,-0.323300004,3.434999943,,0.977999985,0.234999999,9.754899979,,440,2.039699972,-0.088300005,13.18989992
1.68301E+18,8.841399658,0.687299967,-0.848999977,2.217000008,,0.940499961,0.299799979,9.756799698,,441,1.627799928,-0.549199998,11.97379971
1.68301E+18,8.861399658,0.867599964,-1.32069993,1.092100024,,0.936699986,0.389099985,9.75399971,,442,1.804299951,-0.931599945,10.84609973
1.68301E+18,8.881399658,1.004599929,-1.556899905,0.362899989,,0.966399968,0.468400002,9.747599602,,443,1.970999897,-1.088499904,10.11049959
1.68301E+18,8.901401123,0.817099988,-1.339699984,0.044299997,,0.996999979,0.506099999,9.742599487,,444,1.814099967,-0.833599985,9.786899485
1.68301E+18,8.921401123,0.345099986,-0.905900002,-0.102699995,,0.998299956,0.503899992,9.742599487,,445,1.343399942,-0.40200001,9.639899492
1.68301E+18,8.941399658,0.121199995,-0.481699973,-0.116799995,,0.967199981,0.481699973,9.746899605,,446,1.088399976,0,9.630099609
1.68301E+18,8.961399658,0.125599995,-0.231899992,-0.2095,,0.933499992,0.457399994,9.751299858,,447,1.059099987,0.225500003,9.541799858
1.68301E+18,8.981399658,0.301599979,-0.1752,-0.3583,,0.924199998,0.439999998,9.752999306,,448,1.225799978,0.264799997,9.394699305
1.68301E+18,9.001399658,0.476799995,-0.255099982,-0.514499962,,0.935299993,0.431599975,9.752299309,,449,1.412099987,0.176499993,9.237799346
1.68301E+18,9.021399658,0.499299973,-0.2597,-0.718999982,,0.951900005,0.426399976,9.750999451,,450,1.451199979,0.166699976,9.031999469
1.68301E+18,9.041399658,0.312599987,-0.298500001,-1.002399921,,0.962099969,0.425999999,9.75,,451,1.274699956,0.127499998,8.747600079
1.68301E+18,9.061401123,0.199199989,-0.368399978,-1.36469996,,0.967700005,0.42719999,9.749400139,,452,1.166899994,0.058800012,8.384700179
1.68301E+18,9.081399658,0.195099995,-0.429699987,-1.609300017,,0.97179997,0.429699987,9.74889946,,453,1.166899964,0,8.139599442
1.68301E+18,9.101399658,0.228599995,-0.429699987,-1.902999997,,0.977499962,0.429699987,9.748299599,,454,1.206099957,0,7.845299602
1.68301E+18,9.121399658,0.097599998,-0.422299981,-1.834299922,,0.981099963,0.422299981,9.748299599,,455,1.078699961,0,7.913999677
1.68301E+18,9.141399658,-0.197099999,-0.316599995,-1.669199944,,0.971899986,0.404799998,9.749899864,,456,0.774799988,0.088200003,8.080699921
1.68301E+18,9.161399658,-0.52700001,-0.1303,-1.64289999,,0.948699951,0.385299981,9.752999306,,457,0.421699941,0.25499998,8.110099316
1.68301E+18,9.181399658,-0.664599955,-0.096199997,-1.557999969,,0.91959995,0.370799989,9.756299973,,458,0.254999995,0.274599992,8.198300004
1.68301E+18,9.201401123,-0.433499992,-0.155100003,-1.403800011,,0.894400001,0.361099988,9.758999825,,459,0.460900009,0.205999985,8.355199814
1.68301E+18,9.221399658,-0.058699999,-0.169599995,-1.298099995,,0.872699976,0.35589999,9.761199951,,460,0.813999977,0.186299995,8.463099957
1.68301E+18,9.241399658,0.512600005,-0.044299997,-1.417099953,,0.860199988,0.34829998,9.762599945,,461,1.372799993,0.303999983,8.345499992
1.68301E+18,9.261401123,0.903499961,0.057299998,-1.554799914,,0.861599982,0.334899992,9.762899399,,462,1.765099943,0.392199989,8.208099484
1.68301E+18,9.281399658,0.825299978,0.077699997,-1.417299986,,0.871099949,0.314500004,9.762800217,,463,1.696399927,0.392200001,8.345500231
1.68301E+18,9.301399658,0.602699995,0.20979999,-1.093199968,,0.887799978,0.280499995,9.762299538,,464,1.490499973,0.490299985,8.669099569
1.68301E+18,9.321399658,0.161200002,0.390100002,-0.9648,,0.907599986,0.247199997,9.761400223,,465,1.068799987,0.6373,8.796600223
1.68301E+18,9.341399658,-0.246899992,0.650699973,-0.747500002,,0.933399975,0.212099999,9.759799957,,466,0.686499983,0.862799972,9.012299955
1.68301E+18,9.361399658,-0.586699963,0.765999973,-0.382799983,,0.959299982,0.175399989,9.75799942,,467,0.372600019,0.941399962,9.375199437
1.68301E+18,9.381399658,-0.569000006,0.731399953,-0.0084,,0.98089999,0.151099995,9.756199837,,468,0.411899984,0.882499948,9.747799837
1.68301E+18,9.401401123,-0.011399999,0.667499959,0.678799987,,0.991999984,0.136500001,9.755299568,,469,0.980599985,0.80399996,10.43409956
1.68301E+18,9.421399658,0.804699957,0.437299997,1.63169992,,1.00940001,0.121599995,9.753799438,,470,1.814099967,0.558899991,11.38549936
1.68301E+18,9.441399658,1.23269999,0.114099994,2.878399849,,1.022699952,0.111299999,9.75249958,,471,2.255399942,0.225399993,12.63089943
1.68301E+18,9.461399658,1.190299988,0.376100004,3.338399887,,1.01609993,0.094499998,9.753399849,,472,2.206399918,0.470600002,13.09179974
1.68301E+18,9.481399658,0.836499989,0.657099962,3.131299973,,1.006999969,0.068499997,9.754499435,,473,1.843499959,0.725599959,12.88579941
1.68301E+18,9.501399658,0.597299993,0.3389,3.319000006,,1.020699978,0.063000001,9.753099442,,474,1.617999971,0.401900001,13.07209945
1.68301E+18,9.521399658,0.537,0.030299999,3.272399902,,1.041700006,0.087299995,9.750699997,,475,1.578700006,0.117599994,13.0230999
1.68301E+18,9.541399658,0.603199959,-0.0265,3.156299829,,1.05400002,0.114699997,9.749099731,,476,1.657199979,0.088199997,12.90539956
1.68301E+18,9.561399658,0.618799984,-0.265799999,3.423099995,,1.067799926,0.148100004,9.747200012,,477,1.68659991,-0.117699996,13.17030001
1.68301E+18,9.581399658,0.563600004,-0.657000005,3.532299995,,1.074000001,0.186299995,9.745800018,,478,1.637600005,-0.470700011,13.27810001
1.68301E+18,9.601399658,0.404599994,-0.842399955,2.994199991,,1.076099992,0.234399989,9.744599342,,479,1.480699986,-0.607999966,12.73879933
1.68301E+18,9.621401123,0.1796,-0.851499975,1.918899894,,1.095199943,0.282700002,9.741099358,,480,1.274799943,-0.568799973,11.65999925
1.68301E+18,9.641399658,-0.074900001,-0.736499965,0.85679996,,1.14380002,0.324599981,9.734199524,,481,1.068900019,-0.411899984,10.59099948
1.68301E+18,9.661399658,-0.384799987,-0.610399961,-0.193299994,,1.208500028,0.355399996,9.725299835,,482,0.823700041,-0.254999965,9.531999841
1.68301E+18,9.681399658,-0.631599963,-0.546999991,-1.165300012,,1.268999934,0.380299985,9.7166996,,483,0.637399971,-0.166700006,8.551399589
1.68301E+18,9.701401123,-0.860799968,-0.595200002,-1.747200012,,1.31190002,0.399099976,9.710199356,,484,0.451100051,-0.196100026,7.962999344
1.68301E+18,9.721399658,-0.992599964,-0.646899998,-1.734099984,,1.335799932,0.40169999,9.706899643,,485,0.343199968,-0.245200008,7.972799659
1.68301E+18,9.741399658,-1.138299942,-0.555499971,-1.547500014,,1.344200015,0.378999978,9.706600189,,486,0.205900073,-0.176499993,8.159100175
1.68301E+18,9.761401123,-1.241699934,-0.344799995,-1.28489995,,1.3398,0.334999979,9.708899498,,487,0.098100066,-0.009800017,8.423999548
1.68301E+18,9.781399658,-1.144599915,-0.158600003,-0.965699971,,1.321099997,0.276299983,9.713299751,,488,0.176500082,0.117699981,8.747599781
1.68301E+18,9.801402832,-0.876899958,0.052499998,-0.842899978,,1.298599958,0.212200001,9.717899323,,489,0.421700001,0.264699999,8.874999344
1.68301E+18,9.821399658,-0.543299973,0.1822,-0.670099974,,1.278800011,0.151199996,9.721699715,,490,0.735500038,0.333399996,9.051599741
1.68301E+18,9.841399658,-0.282599986,0.217099994,-0.574800014,,1.263299942,0.096599996,9.724399567,,491,0.980699956,0.313699991,9.149599552
1.68301E+18,9.861399658,-0.245099992,0.282700002,-0.605599999,,1.255199909,0.0506,9.725799561,,492,1.010099918,0.333300002,9.120199561
1.68301E+18,9.881399658,-0.396099985,0.335899979,-0.665300012,,1.249300003,0.016999999,9.726699829,,493,0.853200018,0.352899978,9.061399817
1.68301E+18,9.901401123,-0.68720001,0.392699987,-0.695199966,,1.246199965,-0.0103,9.727099419,,494,0.558999956,0.382399986,9.031899452
1.68301E+18,9.921401123,-0.863499999,0.451700002,-0.90109998,,1.245899916,-0.029999999,9.727099419,,495,0.382399917,0.421700003,8.825999439
1.68301E+18,9.941399658,-0.863599956,0.431599975,-1.175599933,,1.245999932,-0.039299998,9.726999283,,496,0.382399976,0.392299976,8.55139935
1.68301E+18,9.961399658,-0.769800007,0.404899985,-1.263299942,,1.250299931,-0.041999999,9.726499557,,497,0.480499923,0.362899985,8.463199615
1.68301E+18,9.981399658,-0.721300006,0.3671,-1.154099941,,1.260599971,-0.043399997,9.725099564,,498,0.539299965,0.323700003,8.570999622
1.68301E+18,10.00139966,-0.574099958,0.57889998,-1.141700029,,1.280200005,-0.0493,9.722599983,,499,0.706100047,0.52959998,8.580899954
1.68301E+18,10.02139966,-0.600399971,0.580199957,-0.806099951,,1.296599984,-0.060399998,9.720299721,,500,0.696200013,0.519799959,8.914199769
1.68301E+18,10.04139966,-0.681199968,0.566399992,-0.647499979,,1.308899999,-0.066299997,9.718599319,,501,0.627700031,0.500099994,9.071099341
1.68301E+18,10.06140283,-0.613299966,0.565199971,-0.763700008,,1.319399953,-0.065099999,9.717199326,,502,0.706099987,0.500099972,8.953499317
1.68301E+18,10.08139966,-0.489499986,0.486799985,-0.977699995,,1.332899928,-0.055299997,9.715399742,,503,0.843399942,0.431499988,8.737699747
1.68301E+18,10.10139966,-0.298999995,0.449399978,-1.288100004,,1.358099937,-0.037599999,9.711999893,,504,1.059099942,0.411799978,8.423899889
1.68301E+18,10.12139966,-0.293899983,0.562399983,-1.538299918,,1.39230001,-0.0231,9.70720005,,505,1.098400027,0.539299984,8.168900132
1.68301E+18,10.14139966,-0.283899993,0.385199994,-1.473799944,,1.431199908,-0.0126,9.701600075,,506,1.147299916,0.372599994,8.227800131
1.68301E+18,10.16139966,0.0134,0.154100001,-1.153100014,,1.477100015,0.0027,9.694699287,,507,1.490500014,0.156800001,8.541599274
1.68301E+18,10.18139966,0.075499997,-0.008599999,-0.482199997,,1.503299952,0.0184,9.690699577,,508,1.578799948,0.009800001,9.208499581
1.68301E+18,10.20139966,0.078199998,-0.015099999,0.262600005,,1.50059998,0.015099999,9.691100121,,509,1.578799978,0,9.953700125
1.68301E+18,10.22139966,0.031999998,-0.091699995,1.278999925,,1.478099942,-0.0062,9.694600105,,510,1.51009994,-0.097899995,10.97360003
1.68301E+18,10.24139966,0.223099992,-0.29429999,2.509500027,,1.443899989,-0.039000001,9.69960022,,511,1.666999981,-0.333299991,12.20910025
1.68301E+18,10.26139966,0.622500002,-0.093199998,3.6322999,,1.407400012,-0.092999995,9.70459938,,512,2.029900014,-0.186199993,13.33689928
1.68301E+18,10.28139966,0.864600003,-0.052199997,4.628399849,,1.371299982,-0.163399994,9.708899498,,513,2.235899985,-0.215599991,14.33729935
1.68301E+18,10.30139966,1.02609992,-0.148000002,5.427599907,,1.327399969,-0.2245,9.713699341,,514,2.353499889,-0.372500002,15.14129925
1.68301E+18,10.32139966,0.978899956,-0.195799991,5.184899807,,1.26669991,-0.255199999,9.721099854,,515,2.245599866,-0.45099999,14.90599966
1.68301E+18,10.34139966,1.130299926,-0.240799993,4.151000023,,1.232999921,-0.259200007,9.725299835,,516,2.363299847,-0.5,13.87629986
1.68301E+18,10.36139966,1.206399918,-0.255499989,2.650499821,,1.235399961,-0.244499996,9.725399971,,517,2.441799879,-0.499999985,12.37589979
1.68301E+18,10.38139966,1.181200027,-0.423799992,1.474900007,,1.250800014,-0.213499993,9.724199295,,518,2.432000041,-0.637299985,11.1990993
1.68301E+18,10.40139966,1.062399983,-0.510800004,0.563699961,,1.261699915,-0.185299993,9.72329998,,519,2.324099898,-0.696099997,10.28699994
1.68301E+18,10.42139966,0.810199976,-0.554799974,-0.014099999,,1.268700004,-0.1708,9.722700119,,520,2.07889998,-0.725599974,9.70860012
1.68301E+18,10.44139966,0.461599976,-0.328799993,-0.33829999,,1.264299989,-0.171299994,9.723199844,,521,1.725899965,-0.500099987,9.384899855
1.68301E+18,10.46139966,0.046999998,-0.1008,-0.477499992,,1.247399926,-0.183499992,9.725199699,,522,1.294399925,-0.284299992,9.247699708
1.68301E+18,10.48139966,-0.099199995,0.169399992,-0.616899967,,1.226999998,-0.2086,9.72729969,,523,1.127800003,-0.039200008,9.110399723
1.68301E+18,10.50139966,-0.127099991,0.350899994,-0.804099977,,1.215600014,-0.233199999,9.728199959,,524,1.088500023,0.117699996,8.924099982
1.68301E+18,10.52139966,-0.079399996,0.442599982,-1.156700015,,1.217000008,-0.2465,9.72769928,,525,1.137600012,0.196099982,8.570999265
1.68301E+18,10.54139966,0.0165,0.453599989,-1.518000007,,1.228799939,-0.247699991,9.726099968,,526,1.245299939,0.205899999,8.208099961
1.68301E+18,10.56139966,0.1303,0.376399994,-1.702799916,,1.242599964,-0.239099994,9.724599838,,527,1.372899964,0.1373,8.021799922
1.68301E+18,10.58139966,0.257299989,0.283499986,-1.721399903,,1.252799988,-0.224699989,9.723599434,,528,1.510099977,0.058799997,8.002199531
1.68301E+18,10.60139966,0.262400001,0.175699994,-1.564299941,,1.257499933,-0.2051,9.723499298,,529,1.519899935,-0.029400006,8.159199357
1.68301E+18,10.62139966,0.182999998,0.122499995,-1.388199925,,1.25849998,-0.181299999,9.723799706,,530,1.441499978,-0.058800004,8.33559978
1.68301E+18,10.64139966,-0.038199998,0.054899998,-1.350000024,,1.254199982,-0.152999997,9.724899292,,531,1.215999983,-0.098099999,8.374899268
1.68301E+18,10.66139966,-0.191199988,-0.066699997,-1.370599985,,1.250299931,-0.119499996,9.725799561,,532,1.059099942,-0.186199993,8.355199575
1.68301E+18,10.68139966,-0.243099988,-0.183299989,-1.254199982,,1.243299961,-0.0814,9.727099419,,533,1.000199974,-0.264699988,8.472899437
1.68301E+18,10.70139966,-0.128899992,-0.209099993,-1.235599995,,1.237100005,-0.0458,9.728099823,,534,1.108200014,-0.254899994,8.492499828
1.68301E+18,10.72139966,-0.077500001,-0.067299999,-1.128099918,,1.234699965,-0.0209,9.728499413,,535,1.157199964,-0.088199999,8.600399494
1.68301E+18,10.74139966,0.042300001,0.095299996,-1.148000002,,1.232499957,-0.007,9.72879982,,536,1.274799958,0.088299997,8.580799818
1.68301E+18,10.76139966,0.219999999,0.197399989,-0.961799979,,1.231299996,-0.0013,9.729000092,,537,1.451299995,0.196099989,8.767200112
1.68301E+18,10.78139966,0.401600003,0.253499985,-0.746699989,,1.226199985,0.0014,9.729599953,,538,1.627799988,0.254899985,8.982899964
1.68301E+18,10.80139966,0.513499975,0.243799999,-0.560899973,,1.222199917,0.0013,9.730099678,,539,1.735699892,0.245099999,9.169199705
1.68301E+18,10.82139966,0.466499984,0.263899982,-0.618799984,,1.229900002,0.0008,9.729199409,,540,1.696399987,0.264699982,9.110399425
1.68301E+18,10.84139966,0.301899999,0.291999996,-0.742799997,,1.257300019,0.0021,9.725699425,,541,1.559200019,0.294099996,8.982899427
1.68301E+18,10.86139966,0.0973,0.417400002,-0.698599994,,1.295099974,0.0042,9.72069931,,542,1.392399974,0.421600002,9.022099316
1.68301E+18,10.88139966,-0.084299996,0.186399996,0.033,,1.339599967,0.0096,9.714699745,,543,1.255299971,0.195999996,9.747699745
1.68301E+18,10.90139966,-0.212099999,-0.2456,1.128499985,,1.388899922,0.0298,9.707699776,,544,1.176799923,-0.2158,10.83619976
1.68301E+18,10.92139966,-0.169399992,-0.574400008,2.400300026,,1.434399962,0.0546,9.701000214,,545,1.264999971,-0.519800007,12.10130024
1.68301E+18,10.94139966,0.003,-0.889999986,3.241999865,,1.487499952,0.076099999,9.692799568,,546,1.490499952,-0.813899986,12.93479943
1.68301E+18,10.96139966,0.056399997,-0.968199968,3.495899916,,1.541999936,0.095399998,9.684100151,,547,1.598399933,-0.87279997,13.18000007
1.68301E+18,10.98139966,0.215399995,-0.79339999,2.71239996,,1.608599901,0.097099997,9.673299789,,548,1.823999897,-0.696299993,12.38569975
1.68301E+18,11.00139966,0.577300012,-0.833199978,2.039499998,,1.687899947,0.0977,9.65969944,,549,2.265199959,-0.735499978,11.69919944
1.68301E+18,11.02139966,1.103899956,-1.025099993,2.835000038,,1.74969995,0.093399994,9.648799896,,550,2.853599906,-0.931699999,12.48379993
1.68301E+18,11.04139966,1.20419991,-0.742299974,3.630399942,,1.7572999,0.046,9.647799492,,551,2.96149981,-0.696299974,13.27819943
1.68301E+18,11.06139966,0.416299999,-0.138400003,3.849399805,,1.721399903,-0.037999999,9.6541996,,552,2.137699902,-0.176400002,13.50359941
1.68301E+18,11.08139966,-0.538699985,0.362100005,3.165400028,,1.676199913,-0.116899997,9.661600113,,553,1.137499928,0.245200008,12.82700014
1.68301E+18,11.10139966,-1.215499997,0.727799952,1.956499934,,1.656799912,-0.158999994,9.664299965,,554,0.441299915,0.568799958,11.6207999
1.68301E+18,11.12139966,-1.663399935,0.706399977,1.045699954,,1.663399935,-0.167099997,9.663099289,,555,0,0.53929998,10.70879924
1.68301E+18,11.14139966,-1.826999903,0.504400015,0.077500001,,1.679899931,-0.1514,9.660399437,,556,-0.147099972,0.353000015,9.737899438
1.68301E+18,11.16139966,-1.578400016,0.0964,-0.627900004,,1.686199903,-0.115999997,9.659799576,,557,0.107799888,-0.019599997,9.031899571
1.68301E+18,11.18139966,-1.079100013,-0.179099992,-1.090799928,,1.677299976,-0.075800002,9.661799431,,558,0.598199964,-0.254899994,8.570999503
1.68301E+18,11.20139966,-0.740499973,-0.323300004,-1.426999927,,1.662299991,-0.049199998,9.664599419,,559,0.921800017,-0.372500002,8.237599492
1.68301E+18,11.22139966,-0.461499989,-0.298399985,-1.243099928,,1.648099899,-0.0447,9.666999817,,560,1.18659991,-0.343099985,8.423899889
1.68301E+18,11.24139966,-0.342700005,-0.198100001,-0.648299992,,1.627299905,-0.066599995,9.670399666,,561,1.2845999,-0.264699996,9.022099674
1.68301E+18,11.26139966,-0.437599987,-0.220299989,0.080399998,,1.584999919,-0.103199996,9.677100182,,562,1.147399932,-0.323499985,9.757500179
1.68301E+18,11.28139966,-0.618099988,-0.193299994,0.444700003,,1.530099988,-0.140000001,9.685500145,,563,0.912,-0.333299994,10.13020015
1.68301E+18,11.30139966,-0.889099956,-0.186999992,0.448199987,,1.487299919,-0.165899992,9.691699982,,564,0.598199964,-0.352899984,10.13989997
1.68301E+18,11.32139966,-1.167599916,-0.226899996,0.326799989,,1.461799979,-0.175099999,9.69549942,,565,0.294200063,-0.401999995,10.02229941
1.68301E+18,11.34139966,-1.196299911,-0.316100001,0.285999984,,1.451299906,-0.174099997,9.69699955,,566,0.254999995,-0.490199998,9.982999533
1.68301E+18,11.36139966,-1.189199924,-0.42019999,0.235799998,,1.44419992,-0.168099999,9.698200226,,567,0.254999995,-0.58829999,9.934000224
1.68301E+18,11.38139966,-1.307699919,-0.4296,0.0284,,1.435199976,-0.158699989,9.699699402,,568,0.127500057,-0.58829999,9.728099402
1.68301E+18,11.40139966,-1.404999971,-0.430299997,-0.218400002,,1.424600005,-0.14819999,9.701399803,,569,0.019600034,-0.578499988,9.482999802
1.68301E+18,11.42139966,-1.32159996,-0.468899995,-0.073600002,,1.40989995,-0.138999999,9.703700066,,570,0.08829999,-0.607899994,9.630100064
1.68301E+18,11.44139966,-1.172999978,-0.471799999,0.207599998,,1.388799906,-0.136099994,9.706799507,,571,0.215799928,-0.607899994,9.914399505
1.68301E+18,11.46139966,-1.131099939,-0.319299996,0.390799999,,1.366400003,-0.141499996,9.709899902,,572,0.235300064,-0.460799992,10.1006999
1.68301E+18,11.48139966,-1.082499981,-0.206999987,0.360199988,,1.35710001,-0.145899996,9.711099625,,573,0.274600029,-0.352899984,10.07129961
1.68301E+18,11.50139966,-0.954299986,-0.223399997,0.106399998,,1.36619997,-0.139300004,9.710000038,,574,0.411899984,-0.3627,9.816400036
1.68301E+18,11.52139966,-0.60679996,-0.248599991,-0.107299998,,1.381500006,-0.123999998,9.708000183,,575,0.774700046,-0.372599989,9.600700185
1.68301E+18,11.54139966,-0.078899994,-0.119199999,-0.271200001,,1.402799964,-0.106299996,9.705200195,,576,1.323899969,-0.225499995,9.434000194
1.68301E+18,11.56139966,0.0003,-0.040799998,-0.178899989,,1.431299925,-0.086599998,9.701199532,,577,1.431599925,-0.127399996,9.522299543
1.68301E+18,11.58139966,-0.312599987,-0.125100002,-0.310699999,,1.469699979,-0.061199997,9.695599556,,578,1.157099992,-0.186299998,9.384899557
1.68301E+18,11.60139966,-0.416299999,-0.517700016,0.027899999,,1.504899979,-0.021599999,9.690400124,,579,1.08859998,-0.539300015,9.718300123
1.68301E+18,11.62139966,-0.077,-1.137199998,1.18719995,,1.518599987,0.0095,9.688300133,,580,1.441599987,-1.127699998,10.87550008
1.68301E+18,11.64139966,0.251699984,-1.291299939,2.333799839,,1.513399959,0.0165,9.689099312,,581,1.765099943,-1.274799939,12.02289915
1.68301E+18,11.66139966,0.312000006,-0.942900002,2.920399904,,1.502099991,-0.0082,9.690899849,,582,1.814099997,-0.951100002,12.61129975
1.68301E+18,11.68139966,0.313199997,-0.403499991,2.675199986,,1.500899911,-0.057299998,9.690899849,,583,1.814099908,-0.460799988,12.36609983
1.68301E+18,11.70139966,0.374599993,0.034399997,1.862699986,,1.50819993,-0.0933,9.689499855,,584,1.882799923,-0.058900002,11.55219984
1.68301E+18,11.72139966,0.584100008,0.169200003,0.581999958,,1.53399992,-0.090799995,9.685400009,,585,2.118099928,0.078400008,10.26739997
1.68301E+18,11.74139966,0.469799995,0.110599995,-0.507600009,,1.58949995,-0.0517,9.676799774,,586,2.059299946,0.058899995,9.169199765
1.68301E+18,11.76139966,0.117399998,-0.290299982,-0.731599987,,1.657499909,0.015799999,9.665499687,,587,1.774899907,-0.274499983,8.933899701
1.68301E+18,11.78139966,-0.308099985,-0.852999985,-0.468699992,,1.700599909,0.097799994,9.657499313,,588,1.392499924,-0.755199991,9.188799322
1.68301E+18,11.80139966,-0.597000003,-1.249300003,-0.062899999,,1.714899898,0.180399999,9.653800011,,589,1.117899895,-1.068900004,9.590900011
1.68301E+18,11.82139966,-0.75059998,-1.455599904,0.241999999,,1.711699963,0.24939999,9.652799606,,590,0.961099982,-1.206199914,9.894799605
1.68301E+18,11.84139966,-0.707499981,-1.407400012,0.419200003,,1.707700014,0.299199998,9.652099609,,591,1.000200033,-1.108200014,10.07129961
1.68301E+18,11.86139966,-0.657499969,-1.313199997,0.498599976,,1.706799984,0.332499981,9.651199341,,592,1.049300015,-0.980700016,10.14979932
1.68301E+18,11.88139966,-0.613200009,-1.172399998,0.459399998,,1.701699972,0.358399987,9.651199341,,593,1.088499963,-0.81400001,10.11059934
1.68301E+18,11.90139966,-0.569499969,-1.051200032,0.194799989,,1.697199941,0.38439998,9.651000023,,594,1.127699971,-0.666800052,9.845800012
1.68301E+18,11.92139966,-0.494399995,-0.993599951,-0.156299993,,1.700599909,0.414999992,9.64909935,,595,1.206199914,-0.57859996,9.492799357
1.68301E+18,11.94139966,-0.413399994,-1.011199951,-0.44749999,,1.707799911,0.452199996,9.646100044,,596,1.294399917,-0.558999956,9.198600054
1.68301E+18,11.96139966,-0.361799985,-1.061800003,-0.748199999,,1.715099931,0.493099988,9.642799377,,597,1.353299946,-0.568700016,8.894599378
1.68301E+18,11.98139966,-0.454599977,-1.094099998,-0.941299975,,1.719699979,0.535099983,9.639800072,,598,1.265100002,-0.559000015,8.698500097
1.68301E+18,12.00139966,-0.492399991,-0.991400003,-0.998399973,,1.718199968,0.56979996,9.63809967,,599,1.225799978,-0.421600044,8.639699697
1.68301E+18,12.02139966,-0.473199993,-0.925699949,-0.851599991,,1.708799958,0.592199981,9.638400078,,600,1.235599965,-0.333499968,8.786800086
1.68301E+18,12.04139966,-0.356099993,-0.824099958,-0.638799965,,1.689799905,0.59859997,9.641300201,,601,1.333699912,-0.225499988,9.002500236
1.68301E+18,12.06139966,-0.170900002,-0.67930001,-0.369599998,,1.661499977,0.590999961,9.646699905,,602,1.490599975,-0.088300049,9.277099907
1.68301E+18,12.08139966,0.174499989,-0.523000002,-0.033,,1.629799962,0.571999967,9.653299332,,603,1.804299951,0.048999965,9.620299332
1.68301E+18,12.10139966,0.390199989,-0.281699985,0.303200006,,1.600499988,0.53670001,9.660200119,,604,1.990699977,0.255000025,9.963400126
1.68301E+18,12.12139966,0.59709996,0.065799996,0.493699998,,1.579899907,0.493000001,9.66590023,,605,2.176999867,0.558799997,10.15960023
1.68301E+18,12.14139966,0.700199962,0.289999992,0.58859998,,1.574899912,0.4454,9.669099808,,606,2.275099874,0.735399991,10.25769979
1.68301E+18,12.16139966,0.619499981,0.419999987,0.391000003,,1.577099919,0.403599977,9.670499802,,607,2.196599901,0.823599964,10.0614998
1.68301E+18,12.18139966,0.392199993,0.516499996,-0.118099995,,1.58859992,0.3759,9.669799805,,608,1.980799913,0.892399997,9.55169981
1.68301E+18,12.20139966,0.253100008,0.610300004,-0.331200004,,1.610099912,0.350600004,9.667200089,,609,1.863199919,0.960900009,9.336000085
1.68301E+18,12.22139966,0.114799999,0.640599966,-0.212799996,,1.620800018,0.320299983,9.666399956,,610,1.735600017,0.960899949,9.45359996
1.68301E+18,12.24140283,-0.055499997,0.685899973,-0.15609999,,1.61469996,0.284799993,9.668499947,,611,1.559199963,0.970699966,9.512399957
1.68301E+18,12.26140112,-0.056699999,0.724299967,-0.217399999,,1.60619998,0.246399999,9.670999527,,612,1.549499981,0.970699966,9.453599527
1.68301E+18,12.28139966,0.121599995,0.757799983,-0.238299996,,1.604299903,0.203199998,9.672299385,,613,1.725899898,0.960999981,9.433999389
1.68301E+18,12.30140283,0.324499995,0.835999966,-0.0524,,1.607299924,0.154399991,9.672699928,,614,1.931799918,0.990399957,9.620299928
1.68301E+18,12.32140283,0.434100002,0.970699966,0.1426,,1.605499983,0.098099999,9.673799515,,615,2.039599985,1.068799965,9.816399515
1.68301E+18,12.34139966,0.219599992,1.120100021,0.395300001,,1.594499946,0.037,9.675999641,,616,1.814099938,1.157100022,10.07129964
1.68301E+18,12.36139966,-0.035999998,1.219499946,0.558899999,,1.575599909,-0.0231,9.679200172,,617,1.53959991,1.196399946,10.23810017
1.68301E+18,12.38139966,-0.0955,1.28399992,0.722799957,,1.556699991,-0.077799998,9.681900024,,618,1.461199991,1.206199922,10.40469998
1.68301E+18,12.40139966,0.021699999,1.11469996,1.259599924,,1.537499905,-0.124199994,9.684499741,,619,1.559199903,0.990499966,10.94409966
1.68301E+18,12.42139966,0.082800001,0.659699976,2.000400066,,1.505800009,-0.159500003,9.68900013,,620,1.58860001,0.500199974,11.6894002
1.68301E+18,12.44139966,0.241599992,0.337399989,2.707599878,,1.444999933,-0.190299988,9.697699547,,621,1.686599925,0.147100002,12.40529943
1.68301E+18,12.46139966,0.313699991,-0.038899999,3.265300035,,1.363199949,-0.225699991,9.708799362,,622,1.67689994,-0.26459999,12.9740994
1.68301E+18,12.48139966,0.268700004,-0.282499999,2.718099833,,1.300199986,-0.256799996,9.716599464,,623,1.568899989,-0.539299995,12.4346993
1.68301E+18,12.50139966,0.349899977,-0.454299986,1.480199933,,1.277899981,-0.281100005,9.718899727,,624,1.627799958,-0.735399991,11.19909966
1.68301E+18,12.52139966,0.455300003,-0.446199983,0.529799998,,1.280300021,-0.298999995,9.718099594,,625,1.735600024,-0.745199978,10.24789959
1.68301E+18,12.54139966,0.216899991,-0.368000001,0.365399987,,1.293299913,-0.318299979,9.71570015,,626,1.510199904,-0.68629998,10.08110014
1.68301E+18,12.56139966,-0.726899981,-0.224199995,0.335899979,,1.28579998,-0.344500005,9.715799332,,627,0.558899999,-0.568700001,10.05169931
1.68301E+18,12.58139966,-1.788299918,-0.379500002,0.14639999,,1.258700013,-0.35589999,9.718999863,,628,-0.529599905,-0.735399991,9.865399852
1.68301E+18,12.60139966,-2.231999874,-0.938600004,0.130899996,,1.222000003,-0.326299995,9.724699974,,629,-1.009999871,-1.264899999,9.85559997
1.68301E+18,12.62139966,-1.804399967,-1.343799949,0.076799996,,1.196399927,-0.264400005,9.729700089,,630,-0.60800004,-1.608199954,9.806500085
1.68301E+18,12.64139966,-1.109599948,-1.549699903,0.15259999,,1.187999964,-0.19569999,9.73239994,,631,0.078400016,-1.745399892,9.884999931
1.68301E+18,12.66139966,-0.715499997,-1.495399952,0.170900002,,1.186200023,-0.132399991,9.733699799,,632,0.470700026,-1.627799943,9.904599801
1.68301E+18,12.68139966,-0.486299992,-1.354900002,-0.113299996,,1.192399979,-0.0669,9.733599663,,633,0.706099987,-1.421800002,9.620299667
1.68301E+18,12.70139966,-0.351699978,-1.237399936,-0.288499981,,1.204900026,0.0018,9.732299805,,634,0.853200048,-1.235599936,9.443799824
1.68301E+18,12.72139966,-0.430500001,-1.165099978,-0.481899977,,1.224799991,0.066799998,9.729599953,,635,0.79429999,-1.09829998,9.247699976
1.68301E+18,12.74139966,-0.576799989,-0.993399978,-0.899399996,,1.253499985,0.1206,9.725399971,,636,0.676699996,-0.872799978,8.825999975
1.68301E+18,12.76139966,-0.796399951,-0.701599956,-1.35679996,,1.276899934,0.152500004,9.721899986,,637,0.480499983,-0.549099952,8.365100026
1.68301E+18,12.78139966,-0.92749995,-0.426899999,-1.493499994,,1.280499935,0.162100002,9.721300125,,638,0.352999985,-0.264799997,8.227800131
1.68301E+18,12.80139966,-0.907700002,-0.151199996,-1.367499948,,1.270499945,0.151199996,9.722799301,,639,0.362799942,0,8.355299354
1.68301E+18,12.82139966,-0.902899981,0.035299998,-1.134500027,,1.255900025,0.1215,9.725099564,,640,0.353000045,0.156799998,8.590599537
1.68301E+18,12.84139966,-1.034099936,0.0911,-0.891799986,,1.24000001,0.075499997,9.727600098,,641,0.205900073,0.166599996,8.835800111
1.68301E+18,12.86139966,-0.904999971,0.285299987,-0.922899961,,1.228600025,0.0186,9.729299545,,642,0.323600054,0.303899987,8.806399584
1.68301E+18,12.88139966,-0.421099991,0.518000007,-1.080199957,,1.225299954,-0.0473,9.729599953,,643,0.804199964,0.470700007,8.649399996
1.68301E+18,12.90139966,-0.020099999,0.757600009,-0.716600001,,1.226300001,-0.120099999,9.728899956,,644,1.206200002,0.63750001,9.012299955
1.68301E+18,12.92139966,-0.022299999,0.922599971,-0.1963,,1.218699932,-0.206699997,9.72840023,,645,1.196399933,0.715899974,9.53210023
1.68301E+18,12.94139966,-0.350299984,1.212499976,-0.334600002,,1.193699956,-0.290699989,9.729299545,,646,0.843399972,0.921799988,9.394699544
1.68301E+18,12.96139966,-0.568199992,1.416599989,-0.678900003,,1.166399956,-0.357499987,9.730400085,,647,0.598199964,1.059100002,9.051500082
1.68301E+18,12.98139966,-0.382099986,1.599999905,-0.952399969,,1.156799912,-0.413399994,9.729299545,,648,0.774699926,1.18659991,8.776899576
1.68301E+18,13.00139966,-0.118599996,1.617399931,-0.988199949,,1.167999983,-0.460199982,9.725899696,,649,1.049399987,1.157199949,8.737699747
1.68301E+18,13.02139966,0.045699999,1.653999925,-0.924899995,,1.189800024,-0.496799976,9.721499443,,650,1.235500023,1.157199949,8.796599448
1.68301E+18,13.04139966,0.042099997,1.586399913,-0.518299997,,1.21299994,-0.5273,9.717000008,,651,1.255099937,1.059099913,9.198700011
1.68301E+18,13.06139966,0.053599998,1.518999934,0.015099999,,1.230999947,-0.557900012,9.712999344,,652,1.284599945,0.961099923,9.728099343
1.68301E+18,13.08139966,-0.079300001,1.494199991,0.470200002,,1.246299982,-0.592000008,9.708999634,,653,1.166999981,0.902199984,10.17919964
1.68301E+18,13.10139966,-0.177900001,1.581200004,0.769400001,,1.266499996,-0.629999995,9.703999519,,654,1.088599995,0.951200008,10.47339952
1.68301E+18,13.12139966,-0.242399991,1.692099929,0.932399988,,1.291700006,-0.672199965,9.697899818,,655,1.049300015,1.019899964,10.63029981
1.68301E+18,13.14139966,-0.336499989,1.638899922,0.890599966,,1.326900005,-0.707300007,9.690599442,,656,0.990400016,0.931599915,10.58119941
1.68301E+18,13.16139966,-0.442299992,1.523599982,1.026299953,,1.373899937,-0.729299963,9.68239975,,657,0.931599945,0.79430002,10.7086997
1.68301E+18,13.18139966,-0.620099962,1.197899938,1.584100008,,1.424299955,-0.746800005,9.673799515,,658,0.804199994,0.451099932,11.25789952
1.68301E+18,13.20139966,-0.890699983,0.699599981,2.592000008,,1.469299912,-0.75849998,9.666199684,,659,0.57859993,-0.058899999,12.25819969
1.68301E+18,13.22139966,-0.984399974,0.283999979,3.519699812,,1.504199982,-0.764499962,9.660299301,,660,0.519800007,-0.480499983,13.17999911
1.68301E+18,13.24139966,-0.927399993,-0.0309,3.829299927,,1.53549993,-0.773099959,9.654699326,,661,0.608099937,-0.803999959,13.48399925
1.68301E+18,13.26139966,-0.709100008,-0.197099999,3.578699827,,1.562299967,-0.773599982,9.650400162,,662,0.853199959,-0.970699981,13.22909999
1.68301E+18,13.28139966,-0.563600004,-0.3046,2.816499949,,1.583499908,-0.764199972,9.647699356,,663,1.019899905,-1.068799973,12.4641993
1.68301E+18,13.30139966,-0.472899973,-0.393599987,1.554299951,,1.610499978,-0.743900001,9.644800186,,664,1.137600005,-1.137499988,11.19910014
1.68301E+18,13.32139966,-0.425899982,-0.411899984,0.165899992,,1.651799917,-0.705899954,9.640699387,,665,1.225899935,-1.117799938,9.806599379
1.68301E+18,13.34139966,-0.317299992,-0.469599992,-0.866799951,,1.709899902,-0.658100009,9.633899689,,666,1.39259991,-1.127700001,8.767099738
1.68301E+18,13.36139966,-0.28579998,-0.672699988,-1.110899925,,1.786199927,-0.611899972,9.623099327,,667,1.500399947,-1.28459996,8.512199402
1.68301E+18,13.38139966,-0.374499977,-0.717599988,-0.639099956,,1.85529995,-0.576799989,9.612199783,,668,1.480799973,-1.294399977,8.973099828
1.68301E+18,13.40139966,-0.666799963,-0.598899961,0.171099991,,1.89259994,-0.558099985,9.605999947,,669,1.225799978,-1.156999946,9.777099937
1.68301E+18,13.42140112,-1.331799984,-0.407799989,0.797499955,,1.890699983,-0.54339999,9.607199669,,670,0.558899999,-0.951199979,10.40469962
1.68301E+18,13.44139966,-1.717399955,-0.276199996,1.173399925,,1.864499927,-0.518000007,9.613800049,,671,0.147099972,-0.794200003,10.78719997
1.68301E+18,13.46139966,-1.849999905,-0.249899998,1.311800003,,1.83039999,-0.475699991,9.622499466,,672,-0.019599915,-0.725599989,10.93429947
1.68301E+18,13.48139966,-1.711199999,-0.378600001,1.334499955,,1.809299946,-0.415600002,9.629300117,,673,0.098099947,-0.794200003,10.96380007
1.68301E+18,13.50139966,-1.42750001,-0.526899993,1.212299943,,1.800199986,-0.345799983,9.633699417,,674,0.372699976,-0.872699976,10.84599936
1.68301E+18,13.52139966,-1.176499963,-0.639899969,0.777399957,,1.79429996,-0.271999985,9.637199402,,675,0.617799997,-0.911899954,10.41459936
1.68301E+18,13.54139966,-0.923799992,-0.919399977,0.0973,,1.786799908,-0.188699991,9.640600204,,676,0.862999916,-1.108099967,9.737900205
1.68301E+18,13.56140112,-0.463,-1.129400015,-0.570800006,,1.786899924,-0.096299998,9.641900063,,677,1.323899925,-1.225700013,9.071100056
1.68301E+18,13.58139966,0.041499998,-1.276299953,-0.903699994,,1.792199969,-0.0083,9.641399384,,678,1.833699968,-1.284599953,8.737699389
1.68301E+18,13.60139966,0.335099995,-1.330899954,-1.079900026,,1.79279995,0.065799996,9.64109993,,679,2.127899945,-1.265099958,8.561199903
1.68301E+18,13.62139966,0.41929999,-1.237900019,-0.984200001,,1.7773,0.119999997,9.643400192,,680,2.19659999,-1.117900021,8.659200191
1.68301E+18,13.64139966,0.331999987,-1.139699936,-0.794799984,,1.737100005,0.158999994,9.65019989,,681,2.069099993,-0.980699942,8.855399907
1.68301E+18,13.66139966,0.050899997,-1.032099962,-0.6778,,1.674999952,0.188699991,9.660599709,,682,1.72589995,-0.843399972,8.982799709
1.68301E+18,13.68139966,-0.01,-0.918899953,-0.629700005,,1.608500004,0.212799996,9.67140007,,683,1.598500004,-0.706099957,9.041700065
1.68301E+18,13.70140112,0.0065,-0.811199963,-0.638399959,,1.552599907,0.232599989,9.680099487,,684,1.559099907,-0.578599975,9.041699529
1.68301E+18,13.72139966,0.076699995,-0.710200012,-0.771899998,,1.511899948,0.249199986,9.686100006,,685,1.588599943,-0.461000025,8.914200008
1.68301E+18,13.74139966,0.224799991,-0.566999972,-0.923299968,,1.48149991,0.262999982,9.690499306,,686,1.706299901,-0.30399999,8.767199337
1.68301E+18,13.76140112,0.31309998,-0.4014,-1.251099944,,1.451900005,0.273900002,9.694600105,,687,1.764999986,-0.127499998,8.443500161
1.68301E+18,13.78139966,0.245299995,-0.286500007,-1.49059999,,1.421700001,0.286500007,9.698800087,,688,1.666999996,0,8.208200097
1.68301E+18,13.80139966,0.157099992,-0.202500001,-1.690599918,,1.39230001,0.300599992,9.702599525,,689,1.549400002,0.098099992,8.011999607
1.68301E+18,13.82139966,0.109899998,-0.100400001,-1.908899903,,1.370800018,0.316100001,9.705200195,,690,1.480700016,0.215700001,7.796300292
1.68301E+18,13.84139966,0.056599997,-0.111599997,-2.037799835,,1.355499983,0.337099999,9.706600189,,691,1.41209998,0.225500003,7.668800354
1.68301E+18,13.86139966,-0.0186,-0.173099995,-2.136899948,,1.342499971,0.359400004,9.70759964,,692,1.323899971,0.186300009,7.570699692
1.68301E+18,13.88139966,-0.095299996,-0.366899997,-2.049599886,,1.330899954,0.376699984,9.708600044,,693,1.235599957,0.009799987,7.659000158
1.68301E+18,13.90139966,0.103499994,-0.382200003,-1.894199967,,1.318400025,0.382200003,9.710100174,,694,1.421900019,0,7.815900207
1.68301E+18,13.92139966,0.248899996,-0.229899988,-1.83829999,,1.300400019,0.367199987,9.71309948,,695,1.549300015,0.1373,7.87479949
1.68301E+18,13.94139966,0.491299987,0.1193,-1.91899991,,1.29339993,0.331699997,9.715299606,,696,1.784699917,0.450999998,7.796299696
1.68301E+18,13.96139966,0.493599981,0.192299992,-1.704899907,,1.291100025,0.288100004,9.717000008,,697,1.784700006,0.480399996,8.012100101
1.68301E+18,13.98139966,0.581900001,0.231600001,-1.529500008,,1.291100025,0.248799995,9.718099594,,698,1.873000026,0.480399996,8.188599586
1.68301E+18,14.00139966,0.658599973,0.317399979,-1.167299986,,1.29279995,0.212099999,9.718699455,,699,1.951399922,0.529499978,8.551399469
1.68301E+18,14.02139966,0.720799983,0.405999988,-0.519999981,,1.299199939,0.172499999,9.718599319,,700,2.019999921,0.578499988,9.198599339
1.68301E+18,14.04139966,0.651300013,0.170599997,0.363499999,,1.309999943,0.143099993,9.717700005,,701,1.961299956,0.313699991,10.0812
1.68301E+18,14.06140112,0.653800011,-0.1259,1.286099911,,1.317199945,0.1259,9.716899872,,702,1.970999956,0,11.00299978
1.68301E+18,14.08139966,0.560099959,-0.477999985,2.286900043,,1.322700024,0.115099996,9.716300011,,703,1.882799983,-0.362899989,12.00320005
1.68301E+18,14.10139966,0.362699986,-0.588,3.100999832,,1.324000001,0.107499994,9.716199875,,704,1.686699986,-0.480500005,12.81719971
1.68301E+18,14.12140112,0.156599998,-0.480999976,3.532299995,,1.324100018,0.088699996,9.716400146,,705,1.480700016,-0.39229998,13.24870014
1.68301E+18,14.14140112,0.078400001,-0.548200011,3.670699835,,1.333599925,0.0579,9.715299606,,706,1.411999926,-0.490300011,13.38599944
1.68301E+18,14.16139966,0.329699993,-0.619199991,4.133299828,,1.347100019,0.0309,9.713600159,,707,1.676800013,-0.588299992,13.84689999
1.68301E+18,14.18139966,0.550300002,-0.382200003,4.51639986,,1.352100015,-0.01,9.712900162,,708,1.902400017,-0.392200002,14.22930002
1.68301E+18,14.20140112,0.196499988,0.0359,4.302400112,,1.362699986,-0.065399997,9.71119976,,709,1.559199974,-0.029499996,14.01359987
1.68301E+18,14.22139966,-0.456599981,0.363299996,3.286499977,,1.388299942,-0.1083,9.70720005,,710,0.931699961,0.254999995,12.99370003
1.68301E+18,14.24139966,-0.907700002,0.50909996,2.115599871,,1.42750001,-0.126599997,9.701299667,,711,0.519800007,0.382499963,11.81689954
1.68301E+18,14.26140112,-1.10710001,0.409399986,1.025099993,,1.479699969,-0.125,9.693499565,,712,0.372599959,0.284399986,10.71859956
1.68301E+18,14.28139966,-1.37440002,0.176699996,0.228699997,,1.531299949,-0.108099997,9.685699463,,713,0.156899929,0.068599999,9.91439946
1.68301E+18,14.30140283,-1.551399946,0.163900003,-0.412200004,,1.57099998,-0.095199995,9.679499626,,714,0.019600034,0.068700008,9.267299622
1.68301E+18,14.32139966,-1.734299898,0.282099992,-0.72329998,,1.587199926,-0.105499998,9.676699638,,715,-0.147099972,0.176599994,8.953399658
1.68301E+18,14.34139966,-1.723799944,0.634899974,-0.959800005,,1.576699972,-0.144500002,9.677899361,,716,-0.147099972,0.490399972,8.718099356
1.68301E+18,14.36139966,-1.647499919,1.023000002,-1.120199919,,1.549499989,-0.199199989,9.681399345,,717,-0.09799993,0.823800012,8.561199427
1.68301E+18,14.38139966,-1.525200009,1.193099976,-1.269899964,,1.525200009,-0.251599997,9.684000015,,718,0,0.941499978,8.414100051
1.68301E+18,14.40139966,-1.091799974,1.205699921,-1.280300021,,1.513499975,-0.29369998,9.684599876,,719,0.421700001,0.911999941,8.404299855
1.68301E+18,14.42140112,-0.705599964,1.127499938,-1.203099966,,1.5,-0.323300004,9.685799599,,720,0.794400036,0.804199934,8.482699633
1.68301E+18,14.44139966,-0.631799996,1.126199961,-1.314099908,,1.475099921,-0.341600001,9.68900013,,721,0.843299925,0.78459996,8.374900222
1.68301E+18,14.46139966,-0.910399973,1.174199939,-1.729499936,,1.449800014,-0.350400001,9.692500114,,722,0.539400041,0.823799938,7.963000178
1.68301E+18,14.48139966,-1.165899992,1.097800016,-1.907299995,,1.440500021,-0.352499992,9.693799973,,723,0.274600029,0.745300025,7.786499977
1.68301E+18,14.50139966,-0.961199999,0.93629998,-2.16079998,,1.451499939,-0.347900003,9.692299843,,724,0.49029994,0.588399976,7.531499863
1.68301E+18,14.52139966,-0.632399976,0.758699954,-2.324300051,,1.475799918,-0.336999983,9.689099312,,725,0.843399942,0.421699971,7.364799261
1.68301E+18,14.54139966,-0.296399981,0.564399958,-1.841399908,,1.492799997,-0.329099983,9.686699867,,726,1.196400017,0.235299975,7.845299959
1.68301E+18,14.56139966,-0.3213,0.527799964,-1.008399963,,1.488299966,-0.331699997,9.687299728,,727,1.166999966,0.196099967,8.678899765
1.68301E+18,14.58139966,-0.599099994,0.551100016,-0.461299986,,1.471899986,-0.345200002,9.689399719,,728,0.872799993,0.205900013,9.228099734
1.68301E+18,14.60139966,-0.843199968,0.566500008,-0.473999977,,1.451200008,-0.350699991,9.692299843,,729,0.60800004,0.215800017,9.218299866
1.68301E+18,14.62139966,-0.776499987,0.413599998,-1.065599918,,1.433499932,-0.335199982,9.69549942,,730,0.656999946,0.078400016,8.629899502
1.68301E+18,14.64139966,-0.427399993,0.184699997,-1.587599993,,1.427699924,-0.292499989,9.697699547,,731,1.000299931,-0.107799992,8.110099554
1.68301E+18,14.66139966,-0.184199989,-0.078999996,-2.06799984,,1.439499974,-0.234699994,9.697500229,,732,1.255299985,-0.313699991,7.629500389
1.68301E+18,14.68139966,-0.0098,-0.665499985,-1.886399984,,1.480799913,-0.177699998,9.692500114,,733,1.470999913,-0.843199983,7.80610013
1.68301E+18,14.70139966,0.206,-1.422099948,-0.647099972,,1.50999999,-0.127199993,9.688799858,,734,1.715999991,-1.54929994,9.041699886
1.68301E+18,14.72139966,0.359599978,-1.907999992,1.42900002,,1.493699908,-0.102299996,9.691599846,,735,1.853299886,-2.010299988,11.12059987
1.68301E+18,14.74139966,0.514800012,-1.549699903,3.529199839,,1.43659997,-0.136999995,9.699799538,,736,1.951399982,-1.686699897,13.22899938
1.68301E+18,14.76139966,0.462499976,-0.956999958,5.15899992,,1.371299982,-0.219699994,9.707799911,,737,1.833799958,-1.176699951,14.86679983
1.68301E+18,14.78139966,-0.0539,-0.339699984,5.328000069,,1.299299955,-0.307399988,9.715299606,,738,1.245399956,-0.647099972,15.04329967
1.68301E+18,14.80139966,-0.539699972,-0.191499993,4.125599861,,1.245800018,-0.338,9.721300125,,739,0.706100047,-0.529499993,13.84689999
1.68301E+18,14.82139966,-0.066500001,-0.465499997,2.955799818,,1.233500004,-0.299299985,9.724100113,,740,1.167000003,-0.764799982,12.67989993
1.68301E+18,14.84139966,0.769400001,-1.21449995,2.958600044,,1.270299911,-0.226999998,9.721300125,,741,2.039699912,-1.441499949,12.67990017
1.68301E+18,14.86139966,1.354099989,-1.411499977,3.140799999,,1.323099971,-0.157399997,9.71570015,,742,2.67719996,-1.568899974,12.85650015
1.68301E+18,14.88139966,1.086499929,-1.217599988,3.164399862,,1.35529995,-0.125799999,9.711699486,,743,2.441799879,-1.343399987,12.87609935
1.68301E+18,14.90139966,0.328099996,-0.764899969,2.310199976,,1.348699927,-0.117599994,9.71269989,,744,1.676799923,-0.882499963,12.02289987
1.68301E+18,14.92140283,-0.328799993,-0.445299983,1.138999939,,1.31919992,-0.103699997,9.716899872,,745,0.990399927,-0.54899998,10.85589981
1.68301E+18,14.94139966,-0.460799992,-0.460099995,0.234499991,,1.304099917,-0.0792,9.719200134,,746,0.843299925,-0.539299995,9.953700125
1.68301E+18,14.96139966,-0.0187,-0.585999966,-0.282799989,,1.322999954,-0.0513,9.716799736,,747,1.304299954,-0.637299966,9.433999747
1.68301E+18,14.98139966,0.418199986,-0.508000016,-0.562599957,,1.356699944,-0.041099999,9.712200165,,748,1.77489993,-0.549100015,9.149600208
1.68301E+18,15.00139966,0.440399975,-0.296799988,-0.648400009,,1.373700023,-0.056199998,9.709699631,,749,1.814099997,-0.352999985,9.061299622
1.68301E+18,15.02139966,0.092699997,-0.032499999,-0.846399963,,1.35860002,-0.094899997,9.71159935,,750,1.451300018,-0.127399996,8.865199387
1.68301E+18,15.04139966,-0.094899997,0.270500004,-1.183099985,,1.330500007,-0.142999992,9.714900017,,751,1.23560001,0.127500013,8.531800032
1.68301E+18,15.06140112,-0.160999998,0.536300004,-1.557899952,,1.308399916,-0.192999989,9.717000008,,752,1.147399917,0.343300015,8.159100056
1.68301E+18,15.08139966,-0.114399999,0.684300005,-1.577399969,,1.300999999,-0.243000001,9.716899872,,753,1.1866,0.441300005,8.139499903
1.68301E+18,15.10139966,-0.1391,0.773400009,-1.449100018,,1.296299934,-0.292899996,9.716099739,,754,1.157199934,0.480500013,8.266999722
1.68301E+18,15.12140112,-0.318800002,0.873399973,-1.302899957,,1.279899955,-0.333999991,9.717000008,,755,0.961099952,0.539399981,8.414100051
1.68301E+18,15.14139966,-0.567600012,0.911899984,-1.071099997,,1.244300008,-0.362699986,9.720600128,,756,0.676699996,0.549199998,8.649500132
1.68301E+18,15.16139966,-0.755299985,0.886399984,-0.90989995,,1.19659996,-0.376399994,9.725999832,,757,0.441299975,0.50999999,8.816099882
1.68301E+18,15.18139966,-0.813999951,0.847899973,-1.151499987,,1.147499919,-0.367399991,9.732299805,,758,0.333499968,0.480499983,8.580799818
1.68301E+18,15.20140112,-0.613999963,0.590999961,-1.303599954,,1.114099979,-0.336099982,9.737299919,,759,0.500100017,0.254899979,8.433699965
1.68301E+18,15.22139966,0.0087,0.477399975,-1.34589994,,1.099399924,-0.291099995,9.740399361,,760,1.108099924,0.18629998,8.394499421
1.68301E+18,15.24139966,0.090300001,0.423699975,-1.259500027,,1.096199989,-0.237399995,9.742199898,,761,1.186499991,0.18629998,8.482699871
1.68301E+18,15.26140112,0.100599997,0.401600003,-1.514699936,,1.105499983,-0.176100001,9.742499352,,762,1.20609998,0.225500003,8.227799416
1.68301E+18,15.28139966,0.1417,-0.0286,-1.189999938,,1.12319994,-0.108499996,9.741399765,,763,1.264899939,-0.137099996,8.551399827
1.68301E+18,15.30139966,0.526199996,-0.1391,-1.238699913,,1.131099939,-0.037299998,9.741099358,,764,1.657299936,-0.176399998,8.502399445
1.68301E+18,15.32139966,0.837199986,-0.154599994,-1.57069993,,1.143599987,0.036899999,9.739600182,,765,1.980799973,-0.117699996,8.168900251
1.68301E+18,15.34139966,1.056599975,-0.061499998,-1.784199953,,1.159600019,0.090899996,9.737400055,,766,2.216199994,0.029399998,7.953200102
1.68301E+18,15.36139966,1.030699968,0.080600001,-1.830899954,,1.175699949,0.12529999,9.735099792,,767,2.206399918,0.205899991,7.904199839
1.68301E+18,15.38139966,1.144500017,-0.105399996,-1.013700008,,1.199199915,0.154399991,9.731800079,,768,2.343699932,0.048999995,8.718100071
1.68301E+18,15.40139966,1.210799932,-0.412999988,0.518000007,,1.211399913,0.177599996,9.729899406,,769,2.422199845,-0.235399991,10.24789941
1.68301E+18,15.42140112,1.190400004,-0.626100004,1.753799915,,1.21209991,0.184799999,9.729599953,,770,2.402499914,-0.441300005,11.48339987
1.68301E+18,15.44139966,0.550799966,-0.843800008,2.440599918,,1.214299917,0.186799988,9.729299545,,771,1.765099883,-0.65700002,12.16989946
1.68301E+18,15.46139966,-0.255600005,-1.005599976,2.57949996,,1.226400018,0.191599995,9.72769928,,772,0.970800012,-0.813999981,12.30719924
1.68301E+18,15.48139966,-0.719099998,-0.823399961,2.201099873,,1.25849998,0.18599999,9.72369957,,773,0.539399981,-0.637399971,11.92479944
1.68301E+18,15.50139966,-0.719599962,-1.388799906,3.253999949,,1.288399935,0.17279999,9.720099449,,774,0.568799973,-1.215999916,12.9740994
1.68301E+18,15.52139966,-0.053799998,-1.980399966,4.939199924,,1.279600024,0.146599993,9.721599579,,775,1.225800026,-1.833799973,14.6607995
1.68301E+18,15.54139966,0.506099999,-1.377399921,5.228699684,,1.249199986,0.082999997,9.726299286,,776,1.755299985,-1.294399925,14.95499897
1.68301E+18,15.56140112,0.372099996,-0.772899985,4.274199963,,1.226300001,-0.0116,9.729599953,,777,1.598399997,-0.784499985,14.00379992
1.68301E+18,15.58139966,0.157499999,-0.277899981,2.852499962,,1.225099921,-0.094700001,9.729299545,,778,1.38259992,-0.372599982,12.58179951
1.68301E+18,15.60139966,0.037599999,-0.0176,1.180299997,,1.256799936,-0.148999989,9.724599838,,779,1.294399936,-0.166599989,10.90489984
1.68301E+18,15.62139966,-0.056199998,0.176399991,-0.243499994,,1.311499953,-0.186199993,9.7166996,,780,1.255299956,-0.009800002,9.473199606
1.68301E+18,15.64139966,-0.240399987,0.273499995,-0.854099989,,1.358299971,-0.224399999,9.709499359,,781,1.117899984,0.049099997,8.85539937
1.68301E+18,15.66139966,-0.623600006,0.292699993,-0.92839998,,1.378700018,-0.273099989,9.705399513,,782,0.755100012,0.019600004,8.776999533
1.68301E+18,15.68139966,-1.020099998,0.415299982,-1.094200015,,1.373099923,-0.327099979,9.704500198,,783,0.352999926,0.088200003,8.610300183
1.68301E+18,15.70140112,-1.161499977,0.546199977,-1.09589994,,1.347899914,-0.379500002,9.70609951,,784,0.186399937,0.166699976,8.610199571
1.68301E+18,15.72139966,-0.919200003,0.549099982,-0.833899975,,1.311399937,-0.431400001,9.708899498,,785,0.392199934,0.117699981,8.874999523
1.68301E+18,15.74139966,-0.611000001,0.599099994,-0.621599972,,1.268000007,-0.481399983,9.712299347,,786,0.657000005,0.117700011,9.090699375
1.68301E+18,15.76140112,-0.328599989,0.704599977,-0.663199961,,1.230799913,-0.527999997,9.714699745,,787,0.902199924,0.176599979,9.051499784
1.68301E+18,15.78140283,-0.250999987,0.715499997,-0.780900002,,1.212000012,-0.568399966,9.714799881,,788,0.961000025,0.147100031,8.933899879
1.68301E+18,15.80140283,-0.219099998,0.712300003,-0.956200004,,1.209599972,-0.594599962,9.713500023,,789,0.990499973,0.11770004,8.757300019
1.68301E+18,15.82140283,-0.251100004,0.600600004,-0.847000003,,1.212199926,-0.610399961,9.712200165,,790,0.961099923,-0.009799957,8.865200162
1.68301E+18,15.84139966,-0.427699983,0.593499959,-0.601000011,,1.212199926,-0.622900009,9.711400032,,791,0.784499943,-0.029400051,9.110400021
1.68301E+18,15.86139966,-0.729099989,0.622099996,-0.610599995,,1.209599972,-0.631900012,9.71119976,,792,0.480499983,-0.009800017,9.100599766
1.68301E+18,15.88139966,-0.896599948,0.635499954,-0.865199983,,1.210399985,-0.635499954,9.710800171,,793,0.313800037,0,8.845600188
1.68301E+18,15.90139966,-0.910999954,0.628600001,-1.208299994,,1.214999914,-0.628600001,9.710700035,,794,0.30399996,0,8.502400041
1.68301E+18,15.92140112,-0.717700005,0.707199991,-1.687899947,,1.227699995,-0.618999958,9.709699631,,795,0.50999999,0.088200033,8.021799684
1.68301E+18,15.94139966,-0.528699994,0.74879998,-1.980399966,,1.244599938,-0.611499965,9.708099365,,796,0.715899944,0.137300014,7.727699399
1.68301E+18,15.96139966,-0.286599994,0.829899967,-1.703999996,,1.257399917,-0.614199996,9.706199646,,797,0.970799923,0.215699971,8.00219965
1.68301E+18,15.98139966,-0.28669998,0.856999993,-0.879099965,,1.25759995,-0.631399989,9.70510006,,798,0.970899969,0.225600004,8.826000094
1.68301E+18,16.00139966,-0.444700003,0.805999994,-0.416199982,,1.258700013,-0.658899963,9.703100204,,799,0.81400001,0.147100031,9.286900222
1.68301E+18,16.02140112,-0.475599974,0.954299986,-0.342700005,,1.279699922,-0.689499974,9.698299408,,800,0.804099947,0.264800012,9.355599403
1.68301E+18,16.04139966,-0.544499993,1.105599999,-0.463200003,,1.31919992,-0.713400006,9.691199303,,801,0.774699926,0.392199993,9.2279993
1.68301E+18,16.06139966,-0.388500005,1.056800008,-0.924799979,,1.378999949,-0.723399997,9.682199478,,802,0.990499943,0.333400011,8.757399499
1.68301E+18,16.08139966,-0.1215,0.704299986,-1.112699986,,1.4454,-0.704299986,9.673899651,,803,1.323899999,0,8.561199665
1.68301E+18,16.10139966,0.21509999,0.274100006,-0.529799998,,1.49119997,-0.666299999,9.669599533,,804,1.706299961,-0.392199993,9.139799535
1.68301E+18,16.12140112,0.471100003,-0.035700001,0.649599969,,1.519599915,-0.640899956,9.666899681,,805,1.990699917,-0.676599957,10.31649965
1.68301E+18,16.14140112,0.456599981,-0.228399992,1.877299905,,1.53399992,-0.634499967,9.665100098,,806,1.9905999,-0.862899959,11.5424
1.68301E+18,16.16139966,0.375399977,-0.183899999,2.760599852,,1.536799908,-0.639699996,9.664299965,,807,1.912199885,-0.823599994,12.42489982
1.68301E+18,16.18139966,0.32099998,-0.069399998,3.368399858,,1.532400012,-0.646399975,9.664499283,,808,1.853399992,-0.715799972,13.03289914
1.68301E+18,16.20140283,0.12879999,-0.047399998,3.23759985,,1.518599987,-0.629199982,9.66779995,,809,1.647399977,-0.676599979,12.9053998
1.68301E+18,16.22139966,0.206199989,-0.524100006,3.144599915,,1.509799957,-0.574199975,9.672599792,,810,1.715999946,-1.09829998,12.81719971
1.68301E+18,16.24139966,0.656899989,-1.00819993,3.277400017,,1.510199904,-0.4921,9.677100182,,811,2.167099893,-1.500299931,12.9545002
1.68301E+18,16.26139966,0.876499951,-1.555299997,3.39199996,,1.516199946,-0.405900002,9.680199623,,812,2.392699897,-1.961199999,13.07219958
1.68301E+18,16.28139966,0.82159996,-1.725600004,3.329399824,,1.512199998,-0.323899984,9.683899879,,813,2.333799958,-2.049499989,13.0132997
1.68301E+18,16.30139966,0.613299966,-1.619699955,2.716899872,,1.495000005,-0.263099998,9.688399315,,814,2.108299971,-1.882799953,12.40529919
1.68301E+18,16.32139966,0.424099982,-1.343999982,1.577299953,,1.488099933,-0.224899992,9.690400124,,815,1.912199914,-1.568899974,11.26770008
1.68301E+18,16.34139966,0.304100007,-1.075099945,0.723899961,,1.490399957,-0.199699998,9.690599442,,816,1.794499964,-1.274799943,10.4144994
1.68301E+18,16.36139966,0.37349999,-0.849099994,0.224999994,,1.499499917,-0.190299988,9.689399719,,817,1.872999907,-1.039399981,9.914399713
1.68301E+18,16.38139966,0.269099981,-0.60679996,-0.009099999,,1.505800009,-0.1972,9.688300133,,818,1.774899989,-0.80399996,9.679200133
1.68301E+18,16.40139966,0.047199998,-0.374899983,-0.205499992,,1.502099991,-0.213399991,9.688499451,,819,1.549299989,-0.588299975,9.482999459
1.68301E+18,16.42139966,-0.147799999,-0.218499988,-0.412599981,,1.491400003,-0.232499987,9.689700127,,820,1.343600005,-0.450999975,9.277100146
1.68301E+18,16.44139966,-0.254399985,-0.115999997,-0.727799952,,1.480199933,-0.246699989,9.691100121,,821,1.225799948,-0.362699986,8.963300169
1.68301E+18,16.46139966,-0.202999994,-0.061199997,-1.218400002,,1.477800012,-0.252499998,9.691299438,,822,1.274800017,-0.313699994,8.472899437
1.68301E+18,16.48139966,-0.080799997,-0.044599999,-1.698199987,,1.483199954,-0.249499992,9.690599442,,823,1.402399957,-0.29409999,7.992399454
1.68301E+18,16.50139966,-0.025699999,-0.034600001,-2.137599945,,1.496699929,-0.239899993,9.688699722,,824,1.47099993,-0.274499994,7.551099777
1.68301E+18,16.52139966,-0.129600003,-0.076399997,-2.341399908,,1.512399912,-0.227499992,9.686599731,,825,1.382799909,-0.303899989,7.345199823
1.68301E+18,16.54139966,-0.328299999,-0.046299998,-2.496799946,,1.524799943,-0.208499998,9.685099602,,826,1.196499944,-0.254799996,7.188299656
1.68301E+18,16.56140112,-0.500699997,-0.028299998,-2.368899822,,1.530399919,-0.187399998,9.684599876,,827,1.029699922,-0.215699997,7.315700054
1.68301E+18,16.58139966,-0.687699974,0.038899999,-2.272599936,,1.521299958,-0.1664,9.686499596,,828,0.833599985,-0.127500001,7.41389966
1.68301E+18,16.60139966,-0.726899981,0.025899999,-2.138799906,,1.501699924,-0.1435,9.689899445,,829,0.774799943,-0.117600001,7.551099539
1.68301E+18,16.62140112,-0.509800017,-0.167099997,-1.602999926,,1.480599999,-0.117199995,9.693499565,,830,0.970799983,-0.284299992,8.09049964
1.68301E+18,16.64139966,-0.1259,-0.258100003,-1.174899936,,1.459599972,-0.094799995,9.696899414,,831,1.333699971,-0.352899998,8.521999478
1.68301E+18,16.66139966,0.163599998,-0.080699995,-1.039999962,,1.444499969,-0.085900001,9.699199677,,832,1.608099967,-0.166599996,8.659199715
1.68301E+18,16.68139966,0.208700001,0.244899988,-1.15989995,,1.42900002,-0.088,9.701499939,,833,1.637700021,0.156899989,8.541599989
1.68301E+18,16.70140112,0.023799999,0.433099985,-1.368899941,,1.407899976,-0.089899994,9.70459938,,834,1.431699974,0.343199991,8.335699439
1.68301E+18,16.72139966,0.011,0.378899992,-1.665699959,,1.391199946,-0.074900001,9.707099915,,835,1.402199946,0.30399999,8.041399956
1.68301E+18,16.74139966,0.255499989,-0.0005,-1.077299953,,1.391899943,-0.048499998,9.70720005,,836,1.647399932,-0.048999998,8.629900098
1.68301E+18,16.76139966,0.574499965,-0.744199991,0.354900002,,1.396600008,-0.0206,9.706600189,,837,1.971099973,-0.764799992,10.06150019
1.68301E+18,16.78139966,0.804199994,-1.287400007,1.669799924,,1.402199984,-0.0069,9.705800056,,838,2.206399977,-1.294300007,11.37559998
1.68301E+18,16.80139966,1.058300018,-1.50819993,2.660399914,,1.403100014,-0.0118,9.705699921,,839,2.461400032,-1.51999993,12.36609983
1.68301E+18,16.82139966,1.024399996,-1.394599915,3.229899883,,1.407599926,-0.037,9.704999924,,840,2.431999922,-1.431599915,12.93489981
1.68301E+18,16.84139966,0.68599999,-0.780699968,3.008299828,,1.432199955,-0.092,9.701000214,,841,2.118199944,-0.872699969,12.70930004
1.68301E+18,16.86139966,0.1219,-0.1285,1.93569994,,1.466599941,-0.165600002,9.694899559,,842,1.588499941,-0.294100001,11.6305995
1.68301E+18,16.88139966,-0.300199986,0.0007,1.228699923,,1.516299963,-0.226300001,9.68599987,,843,1.216099977,-0.225600001,10.91469979
1.68301E+18,16.90139966,-0.349299997,-0.655799985,1.982299924,,1.565299988,-0.246299997,9.677700043,,844,1.215999991,-0.902099982,11.65999997
1.68301E+18,16.92139966,0.0003,-1.209200025,3.398299932,,1.58829999,-0.251899987,9.673799515,,845,1.58859999,-1.461100012,13.07209945
1.68301E+18,16.94139966,-0.144999996,-1.14109993,5.424599648,,1.557199955,-0.300300002,9.677499771,,846,1.412199959,-1.441399932,15.10209942
1.68301E+18,16.96139966,-0.270599991,-0.620999992,5.927000046,,1.486699939,-0.398799986,9.684999466,,847,1.216099948,-1.019799978,15.61199951
1.68301E+18,16.98139966,-0.867299974,0.025899999,4.107800007,,1.42629993,-0.486799985,9.690099716,,848,0.558999956,-0.460899986,13.79789972
1.68301E+18,17.00139966,-0.562399983,0.353300005,1.577299953,,1.415499926,-0.510199964,9.690499306,,849,0.853099942,-0.156899959,11.26779926
1.68301E+18,17.02139966,0.038799997,0.485100001,-0.325899988,,1.481099963,-0.494899988,9.681499481,,850,1.519899961,-0.009799987,9.355599493
1.68301E+18,17.04139966,0.451799989,0.529799998,-1.221699953,,1.587799907,-0.480799973,9.66519928,,851,2.039599895,0.049000025,8.443499327
1.68301E+18,17.06139966,0.094299994,0.520900011,-1.649500012,,1.670799971,-0.471799999,9.65170002,,852,1.765099965,0.049100012,8.002200007
1.68301E+18,17.08139966,-0.731399953,0.583199978,-1.869799972,,1.702299953,-0.465499997,9.646499634,,853,0.970899999,0.117699981,7.776699662
1.68301E+18,17.10139966,-1.335299969,0.495299995,-1.754599929,,1.688399911,-0.465899974,9.648900032,,854,0.353099942,0.029400021,7.894300103
1.68301E+18,17.12139966,-1.696999907,0.435900003,-1.533899903,,1.657799959,-0.475099981,9.653800011,,855,-0.039199948,-0.039199978,8.119900107
1.68301E+18,17.14139966,-1.627399921,0.495599985,-1.144099951,,1.637199998,-0.495599985,9.656199455,,856,0.009800076,0,8.512099504
1.68301E+18,17.16139966,-1.074999928,0.623899996,-0.53609997,,1.62409997,-0.535699964,9.656299591,,857,0.549100041,0.088200033,9.120199621
1.68301E+18,17.18139966,-0.631799996,0.739600003,-0.270599991,,1.612399936,-0.582700014,9.655599594,,858,0.98059994,0.156899989,9.384999603
1.68301E+18,17.20139966,-0.326599985,0.78459996,-0.427100003,,1.601499915,-0.617900014,9.655200005,,859,1.27489993,0.166699946,9.228100002
1.68301E+18,17.22139966,-0.175300002,0.760699987,-0.799499989,,1.597199917,-0.63319999,9.654899597,,860,1.421899915,0.127499998,8.855399609
1.68301E+18,17.24139966,0.0524,0.635499954,-1.072700024,,1.604799986,-0.635499954,9.653499603,,861,1.657199986,0,8.58079958
1.68301E+18,17.26139966,0.339100003,0.577799976,-1.069700003,,1.622099996,-0.636599958,9.650499344,,862,1.961199999,-0.058799982,8.580799341
1.68301E+18,17.28139966,0.19749999,0.6426,-1.320199966,,1.646099925,-0.6426,9.646100044,,863,1.843599916,0,8.325900078
1.68301E+18,17.30139966,-0.41169998,0.856599987,-1.835899949,,1.66689992,-0.650599957,9.642000198,,864,1.255199939,0.20600003,7.806100249
1.68301E+18,17.32139966,-0.936399996,0.970799983,-2.215299845,,1.681699991,-0.657000005,9.638999939,,865,0.745299995,0.313799977,7.423700094
1.68301E+18,17.34139966,-1.220000029,1.028499961,-2.331500053,,1.690699935,-0.655900002,9.637499809,,866,0.470699906,0.372599959,7.305999756
1.68301E+18,17.36139966,-1.384299994,1.045899987,-2.183300018,,1.698099971,-0.653599977,9.636300087,,867,0.313799977,0.39230001,7.453000069
1.68301E+18,17.38139966,-1.519400001,1.057099938,-1.63259995,,1.705699921,-0.654999971,9.634900093,,868,0.18629992,0.402099967,8.002300143
1.68301E+18,17.40139966,-1.650299907,1.146099925,-1.072999954,,1.709199905,-0.655799985,9.634200096,,869,0.058899999,0.49029994,8.561200142
1.68301E+18,17.42139966,-1.830500007,1.067199945,-0.76730001,,1.722599983,-0.645500004,9.632499695,,870,-0.107900023,0.421699941,8.865199685
1.68301E+18,17.44139966,-1.869599938,0.60799998,-0.521099985,,1.7421,-0.60799998,9.631400108,,871,-0.127499938,0,9.110300124
