time,seconds_elapsed,z,y,x
1683009332334402800,0.04140283203125,-0.9021999835968018,-0.0210999995470047,0.7365999817848206
1683009332354399700,0.061399658203125,-0.9021999835968018,-0.0210999995470047,0.7365999817848206
1683009332374406000,0.081406005859375,-0.9021999835968018,-0.0210999995470047,0.7365999817848206
1683009332394399700,0.101399658203125,0.05069999769330025,-0.031199999153614044,0.2979999780654907
1683009332414399700,0.121399658203125,0.16689999401569366,-0.18609999120235443,0.3473999798297882
1683009332434399700,0.141399658203125,0.15839999914169312,0.008299999870359898,0.13300000131130219
1683009332454401300,0.1614013671875,-0.013599999248981476,0.0737999975681305,0.1014999970793724
1683009332474399700,0.181399658203125,-0.22289998829364777,0.038599997758865356,0.21409998834133148
1683009332494399700,0.201399658203125,-0.23409999907016754,-0.11319999396800995,0.3782999813556671
1683009332514399700,0.221399658203125,0.030799999833106995,-0.06799999624490738,0.19259999692440033
1683009332534399700,0.241399658203125,0.023499999195337296,0.04580000042915344,-0.0421999990940094
1683009332554399700,0.261399658203125,0.08460000157356262,0.09989999979734421,-0.08729999512434006
1683009332574399700,0.281399658203125,-0.015799999237060547,0.04519999772310257,0.018799999728798866
1683009332594399700,0.301399658203125,-0.0802999958395958,0.08060000091791153,0.18940000236034393
1683009332614399700,0.321399658203125,0.05869999900460243,0.028999999165534973,0.3130999803543091
1683009332634399700,0.341399658203125,0.09129999577999115,-0.06039999797940254,0.17139999568462372
1683009332654399700,0.361399658203125,0.2085999995470047,0.13840000331401825,-0.1454000025987625
1683009332674401300,0.3814013671875,0.06199999898672104,0.22419999539852142,-0.36329999566078186
1683009332694399700,0.401399658203125,-0.13910000026226044,0.25509998202323914,-0.13499999046325684
1683009332714399700,0.421399658203125,0.19849999248981476,-0.002699999837204814,0.671999990940094
1683009332734399700,0.441399658203125,-0.21239998936653137,0.06619999557733536,0.2906000018119812
1683009332754399700,0.461399658203125,-0.14249999821186066,0.13669998943805695,-0.013199999928474426
1683009332774399700,0.481399658203125,-0.0729999989271164,-0.057099997997283936,0.14489999413490295
1683009332794399700,0.501399658203125,0.05559999868273735,-0.0551999993622303,0.26339998841285706
1683009332814399700,0.521399658203125,0.16749998927116394,0.11779999732971191,0.4503999948501587
1683009332834399700,0.541399658203125,0.26669999957084656,0.20809999108314514,0.4438000023365021
1683009332854399700,0.561399658203125,0.1955999881029129,0.5020999908447266,0.6258000135421753
1683009332874399700,0.581399658203125,0.22029998898506165,0.5874999761581421,0.7680000066757202
1683009332894399700,0.601399658203125,0.3577999770641327,0.5679000020027161,0.8641999959945679
1683009332914399700,0.621399658203125,0.18439999222755432,0.4098999798297882,0.6645999550819397
1683009332934399700,0.641399658203125,0.02539999969303608,0.32099997997283936,0.6126999855041504
1683009332954399700,0.661399658203125,-0.3382999897003174,0.26440000534057617,0.012600000016391277
1683009332974399700,0.681399658203125,-0.2401999980211258,0.1297999918460846,-0.7303000092506409
1683009332994399700,0.701399658203125,-0.4291999936103821,0.07180000096559525,-1.0893999338150024
1683009333014399700,0.721399658203125,-0.552299976348877,0.09609999507665634,-0.9695999622344971
1683009333034399700,0.741399658203125,-0.27489998936653137,0.07699999958276749,-1.056399941444397
1683009333054399700,0.761399658203125,-0.1354999989271164,0.1062999963760376,-0.868399977684021
1683009333074399700,0.781399658203125,-0.21059998869895935,0.35749998688697815,-0.7418999671936035
1683009333094399700,0.801399658203125,-1.0231999158859253,0.5737999677658081,-0.7130999565124512
1683009333114399700,0.821399658203125,0.17379999160766602,0.7303999662399292,-0.6722999811172485
1683009333134399700,0.841399658203125,-0.1362999975681305,0.538599967956543,-0.7001999616622925
1683009333154399700,0.861399658203125,0.15709999203681946,0.4950999915599823,-0.6207000017166138
1683009333174399700,0.881399658203125,0.2240999937057495,0.4090999960899353,-0.5687999725341797
1683009333194399700,0.901399658203125,-0.289900004863739,0.6212999820709229,-1.1093999147415161
1683009333214399700,0.921399658203125,-0.6150999665260315,0.953499972820282,-1.886099934577942
1683009333234399700,0.941399658203125,-1.1043999195098877,0.9619999527931213,-2.4851999282836914
1683009333254399700,0.961399658203125,-1.0788999795913696,0.8307999968528748,-2.3282999992370605
1683009333274399700,0.981399658203125,-1.192099928855896,0.5805999636650085,-2.23009991645813
1683009333294399700,1.001399658203125,-0.9268999695777893,0.3285999894142151,-1.8960999250411987
1683009333314399700,1.021399658203125,-0.6679999828338623,0.272599995136261,-1.180799961090088
1683009333334399700,1.041399658203125,-0.5342000126838684,0.2636999785900116,-0.8393999934196472
1683009333354399700,1.061399658203125,-0.38109999895095825,0.41269999742507935,-1.0371999740600586
1683009333374399700,1.081399658203125,-0.24889999628067017,0.4737999737262726,-1.1268999576568604
1683009333394399700,1.101399658203125,-0.13019999861717224,0.2865999937057495,-0.8032000064849854
1683009333414399700,1.121399658203125,0.12520000338554382,-0.09339999407529831,0.08909999579191208
1683009333434399700,1.141399658203125,0.3889999985694885,-0.5562999844551086,1.6368999481201172
1683009333454401300,1.1614013671875,0.6238999962806702,-0.7447999715805054,3.1743998527526855
1683009333474399700,1.181399658203125,0.8613999485969543,-0.7773999571800232,4.2708001136779785
1683009333494399700,1.201399658203125,0.9247999787330627,-0.4453999996185303,3.759199857711792
1683009333514399700,1.221399658203125,1.1161999702453613,-0.5390999913215637,2.631700038909912
1683009333534401300,1.2414013671875,1.3874999284744263,-0.9535999894142151,2.202199935913086
1683009333554399700,1.261399658203125,1.4977999925613403,-1.5242999792099,2.5576999187469482
1683009333574399700,1.281399658203125,1.0504999160766602,-1.720099925994873,2.990000009536743
1683009333594399700,1.301399658203125,1.2173999547958374,-1.6667999029159546,2.480599880218506
1683009333614399700,1.321399658203125,1.2745000123977661,-1.424399971961975,1.8745999336242676
1683009333634399700,1.341399658203125,0.8452000021934509,-1.3890999555587769,1.2596999406814575
1683009333654399700,1.361399658203125,0.5108999609947205,-1.128000020980835,0.5961999893188477
1683009333674401300,1.3814013671875,0.5126999616622925,-0.8797999620437622,0.16569998860359192
1683009333694399700,1.401399658203125,0.6539999842643738,-0.8445000052452087,-0.34219998121261597
1683009333714399700,1.421399658203125,0.9363999962806702,-0.8199999928474426,-0.4854999780654907
1683009333734399700,1.441399658203125,1.0288000106811523,-0.5988999605178833,-0.5396000146865845
1683009333754401300,1.4614013671875,0.748699963092804,-0.4658999741077423,-0.7799999713897705
1683009333774399700,1.481399658203125,0.27629998326301575,-0.41449999809265137,-0.8062999844551086
1683009333794399700,1.501399658203125,-0.10809999704360962,-0.3247999846935272,-1.2055000066757202
1683009333814401300,1.5214013671875,-0.2970999777317047,-0.34950000047683716,-1.2615000009536743
1683009333834399700,1.541399658203125,-0.22450000047683716,-0.3537999987602234,-1.3280999660491943
1683009333854399700,1.561399658203125,-0.2538999915122986,-0.23229999840259552,-1.4740999937057495
1683009333874399700,1.581399658203125,-0.24069999158382416,-0.06359999626874924,-1.5809999704360962
1683009333894399700,1.601399658203125,-0.5203999876976013,0.07360000163316727,-1.4609999656677246
1683009333914399700,1.621399658203125,-0.6496999859809875,0.2888000011444092,-1.663599967956543
1683009333934399700,1.641399658203125,-0.7142999768257141,0.26980000734329224,-2.030900001525879
1683009333954401300,1.6614013671875,-0.5396999716758728,0.031199999153614044,-1.9392999410629272
1683009333974399700,1.681399658203125,-0.2994999885559082,-0.3296999931335449,-1.8025999069213867
1683009333994399700,1.701399658203125,-0.23179998993873596,-0.31689998507499695,-1.618899941444397
1683009334014399700,1.721399658203125,-0.20149999856948853,0.00559999980032444,-0.7676999568939209
1683009334034401300,1.7414013671875,-0.6951999664306641,0.382099986076355,-0.493399977684021
1683009334054399700,1.761399658203125,-0.7753999829292297,0.45159998536109924,-0.6216999888420105
1683009334074399700,1.781399658203125,-0.30699998140335083,0.4080999791622162,-0.17309999465942383
1683009334094399700,1.801399658203125,0.5745999813079834,0.2263999879360199,0.9322999715805054
1683009334114401300,1.8214013671875,1.1607999801635742,-0.19739998877048492,1.9886999130249023
1683009334134399700,1.841399658203125,1.0611000061035156,-0.4936999976634979,2.504699945449829
1683009334154399700,1.861399658203125,0.6597999930381775,-0.6324999928474426,2.1301000118255615
1683009334174401300,1.8814013671875,0.24329999089241028,-0.7981999516487122,1.5033999681472778
1683009334194399700,1.901399658203125,0.3570999801158905,-1.4642000198364258,1.907599925994873
1683009334214399700,1.921399658203125,1.3051999807357788,-2.2132999897003174,4.034599781036377
1683009334234399700,1.941399658203125,2.2219998836517334,-1.814099907875061,5.441199779510498
1683009334254401300,1.9614013671875,2.361299991607666,-0.8789999485015869,4.35159969329834
1683009334274399700,1.981399658203125,1.2253999710083008,-0.4919999837875366,1.9254999160766602
1683009334294399700,2.001399658203125,-0.07509999722242355,-0.5583999752998352,0.21799999475479126
1683009334314401300,2.0214013671875,-0.9549999833106995,-0.9954999685287476,-0.22540000081062317
1683009334334399700,2.041399658203125,-1.184399962425232,-1.3597999811172485,-0.350600004196167
1683009334354399700,2.061399658203125,-0.4542999863624573,-1.4375,-0.1551000028848648
1683009334374399700,2.081399658203125,0.7368999719619751,-1.0666999816894531,0.10949999839067459
1683009334394399700,2.101399658203125,1.3975999355316162,-0.6506999731063843,-0.004900000058114529
1683009334414399700,2.121399658203125,1.2560999393463135,-0.29600000381469727,-0.18609999120235443
1683009334434399700,2.141399658203125,0.39499998092651367,-0.002899999963119626,-0.5331000089645386
1683009334454401300,2.1614013671875,-0.44759997725486755,0.22699999809265137,-0.5267999768257141
1683009334474399700,2.181399658203125,-0.9222999811172485,0.47540000081062317,-0.34299999475479126
1683009334494399700,2.201399658203125,-1.4063999652862549,0.5911999940872192,-0.28540000319480896
1683009334514399700,2.221399658203125,-1.3988999128341675,0.7863999605178833,-0.5701999664306641
1683009334534399700,2.241399658203125,-1.2258999347686768,0.8826999664306641,-0.9045999646186829
1683009334554399700,2.261399658203125,-1.2299000024795532,0.9562000036239624,-1.2695000171661377
1683009334574399700,2.281399658203125,-1.670199990272522,0.9777999520301819,-1.723099946975708
1683009334594401300,2.3014013671875,-2.34879994392395,0.8810999989509583,-2.2751998901367188
1683009334614399700,2.321399658203125,-2.4860999584198,0.6280999779701233,-3.0752999782562256
1683009334634399700,2.341399658203125,-2.362499952316284,0.46399998664855957,-3.0262999534606934
1683009334654399700,2.361399658203125,-1.9946999549865723,0.3723999857902527,-1.833400011062622
1683009334674401300,2.3814013671875,-1.1327999830245972,0.15429998934268951,-0.41999998688697815
1683009334694399700,2.401399658203125,0.6108999848365784,-0.0032999999821186066,0.6072999835014343
1683009334714399700,2.421399658203125,1.9325000047683716,0.013399999588727951,0.6758999824523926
1683009334734399700,2.441399658203125,1.2441999912261963,0.2822999954223633,-0.5830000042915344
1683009334754401300,2.4614013671875,-0.1251000016927719,0.49149999022483826,-1.465499997138977
1683009334774399700,2.481399658203125,-0.9759999513626099,0.39499998092651367,-1.1150000095367432
1683009334794399700,2.501399658203125,-0.638700008392334,0.0640999972820282,0.057099997997283936
1683009334814401300,2.5214013671875,0.6470999717712402,-0.3537999987602234,1.358299970626831
1683009334834399700,2.541399658203125,1.5889999866485596,-0.4368000030517578,2.8259999752044678
1683009334854399700,2.561399658203125,1.6155999898910522,0.07400000095367432,3.4801998138427734
1683009334874399700,2.581399658203125,1.4291999340057373,0.35839998722076416,3.7921998500823975
1683009334894399700,2.601399658203125,1.1943999528884888,0.27799999713897705,3.623499870300293
1683009334914399700,2.621399658203125,0.8574000000953674,-0.3254999816417694,2.9828999042510986
1683009334934399700,2.641399658203125,0.8460999727249146,-1.1621999740600586,2.4911999702453613
1683009334954401300,2.6614013671875,0.9578999876976013,-1.9113999605178833,2.0713000297546387
1683009334974399700,2.681399658203125,0.9316999912261963,-2.0374999046325684,1.799799919128418
1683009334994399700,2.701399658203125,0.5507999658584595,-1.6928999423980713,0.9884999990463257
1683009335014399700,2.721399658203125,0.003700000001117587,-1.5245000123977661,-0.14819999039173126
1683009335034401300,2.7414013671875,-0.19139999151229858,-1.5032999515533447,-0.8233000040054321
1683009335054399700,2.761399658203125,-0.044499997049570084,-1.403999924659729,-0.21409998834133148
1683009335074399700,2.781399658203125,0.14800000190734863,-1.1074999570846558,0.30320000648498535
1683009335094399700,2.801399658203125,0.4755999743938446,-0.736799955368042,0.14319999516010284
1683009335114399700,2.821399658203125,0.8287000060081482,-0.503600001335144,-0.5242999792098999
1683009335134399700,2.841399658203125,0.9190999865531921,-0.41259998083114624,-0.9830999970436096
1683009335154399700,2.861399658203125,0.525600016117096,-0.39089998602867126,-1.3432999849319458
1683009335174401300,2.8814013671875,0.07369999587535858,-0.298799991607666,-1.3521000146865845
1683009335194399700,2.901399658203125,0.1046999990940094,-0.08179999887943268,-1.2644000053405762
1683009335214399700,2.921399658203125,0.38179999589920044,0.149399995803833,-1.0196000337600708
1683009335234399700,2.941399658203125,0.5013999938964844,0.33390000462532043,-0.8039000034332275
1683009335254401300,2.9614013671875,0.6315999627113342,0.6039999723434448,-0.7353999614715576
1683009335274399700,2.981399658203125,0.60589998960495,0.8667999505996704,-0.9614999890327454
1683009335294399700,3.001399658203125,0.23999999463558197,1.0275999307632446,-1.167699933052063
1683009335314401300,3.0214013671875,-0.0916999951004982,1.2264000177383423,-1.520900011062622
1683009335334399700,3.041399658203125,-0.32170000672340393,1.3061000108718872,-1.795300006866455
1683009335354399700,3.061399658203125,-0.3098999857902527,1.2791999578475952,-2.000999927520752
1683009335374399700,3.081399658203125,-0.27059999108314514,1.1327999830245972,-2.285399913787842
1683009335394399700,3.101399658203125,0.11389999836683273,0.9065999984741211,-2.097899913787842
1683009335414399700,3.121399658203125,0.5536999702453613,0.656499981880188,-1.1067999601364136
1683009335434399700,3.141399658203125,0.8629999756813049,0.5335999727249146,0.031199999153614044
1683009335454401300,3.1614013671875,1.0418000221252441,0.726099967956543,0.6880999803543091
1683009335474399700,3.181399658203125,0.8477999567985535,0.8382999897003174,0.7550999522209167
1683009335494399700,3.201399658203125,0.5234999656677246,0.7827000021934509,0.03689999878406525
1683009335514399700,3.221399658203125,0.14069999754428864,0.5162000060081482,-0.06279999762773514
1683009335534401300,3.2414013671875,-0.016300000250339508,0.18199999630451202,0.4156000018119812
1683009335554399700,3.261399658203125,0.03150000050663948,-0.23279999196529388,2.019399881362915
1683009335574399700,3.281399658203125,0.3019999861717224,-0.6417999863624573,3.9826998710632324
1683009335594399700,3.301399658203125,0.6136999726295471,-0.8800999522209167,4.994800090789795
1683009335614401300,3.3214013671875,0.6823999881744385,-0.7240999937057495,4.381799697875977
1683009335634399700,3.341399658203125,0.3852999806404114,-0.614300012588501,2.9301998615264893
1683009335654399700,3.361399658203125,0.17339999973773956,-1.0119999647140503,2.40339994430542
1683009335674401300,3.3814013671875,-0.20559999346733093,-1.1927000284194946,2.3755998611450195
1683009335694399700,3.401399658203125,-0.7172999978065491,-1.1657999753952026,1.8751999139785767
1683009335714399700,3.421399658203125,-0.9501000046730042,-1.3597999811172485,1.0408999919891357
1683009335734399700,3.441399658203125,-0.4465999901294708,-1.5053999423980713,0.1087999939918518
1683009335754401300,3.4614013671875,0.0811999961733818,-1.4972000122070312,0.01119999960064888
1683009335774399700,3.481399658203125,0.42399999499320984,-1.107100009918213,-0.41019999980926514
1683009335794399700,3.501399658203125,0.32099997997283936,-0.8738999962806702,-0.24569998681545258
1683009335814401300,3.5214013671875,0.2612999975681305,-0.4389999806880951,-0.16189999878406525
1683009335834399700,3.541399658203125,0.1419999897480011,-0.011699999682605267,-0.11559999734163284
1683009335854399700,3.561399658203125,-0.2913999855518341,0.23309999704360962,-0.19519999623298645
1683009335874399700,3.581399658203125,-0.677899956703186,0.2630999982357025,-0.6750999689102173
1683009335894399700,3.601399658203125,-0.6972000002861023,0.030899999663233757,-1.1150000095367432
1683009335914399700,3.621399658203125,-0.4440999925136566,-0.18209999799728394,-1.5841000080108643
1683009335934399700,3.641399658203125,-0.1711999922990799,-0.4544000029563904,-1.7294999361038208
1683009335954401300,3.6614013671875,-0.10889999568462372,-0.500499963760376,-1.7382999658584595
1683009335974399700,3.681399658203125,-0.31700000166893005,-0.3440999984741211,-1.6202999353408813
1683009335994399700,3.701399658203125,-0.6614999771118164,-0.14710000157356262,-1.414199948310852
1683009336014399700,3.721399658203125,-0.8567999601364136,-0.03529999777674675,-1.1298999786376953
1683009336034401300,3.7414013671875,-0.8890999555587769,0.02630000002682209,-0.9921000003814697
1683009336054399700,3.761399658203125,-0.8565999865531921,0.06350000202655792,-0.8733999729156494
1683009336074399700,3.781399658203125,-0.6929999589920044,0.10740000009536743,-0.9693999886512756
1683009336094399700,3.801399658203125,-0.7324000000953674,0.10089999437332153,-1.2899999618530273
1683009336114399700,3.821399658203125,-0.6943999528884888,0.04809999838471413,-1.5809999704360962
1683009336134399700,3.841399658203125,-0.6572999954223633,-0.045399997383356094,-1.5188000202178955
1683009336154402800,3.86140283203125,-0.6793999671936035,0.020499998703598976,-1.3011999130249023
1683009336174402800,3.88140283203125,-0.6764999628067017,0.13939999043941498,-1.1038999557495117
1683009336194399700,3.901399658203125,-0.6678000092506409,0.18949998915195465,-0.70169997215271
1683009336214399700,3.921399658203125,-0.3837999999523163,0.06059999763965607,-0.15240000188350677
1683009336234399700,3.941399658203125,0.14429999887943268,-0.37459999322891235,1.1730999946594238
1683009336254401300,3.9614013671875,0.5091999769210815,-0.6561999917030334,3.01639986038208
1683009336274399700,3.981399658203125,0.4285999834537506,-0.42559999227523804,3.719899892807007
1683009336294399700,4.001399658203125,0.19219999015331268,-0.10779999941587448,2.981599807739258
1683009336314401300,4.0214013671875,0.3546999990940094,-0.4244000017642975,1.9131999015808105
1683009336334399700,4.041399658203125,0.8950999975204468,-0.8456999659538269,1.0152000188827515
1683009336354399700,4.061399658203125,1.011299967765808,-1.4704999923706055,0.8925999999046326
1683009336374399700,4.081399658203125,0.8676999807357788,-1.8832999467849731,1.7860000133514404
1683009336394399700,4.101399658203125,0.7321999669075012,-1.6110999584197998,3.359799861907959
1683009336414399700,4.121399658203125,0.7181000113487244,-0.9364999532699585,3.9707999229431152
1683009336434399700,4.141399658203125,0.6293999552726746,-0.33799999952316284,2.909299850463867
1683009336454401300,4.1614013671875,0.5108999609947205,-0.2929999828338623,1.1068999767303467
1683009336474399700,4.181399658203125,0.519599974155426,-0.552299976348877,0.35510000586509705
1683009336494399700,4.201399658203125,0.3845999836921692,-0.677299976348877,0.39569997787475586
1683009336514399700,4.221399658203125,0.1875,-0.3431999981403351,0.22809998691082
1683009336534401300,4.2414013671875,0.17989999055862427,0.06969999521970749,-0.06669999659061432
1683009336554399700,4.261399658203125,0.37709999084472656,0.42969998717308044,-0.7516999840736389
1683009336574399700,4.281399658203125,0.42339998483657837,0.7236999869346619,-1.4345999956130981
1683009336594401300,4.3014013671875,0.1533999890089035,0.8323000073432922,-1.9013999700546265
1683009336614401300,4.3214013671875,-0.3974999785423279,0.8707999587059021,-1.9490000009536743
1683009336634399700,4.341399658203125,-0.7802000045776367,0.8998000025749207,-1.6274999380111694
1683009336654399700,4.361399658203125,-0.856499969959259,0.9301999807357788,-1.1023999452590942
1683009336674401300,4.3814013671875,-0.7448999881744385,0.8725999593734741,-0.6169999837875366
1683009336694399700,4.401399658203125,-0.2818000018596649,0.780299961566925,-0.5144999623298645
1683009336714399700,4.421399658203125,0.3199999928474426,0.6410999894142151,-0.9212999939918518
1683009336734399700,4.441399658203125,0.7324000000953674,0.5704999566078186,-1.4637999534606934
1683009336754401300,4.4614013671875,0.9434999823570251,0.5372999906539917,-1.799399971961975
1683009336774399700,4.481399658203125,0.8490999937057495,0.4738999903202057,-2.026900053024292
1683009336794399700,4.501399658203125,0.5058000087738037,0.35199999809265137,-1.8233999013900757
1683009336814401300,4.5214013671875,0.2773999869823456,0.30399999022483826,-1.3952000141143799
1683009336834399700,4.541399658203125,0.16189999878406525,0.18490000069141388,-0.7795999646186829
1683009336854399700,4.561399658203125,0.28790000081062317,-0.03139999881386757,0.1404999941587448
1683009336874399700,4.581399658203125,0.5673999786376953,-0.16539999842643738,1.3823000192642212
1683009336894401300,4.6014013671875,0.861299991607666,-0.24309998750686646,2.1836998462677
1683009336914399700,4.621399658203125,0.9735999703407288,-0.4140999913215637,2.751699924468994
1683009336934399700,4.641399658203125,0.9793999791145325,-0.35819998383522034,2.889400005340576
1683009336954401300,4.6614013671875,0.583899974822998,-0.4105999767780304,2.6262998580932617
1683009336974399700,4.681399658203125,0.1087999939918518,-0.5789999961853027,2.2358999252319336
1683009336994399700,4.701399658203125,-0.11819999665021896,-0.8202999830245972,2.060999870300293
1683009337014399700,4.721399658203125,-0.19009999930858612,-0.8888999819755554,1.8949999809265137
1683009337034401300,4.7414013671875,-0.39010000228881836,-0.6040999889373779,1.1699999570846558
1683009337054399700,4.761399658203125,-0.6107999682426453,-0.5631999969482422,0.1914999932050705
1683009337074399700,4.781399658203125,-0.531499981880188,-1.0773999691009521,0.3414999842643738
1683009337094399700,4.801399658203125,-0.3253999948501587,-1.2763999700546265,1.0757999420166016
1683009337114399700,4.821399658203125,-0.19769999384880066,-0.9085999727249146,1.5814999341964722
1683009337134399700,4.841399658203125,-0.094200000166893,-0.4837999939918518,1.3128999471664429
1683009337154399700,4.861399658203125,0.210099995136261,-0.16110000014305115,0.5575000047683716
1683009337174401300,4.8814013671875,0.32729998230934143,-0.05269999802112579,-0.23420000076293945
1683009337194399700,4.901399658203125,-0.08709999918937683,0.011799999512732029,-0.7999999523162842
1683009337214399700,4.921399658203125,-0.5684999823570251,0.032899998128414154,-1.1024999618530273
1683009337234399700,4.941399658203125,-0.8540999889373779,0.0058999997563660145,-1.1122000217437744
1683009337254401300,4.9614013671875,-0.8197999596595764,0.07069999724626541,-1.0835000276565552
1683009337274399700,4.981399658203125,-0.5410000085830688,0.2280000001192093,-0.9677000045776367
1683009337294399700,5.001399658203125,-0.05729999765753746,0.16849999129772186,-0.8235999941825867
1683009337314401300,5.0214013671875,0.21400000154972076,0.2442999929189682,-0.6603999733924866
1683009337334399700,5.041399658203125,0.29569998383522034,0.34929999709129333,-0.5848000049591064
1683009337354399700,5.061399658203125,0.1225999966263771,0.48249998688697815,-0.9086999893188477
1683009337374399700,5.081399658203125,-0.24229998886585236,0.5643999576568604,-1.367900013923645
1683009337394399700,5.101399658203125,-0.5997999906539917,0.4966999888420105,-1.63919997215271
1683009337414399700,5.121399658203125,-1.0958999395370483,0.48729997873306274,-1.7631999254226685
1683009337434399700,5.141399658203125,-1.3931999206542969,0.6833999752998352,-2.2207000255584717
1683009337454401300,5.1614013671875,-1.493499994277954,0.7710999846458435,-2.3922998905181885
1683009337474399700,5.181399658203125,-1.1089999675750732,0.7247999906539917,-1.7810999155044556
1683009337494399700,5.201399658203125,-0.6466000080108643,0.8147000074386597,-0.9061999917030334
1683009337514399700,5.221399658203125,-0.47509998083114624,0.9352999925613403,-0.10019999742507935
1683009337534401300,5.2414013671875,-0.41999998688697815,0.8565999865531921,0.2639999985694885
1683009337554399700,5.261399658203125,-0.3342999815940857,0.46959999203681946,0.5812999606132507
1683009337574399700,5.281399658203125,-0.13179999589920044,-0.05079999938607216,1.0856000185012817
1683009337594401300,5.3014013671875,0.1777999997138977,-0.5379999876022339,1.833799958229065
1683009337614401300,5.3214013671875,0.3019999861717224,-0.8376999497413635,2.217599868774414
1683009337634399700,5.341399658203125,0.28790000081062317,-0.8906999826431274,2.2455999851226807
1683009337654399700,5.361399658203125,0.27649998664855957,-0.772599995136261,1.7044999599456787
1683009337674401300,5.3814013671875,0.21239998936653137,-0.9320999979972839,1.4679999351501465
1683009337694399700,5.401399658203125,0.2240999937057495,-1.3001999855041504,1.7697999477386475
1683009337714399700,5.421399658203125,0.3660999834537506,-1.5432000160217285,2.462100028991699
1683009337734399700,5.441399658203125,0.5102999806404114,-1.5032999515533447,3.162799835205078
1683009337754401300,5.4614013671875,0.6090999841690063,-1.022499918937683,2.971099853515625
1683009337774399700,5.481399658203125,0.4966999888420105,-0.6158999800682068,2.055999994277954
1683009337794399700,5.501399658203125,0.36969998478889465,-0.5579000115394592,1.0054999589920044
1683009337814401300,5.5214013671875,0.4781000018119812,-0.6877999901771545,0.5149999856948853
1683009337834399700,5.541399658203125,0.5489000082015991,-0.6640999913215637,0.5036999583244324
1683009337854399700,5.561399658203125,0.5902000069618225,-0.4194999933242798,0.4324999749660492
1683009337874399700,5.581399658203125,0.8392999768257141,-0.04559999704360962,0.14569999277591705
1683009337894399700,5.601399658203125,0.8596000075340271,0.3212999999523163,-0.5999000072479248
1683009337914399700,5.621399658203125,0.7058999538421631,0.5734999775886536,-1.3644999265670776
1683009337934399700,5.641399658203125,0.5317999720573425,0.6617000102996826,-1.903499960899353
1683009337954401300,5.6614013671875,0.35499998927116394,0.7346000075340271,-2.3553998470306396
1683009337974399700,5.681399658203125,0.29409998655319214,0.8436999917030334,-2.2788000106811523
1683009337994399700,5.701399658203125,0.3154999911785126,0.9721999764442444,-2.0162999629974365
1683009338014399700,5.721399658203125,0.3107999861240387,1.044700026512146,-1.7630000114440918
1683009338034399700,5.741399658203125,0.3158999979496002,0.9952999949455261,-1.5298999547958374
1683009338054399700,5.761399658203125,0.3637999892234802,0.8267999887466431,-1.6104999780654907
1683009338074399700,5.781399658203125,0.5087999701499939,0.5508999824523926,-1.9059998989105225
1683009338094399700,5.801399658203125,0.664900004863739,0.22450000047683716,-2.092599868774414
1683009338114401300,5.8214013671875,0.6851999759674072,-0.03830000013113022,-2.171099901199341
1683009338134399700,5.841399658203125,0.468099981546402,-0.23839999735355377,-2.121500015258789
1683009338154399700,5.861399658203125,0.1022999957203865,-0.42879998683929443,-1.5121999979019165
1683009338174401300,5.8814013671875,-0.2035999894142151,-0.676800012588501,0.05700000002980232
1683009338194399700,5.901399658203125,-0.1744999885559082,-0.8323000073432922,2.017199993133545
1683009338214399700,5.921399658203125,0.12719999253749847,-1.115899920463562,3.712899923324585
1683009338234399700,5.941399658203125,0.5321999788284302,-1.314099907875061,4.506999969482422
1683009338254401300,5.9614013671875,0.8485999703407288,-1.2092000246047974,3.803299903869629
1683009338274399700,5.981399658203125,0.6029999852180481,-1.0551999807357788,2.4159998893737793
1683009338294399700,6.001399658203125,0.20549999177455902,-1.2365000247955322,2.0104000568389893
1683009338314401300,6.0214013671875,-0.2727999985218048,-1.6480998992919922,2.797600030899048
1683009338334399700,6.041399658203125,-0.6340999603271484,-1.7771999835968018,3.932299852371216
1683009338354399700,6.061399658203125,-0.7532999515533447,-1.3806999921798706,4.172100067138672
1683009338374399700,6.081399658203125,-0.7353999614715576,-0.670799970626831,3.2179999351501465
1683009338394399700,6.101399658203125,-0.5357999801635742,-0.21239998936653137,1.209399938583374
1683009338414399700,6.121399658203125,-0.5583999752998352,-0.13930000364780426,-0.4226999878883362
1683009338434399700,6.141399658203125,-0.8202999830245972,-0.19929999113082886,-1.3395999670028687
1683009338454399700,6.161399658203125,-1.2626999616622925,-0.32349997758865356,-1.5734999179840088
1683009338474399700,6.181399658203125,-1.3400999307632446,-0.21570000052452087,-1.174399971961975
1683009338494399700,6.201399658203125,-0.9296000003814697,0.07189999520778656,-0.6301999688148499
1683009338514399700,6.221399658203125,-0.3920999765396118,0.3814999759197235,-0.23240000009536743
1683009338534399700,6.241399658203125,0.13509999215602875,0.6295999884605408,-0.22509999573230743
1683009338554399700,6.261399658203125,0.6061999797821045,0.809499979019165,-0.4998999834060669
1683009338574399700,6.281399658203125,0.9102999567985535,0.8491999506950378,-0.763700008392334
1683009338594399700,6.301399658203125,0.8751999735832214,0.8442999720573425,-1.0858999490737915
1683009338614399700,6.321399658203125,0.3125,0.6912999749183655,-1.2026000022888184
1683009338634399700,6.341399658203125,-0.3668999969959259,0.7222999930381775,-1.2410999536514282
1683009338654399700,6.361399658203125,-0.8046000003814697,0.8052999973297119,-1.260699987411499
1683009338674399700,6.381399658203125,-0.8434000015258789,0.8702999949455261,-1.3876999616622925
1683009338694399700,6.401399658203125,-0.7220999598503113,0.9437999725341797,-1.6021000146865845
1683009338714399700,6.421399658203125,-0.592799961566925,1.0153999328613281,-1.7084999084472656
1683009338734399700,6.441399658203125,-0.5126999616622925,1.1352999210357666,-1.7364000082015991
1683009338754399700,6.461399658203125,-0.6448999643325806,1.1539000272750854,-1.7942999601364136
1683009338774399700,6.481399658203125,-0.8267999887466431,1.1469999551773071,-1.7358999252319336
1683009338794399700,6.501399658203125,-0.9887999892234802,1.0089999437332153,-1.2964999675750732
1683009338814399700,6.521399658203125,-0.9070000052452087,1.0226999521255493,-0.69159996509552
1683009338834399700,6.541399658203125,-0.7348999977111816,0.8836999535560608,-0.038100000470876694
1683009338854399700,6.561399658203125,-0.5590999722480774,0.457099974155426,0.5371999740600586
1683009338874399700,6.581399658203125,0.0017999999690800905,-0.04089999943971634,1.2896000146865845
1683009338894399700,6.601399658203125,0.5139999985694885,-0.4162999987602234,2.0520999431610107
1683009338914399700,6.621399658203125,0.849399983882904,-0.351500004529953,2.4916000366210938
1683009338934399700,6.641399658203125,0.8134999871253967,-0.1265999972820282,2.4213998317718506
1683009338954399700,6.661399658203125,0.6373999714851379,-0.11979999393224716,1.959299921989441
1683009338974399700,6.681399658203125,0.7493000030517578,-0.4916999936103821,1.9289000034332275
1683009338994399700,6.701399658203125,0.9405999779701233,-0.9071999788284302,2.7209999561309814
1683009339014399700,6.721399658203125,0.7881999611854553,-0.852400004863739,3.198499917984009
1683009339034399700,6.741399658203125,0.6736999750137329,-0.7601999640464783,3.146899938583374
1683009339054399700,6.761399658203125,0.9544999599456787,-0.9188999533653259,3.370499849319458
1683009339074399700,6.781399658203125,1.2094999551773071,-0.8703999519348145,3.211099863052368
1683009339094399700,6.801399658203125,1.0769000053405762,-0.6686999797821045,1.8775999546051025
1683009339114399700,6.821399658203125,0.7662999629974365,-0.7073000073432922,0.4185999929904938
1683009339134399700,6.841399658203125,0.471699982881546,-1.0191999673843384,-0.5004000067710876
1683009339154399700,6.861399658203125,0.32009997963905334,-1.2380999326705933,-1.0960999727249146
1683009339174399700,6.881399658203125,0.1508999913930893,-1.1978999376296997,-1.212399959564209
1683009339194399700,6.901399658203125,0.07729999721050262,-0.8786999583244324,-1.1246999502182007
1683009339214399700,6.921399658203125,0.25949999690055847,-0.5828999876976013,-1.0760999917984009
1683009339234399700,6.941399658203125,0.49449998140335083,-0.3361999988555908,-1.271799921989441
1683009339254399700,6.961399658203125,0.5494999885559082,-0.1404999941587448,-1.6628999710083008
1683009339274399700,6.981399658203125,0.4542999863624573,0.06309999525547028,-1.847499966621399
1683009339294399700,7.001399658203125,0.2166999876499176,0.1964999884366989,-1.767699956893921
1683009339314399700,7.021399658203125,-0.06679999828338623,0.33550000190734863,-1.4833999872207642
1683009339334399700,7.041399658203125,-0.3003999888896942,0.49709999561309814,-1.4149999618530273
1683009339354399700,7.061399658203125,-0.35249999165534973,0.5274999737739563,-1.7091999053955078
1683009339374399700,7.081399658203125,-0.11539999395608902,0.4072999954223633,-1.9052000045776367
1683009339394399700,7.101399658203125,0.1777999997138977,0.3806999921798706,-2.0815999507904053
1683009339414399700,7.121399658203125,0.2280000001192093,0.3686999976634979,-1.9244999885559082
1683009339434399700,7.141399658203125,0.2937999963760376,0.5575000047683716,-1.8757998943328857
1683009339454399700,7.161399658203125,0.20479999482631683,0.7170000076293945,-1.9154999256134033
1683009339474399700,7.181399658203125,0.21660000085830688,0.6485999822616577,-1.6897000074386597
1683009339494399700,7.201399658203125,0.27219998836517334,0.45879998803138733,-0.5809999704360962
1683009339514399700,7.221399658203125,0.1671999990940094,0.23119999468326569,1.1154999732971191
1683009339534399700,7.241399658203125,-0.17569999396800995,0.09510000050067902,2.7045998573303223
1683009339554399700,7.261399658203125,-0.2924000024795532,-0.15760000050067902,3.9609999656677246
1683009339574399700,7.281399658203125,-0.004600000102072954,-0.31129997968673706,5.039700031280518
1683009339594399700,7.301399658203125,0.4057999849319458,-0.24319998919963837,4.854499816894531
1683009339614399700,7.321399658203125,0.6870999932289124,-0.44839999079704285,4.33929967880249
1683009339634399700,7.341399658203125,0.8123999834060669,-0.6897000074386597,4.509099960327148
1683009339654399700,7.361399658203125,0.5692999958992004,-0.6383999586105347,4.0966997146606445
1683009339674399700,7.381399658203125,-0.24560000002384186,-0.4008999764919281,2.5081000328063965
1683009339694399700,7.401399658203125,-1.125,-0.5952000021934509,0.4804999828338623
1683009339714399700,7.421399658203125,-1.434899926185608,-1.0489000082015991,-0.7608999609947205
1683009339734399700,7.441399658203125,-1.2172999382019043,-1.2989000082015991,-0.9154999852180481
1683009339754399700,7.461399658203125,-0.661899983882904,-1.17739999294281,-0.43699997663497925
1683009339774399700,7.481399658203125,-0.11369999498128891,-0.8376999497413635,0.4391999840736389
1683009339794399700,7.501399658203125,0.5730000138282776,-0.30629998445510864,0.8830999732017517
1683009339814399700,7.521399658203125,0.8341000080108643,0.14429999887943268,0.5751999616622925
1683009339834399700,7.541399658203125,0.7049999833106995,0.3702999949455261,-0.05299999937415123
1683009339854399700,7.561399658203125,0.36569997668266296,0.3308999836444855,-0.6994999647140503
1683009339874399700,7.581399658203125,-0.16099999845027924,0.15569999814033508,-1.3459999561309814
1683009339894399700,7.601399658203125,-0.6402999758720398,-0.00029999998514540493,-1.75819993019104
1683009339914399700,7.621399658203125,-0.8883000016212463,-0.27480000257492065,-2.200399875640869
1683009339934399700,7.641399658203125,-0.7960000038146973,-0.4096999764442444,-2.701200008392334
1683009339954399700,7.661399658203125,-0.5708999633789062,-0.4513999819755554,-2.72189998626709
1683009339974399700,7.681399658203125,-0.2992999851703644,-0.1964000016450882,-2.45989990234375
1683009339994399700,7.701399658203125,-0.10589999705553055,0.09449999779462814,-2.081199884414673
1683009340014399700,7.721399658203125,0.019299998879432678,0.28439998626708984,-1.8883999586105347
1683009340034399700,7.741399658203125,-0.05040000006556511,0.4746999740600586,-1.9188998937606812
1683009340054399700,7.761399658203125,-0.26980000734329224,0.5412999987602234,-1.7912999391555786
1683009340074399700,7.781399658203125,-0.44689998030662537,0.5415999889373779,-1.6531999111175537
1683009340094399700,7.801399658203125,-0.5789999961853027,0.49619999527931213,-1.5540000200271606
1683009340114399700,7.821399658203125,-0.54339998960495,0.33739998936653137,-1.169700026512146
1683009340134399700,7.841399658203125,-0.4439999759197235,0.25200000405311584,-0.9221999645233154
1683009340154399700,7.861399658203125,-0.35979998111724854,0.20430000126361847,-0.8310999870300293
1683009340174399700,7.881399658203125,-0.21079999208450317,0.0746999979019165,-0.6218999624252319
1683009340194399700,7.901399658203125,0.1525000035762787,-0.14059999585151672,0.421099990606308
1683009340214399700,7.921399658203125,0.5008000135421753,-0.36730000376701355,1.9041999578475952
1683009340234399700,7.941399658203125,0.6478999853134155,-0.3027999997138977,2.9348998069763184
1683009340254399700,7.961399658203125,0.6010000109672546,-0.2149999886751175,3.484999895095825
1683009340274399700,7.981399658203125,0.48259997367858887,-0.30799999833106995,3.564199924468994
1683009340294399700,8.001399658203125,0.6198999881744385,-0.5647000074386597,3.2709999084472656
1683009340314399700,8.021399658203125,0.9548999667167664,-1.1733999252319336,4.008199691772461
1683009340334399700,8.041399658203124,0.7871999740600586,-1.1074999570846558,4.821000099182129
1683009340354399700,8.061399658203126,0.10939999669790268,-0.5472999811172485,4.064199924468994
1683009340374399700,8.081399658203125,-0.400299996137619,-0.10399999469518661,2.3877999782562256
1683009340394399700,8.101399658203125,-0.2549000084400177,-0.24489998817443848,0.9370999932289124
1683009340414399700,8.121399658203124,0.23829999566078186,-0.5981000065803528,0.3211999833583832
1683009340434399700,8.141399658203126,0.5059999823570251,-0.8194999694824219,-0.05900000035762787
1683009340454399700,8.161399658203125,0.4065999984741211,-0.686199963092804,-0.1938999891281128
1683009340474399700,8.181399658203125,-0.01730000041425228,-0.35429999232292175,-0.03720000013709068
1683009340494399700,8.201399658203124,-0.21660000085830688,0.0015999999595806003,-0.08810000121593475
1683009340514399700,8.221399658203126,-0.13030000030994415,0.13040000200271606,-0.3351999819278717
1683009340534399700,8.241399658203125,0.19929999113082886,0.05289999768137932,-0.7773000001907349
1683009340554399700,8.261399658203125,0.4845999777317047,-0.0405999980866909,-1.0720999240875244
1683009340574399700,8.281399658203124,0.5618999600410461,-0.00279999990016222,-1.004599928855896
1683009340594399700,8.301399658203126,0.5358999967575073,0.20999999344348907,-0.9763999581336975
1683009340614399700,8.321399658203125,0.4302999973297119,0.3537999987602234,-0.9478999972343445
1683009340634399700,8.341399658203125,0.33079999685287476,0.49969998002052307,-1.13510000705719
1683009340654399700,8.361399658203124,0.20309999585151672,0.45579999685287476,-1.3809999227523804
1683009340674399700,8.381399658203126,0.22819998860359192,0.37790000438690186,-1.6370999813079834
1683009340694399700,8.401399658203125,0.24639999866485596,0.3522000014781952,-1.9133999347686768
1683009340714399700,8.421399658203125,0.25509998202323914,0.44200000166893005,-2.2193000316619873
1683009340734399700,8.441399658203125,0.23359999060630798,0.5117999911308289,-2.4663000106811523
1683009340754399700,8.461399658203124,0.22289998829364777,0.5625999569892883,-2.389699935913086
1683009340774399700,8.481399658203125,0.07459999620914459,0.5139999985694885,-2.2639999389648438
1683009340794399700,8.501399658203125,0.2052999883890152,0.5205999612808228,-2.0692999362945557
1683009340814399700,8.521399658203125,0.6197999715805054,0.4456999897956848,-1.6377999782562256
1683009340834399700,8.541399658203124,0.8930000066757202,0.25619998574256897,-0.5094999670982361
1683009340854399700,8.561399658203126,0.8951999545097351,0.008899999782443047,0.8919999599456787
1683009340874399700,8.581399658203125,1.049299955368042,-0.32589998841285706,2.1666998863220215
1683009340894399700,8.601399658203125,1.2175999879837036,-0.7193999886512756,3.648899793624878
1683009340914399700,8.621399658203124,1.2437999248504639,-0.5877999663352966,4.249300003051758
1683009340934399700,8.641399658203126,0.9440000057220459,-0.2775000035762787,3.7331998348236084
1683009340954399700,8.661399658203125,0.7734000086784363,-0.41339999437332153,3.208899974822998
1683009340974399700,8.681399658203125,0.7035999894142151,-0.6168000102043152,2.959699869155884
1683009340994399700,8.701399658203124,0.32889997959136963,-0.8748999834060669,3.0528998374938965
1683009341014399700,8.721399658203126,-0.2954999804496765,-1.18559992313385,2.919099807739258
1683009341034399700,8.741399658203125,-0.7825999855995178,-1.2907999753952026,2.2056000232696533
1683009341054399700,8.761399658203125,-1.2375999689102173,-1.0303999185562134,1.1784999370574951
1683009341074399700,8.781399658203124,-1.4429999589920044,-0.7021999955177307,0.35839998722076416
1683009341094399700,8.801399658203126,-1.5618000030517578,-0.4846999943256378,-0.030799999833106995
1683009341114402800,8.82140283203125,-1.5131999254226685,-0.3443000018596649,-0.0697999969124794
1683009341134399700,8.841399658203125,-1.2796999216079712,-0.06430000066757202,-0.11109999567270279
1683009341154399700,8.861399658203124,-1.0789999961853027,0.21570000052452087,-0.2214999943971634
1683009341174401300,8.8814013671875,-0.8044999837875366,0.3212999999523163,-0.48809999227523804
1683009341194399700,8.901399658203125,-0.500499963760376,0.37229999899864197,-0.9591999650001526
1683009341214399700,8.921399658203125,-0.2831999957561493,0.3127000033855438,-1.2724000215530396
1683009341234399700,8.941399658203125,-0.3312000036239624,0.34209999442100525,-1.4578999280929565
1683009341254401300,8.9614013671875,-0.45639997720718384,0.4161999821662903,-1.4679999351501465
1683009341274399700,8.981399658203125,-0.4822999835014343,0.5870999693870544,-1.3207999467849731
1683009341294399700,9.001399658203125,-0.4520999789237976,0.7920999526977539,-1.1924999952316284
1683009341314401300,9.0214013671875,-0.5554999709129333,0.9777999520301819,-1.121999979019165
1683009341334399700,9.041399658203124,-0.7482999563217163,1.1575000286102295,-1.1298999786376953
1683009341354399700,9.061399658203126,-0.8970999717712402,1.208899974822998,-1.1669999361038208
1683009341374399700,9.081399658203125,-0.9703999757766724,1.1764999628067017,-1.3810999393463135
1683009341394399700,9.101399658203125,-0.9077999591827393,1.073699951171875,-1.5565999746322632
1683009341414399700,9.121399658203124,-0.8323999643325806,0.9822999835014343,-1.889799952507019
1683009341434399700,9.141399658203126,-0.6676999926567078,0.8453999757766724,-2.05679988861084
1683009341454401300,9.1614013671875,-0.45569998025894165,0.7574999928474426,-1.9208999872207642
1683009341474401300,9.1814013671875,-0.344899982213974,0.7196999788284302,-1.6484999656677246
1683009341494399700,9.201399658203124,-0.12399999797344208,0.7515000104904175,-1.4055999517440796
1683009341514399700,9.221399658203126,-0.1559000015258789,0.6039999723434448,-0.8481999635696411
1683009341534399700,9.241399658203125,-0.04910000041127205,0.18889999389648438,0.1525999903678894
1683009341554399700,9.261399658203125,0.4163999855518341,-0.2529999911785126,1.7719999551773071
1683009341574399700,9.281399658203124,0.6543999910354614,-0.3084999918937683,3.1741998195648193
1683009341594399700,9.301399658203126,0.5979999899864197,-0.07899999618530273,4.036399841308594
1683009341614401300,9.3214013671875,0.48179998993873596,-0.01209999993443489,4.192399978637695
1683009341634399700,9.341399658203125,0.6166999936103821,-0.08009999990463257,3.9273998737335205
1683009341654399700,9.361399658203124,0.7551999688148499,-0.5543999671936035,3.9866998195648193
1683009341674401300,9.3814013671875,0.7824999690055847,-0.9072999954223633,4.162300109863281
1683009341694399700,9.401399658203125,0.42829999327659607,-0.9054999947547913,3.5815999507904053
1683009341714401300,9.4214013671875,0.08219999819993973,-0.8400999903678894,2.3935999870300293
1683009341734399700,9.441399658203125,0.18709999322891235,-0.8070999979972839,1.5394999980926514
1683009341754401300,9.4614013671875,0.4259999990463257,-0.6495999693870544,0.9989999532699585
1683009341774399700,9.481399658203125,0.39259999990463257,-0.4368000030517578,0.6929000020027161
1683009341794399700,9.501399658203125,0.2946999967098236,-0.17589999735355377,0.4048999845981598
1683009341814401300,9.5214013671875,0.20809999108314514,0.046299997717142105,-0.10969999432563782
1683009341834401300,9.5414013671875,0.2629999816417694,0.1662999987602234,-0.6237999796867371
1683009341854399700,9.561399658203126,0.4675000011920929,0.250900000333786,-1.1751999855041504
1683009341874399700,9.581399658203125,0.5835999846458435,0.3105999827384949,-1.6863999366760254
1683009341894399700,9.601399658203125,0.5328999757766724,0.335999995470047,-2.227099895477295
1683009341914399700,9.621399658203124,0.2685999870300293,0.3148999810218811,-2.572199821472168
1683009341934399700,9.641399658203126,-0.04989999905228615,0.2685000002384186,-2.535399913787842
1683009341954401300,9.6614013671875,-0.2655999958515167,0.1890999972820282,-2.253999948501587
1683009341974401300,9.6814013671875,-0.3310999870300293,-0.0510999970138073,-1.8560999631881714
1683009341994399700,9.701399658203124,-0.1453000009059906,-0.21229998767375946,-1.4107999801635742
1683009342014399700,9.721399658203126,0.18479999899864197,-0.2613999843597412,-0.9950999617576599
1683009342034401300,9.7414013671875,0.3467999994754791,-0.24049998819828033,-0.7838000059127808
1683009342054399700,9.761399658203125,0.6191999912261963,-0.22989998757839203,-0.8140999674797058
1683009342074399700,9.781399658203124,0.6958000063896179,-0.25209999084472656,-0.9699999690055847
1683009342094399700,9.801399658203126,0.23629999160766602,-0.15789999067783356,-0.8800999522209167
1683009342114401300,9.8214013671875,-0.07660000026226044,0.03219999745488167,-1.2098000049591064
1683009342134399700,9.841399658203125,0.21539999544620514,0.2680000066757202,-1.6065999269485474
1683009342154399700,9.861399658203124,0.2816999852657318,0.5792999863624573,-1.427299976348877
1683009342174401300,9.8814013671875,0.08989999443292618,0.7976999878883362,-1.1036999225616455
1683009342194399700,9.901399658203125,-0.22540000081062317,0.6399999856948853,-0.4852999746799469
1683009342214399700,9.921399658203125,-0.22419999539852142,0.280599981546402,0.8483999967575073
1683009342234399700,9.941399658203125,0.29649999737739563,-0.20799998939037323,2.876499891281128
1683009342254401300,9.9614013671875,0.9648999571800232,-0.3917999863624573,4.4721999168396
1683009342274399700,9.981399658203125,1.1262999773025513,-0.34619998931884766,4.872299671173096
1683009342294399700,10.001399658203125,0.9836999773979187,-0.02709999866783619,3.3351998329162598
1683009342314401300,10.0214013671875,0.334199994802475,-0.025200000032782555,1.9101999998092651
1683009342334399700,10.041399658203124,-0.2978000044822693,-0.6029999852180481,2.026599884033203
1683009342354399700,10.061399658203126,-0.9614999890327454,-1.097499966621399,2.8048999309539795
1683009342374399700,10.081399658203125,-1.1187000274658203,-1.080299973487854,3.4801998138427734
1683009342394402800,10.10140283203125,-1.2101999521255493,-0.7918999791145325,3.2919998168945312
1683009342414399700,10.121399658203124,-0.9806999564170837,-0.6055999994277954,2.067999839782715
1683009342434399700,10.141399658203126,-0.8334999680519104,-0.729200005531311,1.0242999792099
1683009342454401300,10.1614013671875,-0.8190000057220459,-0.8863999843597412,0.5673999786376953
1683009342474401300,10.1814013671875,-0.9617999792098999,-0.976099967956543,0.460099995136261
1683009342494399700,10.201399658203124,-1.2401000261306763,-0.8974999785423279,0.6333999633789062
1683009342514399700,10.221399658203126,-1.4520999193191528,-0.6912999749183655,0.4332999885082245
1683009342534401300,10.2414013671875,-1.497999906539917,-0.6011999845504761,-0.07899999618530273
1683009342554399700,10.261399658203125,-1.5367999076843262,-0.5514999628067017,-0.4723999798297882
1683009342574399700,10.281399658203124,-1.4370999336242676,-0.46869999170303345,-0.7272999882698059
1683009342594399700,10.301399658203126,-1.2954000234603882,-0.3928999900817871,-0.864799976348877
1683009342614401300,10.3214013671875,-1.0750999450683594,-0.2078000009059906,-1.150499939918518
1683009342634399700,10.341399658203125,-0.8818999528884888,-0.058399997651576996,-1.4460999965667725
1683009342654399700,10.361399658203124,-0.7896999716758728,0.04339999705553055,-1.5157999992370605
1683009342674401300,10.3814013671875,-0.8628000020980835,-0.03700000047683716,-1.4679999351501465
1683009342694399700,10.401399658203125,-1.0511000156402588,-0.14309999346733093,-1.4009000062942505
1683009342714399700,10.421399658203125,-1.1095999479293823,-0.2505999803543091,-1.118399977684021
1683009342734399700,10.441399658203125,-1.2257000207901,-0.3463999927043915,-0.45339998602867126
1683009342754401300,10.4614013671875,-1.315999984741211,-0.23829999566078186,0.4072999954223633
1683009342774399700,10.481399658203125,-1.1385999917984009,-0.10009999573230743,1.112299919128418
1683009342794399700,10.501399658203125,-0.863099992275238,-0.033900000154972076,1.211300015449524
1683009342814401300,10.5214013671875,-0.4717999994754791,0.06480000168085098,1.1739000082015991
1683009342834399700,10.541399658203124,-0.10639999806880951,0.022199999541044235,1.2841999530792236
1683009342854399700,10.561399658203126,0.16849999129772186,-0.041200000792741776,1.7476999759674072
1683009342874399700,10.581399658203125,0.2451999932527542,0.00969999935477972,2.2790000438690186
1683009342894399700,10.601399658203125,0.08159999549388885,0.016699999570846558,2.1034998893737793
1683009342914399700,10.621399658203124,0.07249999791383743,0.11169999837875366,1.3501999378204346
1683009342934399700,10.641399658203126,0.01640000008046627,0.05649999901652336,0.6266999840736389
1683009342954401300,10.6614013671875,0.007400000002235174,0.004299999680370092,-0.03779999911785126
1683009342974401300,10.6814013671875,0.037299998104572296,-0.041600000113248825,-0.6423999667167664
1683009342994399700,10.701399658203124,-0.05429999902844429,-0.03879999741911888,-1.2070000171661377
1683009343014399700,10.721399658203126,-0.19789999723434448,-0.15269999206066132,-1.4473999738693237
1683009343034401300,10.7414013671875,-0.3105999827384949,-0.41429999470710754,-0.8554999828338623
1683009343054399700,10.761399658203125,-0.31790000200271606,-0.9115999937057495,0.38019999861717224
1683009343074399700,10.781399658203124,-0.13830000162124634,-1.2193999290466309,1.3487999439239502
1683009343094399700,10.801399658203126,0.03350000083446503,-1.4783999919891357,1.7472000122070312
1683009343114401300,10.8214013671875,0.6096999645233154,-1.7697999477386475,1.3533999919891357
1683009343134399700,10.841399658203125,0.9416999816894531,-2.0548999309539795,0.953499972820282
1683009343154402800,10.86140283203125,1.1750999689102173,-1.914099931716919,0.8983999490737915
1683009343174401300,10.8814013671875,1.0473999977111816,-1.4804999828338623,0.8828999996185303
1683009343194399700,10.901399658203125,0.7755999565124512,-0.9477999806404114,0.5254999995231628
1683009343214399700,10.921399658203125,0.3587999939918518,-0.8446999788284302,-0.29429998993873596
1683009343234399700,10.941399658203125,-0.018799999728798866,-0.7111999988555908,-0.9558999538421631
1683009343254401300,10.9614013671875,-0.2939999997615814,-0.6836000084877014,-1.3643999099731445
1683009343274399700,10.981399658203125,-0.19419999420642853,-0.5460999608039856,-1.4591000080108643
1683009343294399700,11.001399658203125,-0.09640000015497208,-0.2458999902009964,-1.163100004196167
1683009343314401300,11.0214013671875,-0.11459999531507492,0.057099997997283936,-0.8288999795913696
1683009343334401300,11.0414013671875,-0.24789999425411224,0.35519999265670776,-0.5629000067710876
1683009343354399700,11.061399658203126,-0.5403000116348267,0.5340999960899353,-0.36479997634887695
1683009343374399700,11.081399658203125,-0.598800003528595,0.6438999772071838,-0.2037999927997589
1683009343394399700,11.101399658203125,-0.5526999831199646,0.7398999929428101,-0.1387999951839447
1683009343414399700,11.121399658203124,-0.24089999496936798,0.8895999789237976,0.19099999964237213
1683009343434399700,11.141399658203126,0.1485999971628189,1.02839994430542,0.3431999981403351
1683009343454401300,11.1614013671875,0.64410001039505,1.2375999689102173,0.36739999055862427
1683009343474401300,11.1814013671875,0.8946999907493591,1.364799976348877,0.3621000051498413
1683009343494399700,11.201399658203124,0.9210999608039856,1.3666999340057373,0.6111999750137329
1683009343514399700,11.221399658203126,0.6620999574661255,1.4513999223709106,0.732699990272522
1683009343534399700,11.241399658203125,0.29999998211860657,1.5685999393463135,0.42329999804496765
1683009343554399700,11.261399658203125,-0.26510000228881836,1.4994999170303345,0.053999997675418854
1683009343574399700,11.281399658203124,-0.5680999755859375,1.3944000005722046,-0.2184000015258789
1683009343594399700,11.301399658203126,-0.8690999746322632,1.0281000137329102,-0.2085999995470047
1683009343614401300,11.3214013671875,-0.7883999943733215,0.3667999804019928,0.5440999865531921
1683009343634399700,11.341399658203125,-0.298799991607666,-0.4494999945163727,2.3032000064849854
1683009343654399700,11.361399658203124,0.1460999995470047,-0.49219998717308044,3.7356998920440674
1683009343674401300,11.3814013671875,0.31029999256134033,-0.2662999927997589,3.610999822616577
1683009343694399700,11.401399658203125,0.6845999956130981,-0.09049999713897705,1.6908999681472778
1683009343714399700,11.421399658203125,0.46539998054504395,-0.22809998691082,0.07739999890327454
1683009343734399700,11.441399658203125,0.3482999801635742,-0.26440000534057617,-0.4761999845504761
1683009343754401300,11.4614013671875,-0.3896999955177307,-0.3840999901294708,-0.5706999897956848
1683009343774399700,11.481399658203125,-1.1251999139785767,-0.7188000082969666,-0.5809000134468079
1683009343794399700,11.501399658203125,-1.514699935913086,-0.9976999759674072,-0.4009999930858612
1683009343814401300,11.5214013671875,-1.4960999488830566,-1.2864999771118164,0.1289999932050705
1683009343834399700,11.541399658203124,-0.9976999759674072,-1.2884999513626099,0.3109999895095825
1683009343854399700,11.561399658203126,-0.7590000033378601,-1.3336999416351318,0.44739997386932373
1683009343874399700,11.581399658203125,-0.5705999732017517,-1.2639999389648438,0.41769999265670776
1683009343894399700,11.601399658203125,-0.4803999960422516,-1.1857999563217163,0.398499995470047
1683009343914399700,11.621399658203124,-0.37119999527931213,-0.8787999749183655,0.4097999930381775
1683009343934399700,11.641399658203126,-0.5144999623298645,-0.49289998412132263,0.5
1683009343954399700,11.661399658203125,-0.9188999533653259,-0.1216999962925911,0.4724999964237213
1683009343974401300,11.6814013671875,-1.2589999437332153,0.1356000006198883,0.2786000072956085
1683009343994399700,11.701399658203124,-1.492799997329712,0.23759999871253967,0.15299999713897705
1683009344014399700,11.721399658203126,-1.6090999841690063,0.2606000006198883,-0.11069999635219574
1683009344034401300,11.7414013671875,-1.7188999652862549,0.2061999887228012,-0.2669999897480011
1683009344054399700,11.761399658203125,-1.7287999391555786,0.11649999767541885,-0.3552999794483185
1683009344074399700,11.781399658203124,-1.7235000133514404,0.07530000060796738,-0.6897000074386597
1683009344094399700,11.801399658203126,-1.4335999488830566,0.1589999943971634,-1.0121999979019165
1683009344114399700,11.821399658203125,-1.1829999685287476,0.22129999101161957,-1.1280999183654785
1683009344134399700,11.841399658203125,-0.8014000058174133,0.33980000019073486,-1.0476000308990479
1683009344154399700,11.861399658203124,-0.5996999740600586,0.5015999674797058,-0.9479999542236328
1683009344174401300,11.8814013671875,-0.5019999742507935,0.4624999761581421,-0.6816999912261963
1683009344194399700,11.901399658203125,-0.36649999022483826,0.5148999691009521,-0.24809999763965607
1683009344214399700,11.921399658203125,-0.1753000020980835,0.542199969291687,0.35179999470710754
1683009344234399700,11.941399658203125,-0.006799999624490738,0.618399977684021,0.8920999765396118
1683009344254401300,11.9614013671875,-0.06069999933242798,0.6954999566078186,1.38319993019104
1683009344274399700,11.981399658203125,-0.2264999896287918,0.9063999652862549,1.5805000066757202
1683009344294399700,12.001399658203125,-0.3730999827384949,0.9643999934196472,1.385200023651123
1683009344314401300,12.0214013671875,-0.4892999827861786,0.875499963760376,0.8947999477386475
1683009344334399700,12.041399658203124,-0.4090999960899353,0.20799998939037323,1.305799961090088
1683009344354399700,12.061399658203126,-0.41849997639656067,-0.4908999800682068,2.342599868774414
1683009344374399700,12.081399658203125,-0.5999999642372131,-0.7599999904632568,2.710700035095215
1683009344394399700,12.101399658203125,-0.7942000031471252,-0.8585999608039856,2.100800037384033
1683009344414399700,12.121399658203124,-0.98089998960495,-1.0361000299453735,1.000499963760376
1683009344434399700,12.141399658203126,-0.7561999559402466,-1.218400001525879,-0.08959999680519104
1683009344454399700,12.161399658203125,-0.4311999976634979,-1.3181999921798706,-1.2937999963760376
1683009344474401300,12.1814013671875,-0.273499995470047,-1.4855999946594238,-1.8768999576568604
1683009344494399700,12.201399658203124,-0.39469999074935913,-1.4125999212265015,-1.402999997138977
1683009344514399700,12.221399658203126,-0.5313999652862549,-1.1948000192642212,-0.22779999673366547
1683009344534401300,12.2414013671875,-0.46959999203681946,-0.8613999485969543,0.6413999795913696
1683009344554399700,12.261399658203125,-0.640999972820282,-0.6514999866485596,1.038599967956543
1683009344574399700,12.281399658203124,-0.6390999555587769,-0.5232999920845032,1.062999963760376
1683009344594399700,12.301399658203126,-0.5770999789237976,-0.5863999724388123,1.1467000246047974
1683009344614401300,12.3214013671875,-0.3495999872684479,-0.6789999604225159,1.152899980545044
1683009344634399700,12.341399658203125,-0.2498999983072281,-0.6222999691963196,0.6697999835014343
1683009344654399700,12.361399658203124,-0.18969999253749847,-0.5191999673843384,0.06059999763965607
1683009344674401300,12.3814013671875,-0.22169999778270721,-0.41669997572898865,-0.3714999854564667
1683009344694399700,12.401399658203125,-0.17170000076293945,-0.2728999853134155,-0.7157999873161316
1683009344714399700,12.421399658203125,-0.11599999666213989,-0.14459998905658722,-0.8629999756813049
1683009344734399700,12.441399658203125,-0.1679999977350235,0.03019999898970127,-0.7547999620437622
1683009344754401300,12.4614013671875,-0.21239998936653137,0.19259999692440033,-0.6275999546051025
1683009344774399700,12.481399658203125,-0.274399995803833,0.34619998931884766,-0.5708000063896179
1683009344794399700,12.501399658203125,-0.30379998683929443,0.45179998874664307,-0.5534999966621399
1683009344814401300,12.5214013671875,-0.18879999220371246,0.523099958896637,-0.36879998445510864
1683009344834401300,12.5414013671875,-0.010999999940395355,0.5805000066757202,-0.4180999994277954
1683009344854399700,12.561399658203126,0.249099999666214,0.708899974822998,-0.5546999573707581
1683009344874399700,12.581399658203125,0.4339999854564667,0.76419997215271,-0.4950999915599823
1683009344894399700,12.601399658203125,0.5812000036239624,0.8463999629020691,-0.46449998021125793
1683009344914399700,12.621399658203124,0.6984999775886536,0.9044999480247498,-0.25669997930526733
1683009344934399700,12.641399658203126,0.7396000027656555,1.0469999313354492,0.00029999998514540493
1683009344954399700,12.661399658203125,0.6150000095367432,1.2437000274658203,0.2581000030040741
1683009344974401300,12.6814013671875,0.32179999351501465,1.4311999082565308,0.5555999875068665
1683009344994399700,12.701399658203124,0.02459999918937683,1.5152000188827515,0.7454999685287476
1683009345014399700,12.721399658203126,-0.31700000166893005,1.535599946975708,0.9041000008583069
1683009345034399700,12.741399658203125,-0.557699978351593,1.4728999137878418,0.8253999948501587
1683009345054399700,12.761399658203125,-0.616599977016449,1.3187999725341797,0.824400007724762
1683009345074399700,12.781399658203124,-0.599299967288971,1.0550999641418457,0.9388999938964844
1683009345094399700,12.801399658203126,-0.4065999984741211,0.6139000058174133,1.2767999172210693
1683009345114401300,12.8214013671875,-0.16579999029636383,0.17469999194145203,1.4656999111175537
1683009345134399700,12.841399658203125,0.05849999934434891,-0.21459999680519104,1.5468000173568726
1683009345154399700,12.861399658203124,0.3238999843597412,-0.5500999689102173,1.7077999114990234
1683009345174401300,12.8814013671875,0.5590999722480774,-0.6505999565124512,2.0072999000549316
1683009345194399700,12.901399658203125,0.48899999260902405,-0.6003000140190125,2.0534000396728516
1683009345214399700,12.921399658203125,0.19699999690055847,-0.343099981546402,1.6687999963760376
1683009345234399700,12.941399658203125,-0.2581000030040741,-0.17889998853206635,0.9019999504089355
1683009345254399700,12.961399658203124,-0.7498999834060669,-0.08749999850988388,-0.1387999951839447
1683009345274399700,12.981399658203125,-1.1416000127792358,-0.3488999903202057,-0.9246000051498413
1683009345294399700,13.001399658203125,-1.160099983215332,-0.734499990940094,-1.4055999517440796
1683009345314401300,13.0214013671875,-1.0885999202728271,-0.9099999666213989,-1.2681000232696533
1683009345334401300,13.0414013671875,-1.0561000108718872,-0.8452999591827393,-0.7188999652862549
1683009345354399700,13.061399658203126,-1.1589000225067139,-0.770799994468689,-0.013700000010430813
1683009345374399700,13.081399658203125,-0.9469999670982361,-0.6435999870300293,0.4648999869823456
1683009345394399700,13.101399658203125,-0.7157999873161316,-0.58160001039505,0.8348999619483948
1683009345414399700,13.121399658203124,-0.4852999746799469,-0.35850000381469727,0.8043999671936035
1683009345434399700,13.141399658203126,-0.6789999604225159,-0.24459999799728394,0.34369999170303345
1683009345454399700,13.161399658203125,-0.6827999949455261,-0.1930999904870987,-0.5378999710083008
1683009345474401300,13.1814013671875,-0.6093999743461609,-0.12929999828338623,-1.1354999542236328
1683009345494399700,13.201399658203124,-0.41679999232292175,0.011799999512732029,-1.4776999950408936
1683009345514399700,13.221399658203126,-0.29319998621940613,0.24329999089241028,-1.534500002861023
1683009345534401300,13.2414013671875,-0.38439998030662537,0.5033000111579895,-1.5329999923706055
1683009345554402800,13.26140283203125,-0.569599986076355,0.8093999624252319,-1.639299988746643
1683009345574399700,13.281399658203124,-0.6987999677658081,1.1097999811172485,-1.7447999715805054
1683009345594399700,13.301399658203126,-0.8483999967575073,1.3894000053405762,-1.9581999778747559
1683009345614401300,13.3214013671875,-0.975600004196167,1.5259000062942505,-2.406599998474121
1683009345634399700,13.341399658203125,-1.1270999908447266,1.6962999105453491,-2.8939998149871826
1683009345654399700,13.361399658203124,-1.2430999279022217,1.816499948501587,-3.1370999813079834
1683009345674401300,13.3814013671875,-1.2634999752044678,1.7680000066757202,-3.273399829864502
1683009345694399700,13.401399658203125,-1.1208999156951904,1.6897000074386597,-2.733799934387207
1683009345714399700,13.421399658203125,-0.9163999557495117,1.561900019645691,-1.567099928855896
1683009345734399700,13.441399658203125,-0.913100004196167,1.621399998664856,-0.2919999957084656
1683009345754401300,13.4614013671875,-0.9259999990463257,1.702799916267395,0.6026999950408936
1683009345774399700,13.481399658203125,-0.9389999508857727,1.7382999658584595,0.529699981212616
1683009345794399700,13.501399658203125,-0.41349998116493225,1.4536999464035034,-0.0007999999797903001
1683009345814401300,13.5214013671875,0.5273000001907349,0.6164999604225159,0.1876000016927719
1683009345834399700,13.541399658203124,1.4341999292373657,-0.250900000333786,1.8282999992370605
1683009345854399700,13.561399658203126,1.3701000213623047,-0.691100001335144,3.7206997871398926
1683009345874399700,13.581399658203125,0.668999969959259,-1.0936999320983887,4.892099857330322
1683009345894399700,13.601399658203125,0.07360000163316727,-1.1173999309539795,4.6041998863220215
1683009345914401300,13.6214013671875,-0.4440999925136566,-1.7288999557495117,3.8197999000549316
1683009345934399700,13.641399658203126,0.1356000006198883,-2.5683000087738037,3.7941999435424805
1683009345954399700,13.661399658203125,0.7023999691009521,-2.913800001144409,3.9074997901916504
1683009345974401300,13.6814013671875,0.8648999929428101,-2.4728000164031982,3.051499843597412
1683009345994399700,13.701399658203124,0.6277999877929688,-2.236299991607666,2.049299955368042
1683009346014399700,13.721399658203126,0.3570999801158905,-1.8062999248504639,1.045300006866455
1683009346034401300,13.7414013671875,0.1289999932050705,-1.7019000053405762,0.2352999895811081
1683009346054399700,13.761399658203125,0.035599999129772186,-1.3662999868392944,-0.23009999096393585
1683009346074399700,13.781399658203124,-0.23959998786449432,-0.9340999722480774,-0.4187999963760376
1683009346094399700,13.801399658203126,-0.40389999747276306,-0.4697999954223633,-0.6656999588012695
1683009346114399700,13.821399658203125,-0.4641999900341034,-0.08859999477863312,-0.7756999731063843
1683009346134399700,13.841399658203125,-0.46140000224113464,0.12069999426603317,-0.817799985408783
1683009346154399700,13.861399658203124,-0.38979998230934143,0.23330000042915344,-0.9975000023841858
1683009346174401300,13.8814013671875,-0.33879998326301575,0.29019999504089355,-1.1281999349594116
1683009346194399700,13.901399658203125,-0.2653000056743622,0.3619999885559082,-1.218999981880188
1683009346214399700,13.921399658203125,-0.2821999788284302,0.3798999786376953,-1.1906999349594116
1683009346234399700,13.941399658203125,-0.3127000033855438,0.431799978017807,-1.1425999402999878
1683009346254401300,13.9614013671875,-0.32899999618530273,0.4495999813079834,-1.105299949645996
1683009346274399700,13.981399658203125,-0.2777000069618225,0.6196999549865723,-1.1966999769210815
1683009346294399700,14.001399658203125,-0.2547999918460846,0.7531999945640564,-1.6907999515533447
1683009346314401300,14.0214013671875,-0.1274999976158142,0.5877999663352966,-2.1643998622894287
1683009346334401300,14.0414013671875,0.05549999698996544,0.45989999175071716,-2.226300001144409
1683009346354399700,14.061399658203126,0.15209999680519104,0.38099998235702515,-2.200000047683716
1683009346374399700,14.081399658203125,0.1875,0.20839999616146088,-1.9179999828338623
1683009346394399700,14.101399658203125,0.352400004863739,0.2157999873161316,-1.645799994468689
1683009346414399700,14.121399658203124,0.5392000079154968,0.1800999939441681,-1.3539999723434448
1683009346434399700,14.141399658203126,0.6918999552726746,0.20409999787807465,-1.326200008392334
1683009346454399700,14.161399658203125,0.8816999793052673,0.19900000095367432,-1.239300012588501
1683009346474401300,14.1814013671875,0.9368000030517578,-0.059699997305870056,-0.7493000030517578
1683009346494399700,14.201399658203124,0.46629998087882996,-0.29919999837875366,0.5737000107765198
1683009346514399700,14.221399658203126,0.12209999561309814,-0.6017000079154968,1.8948999643325806
1683009346534401300,14.2414013671875,0.20520000159740448,-0.913100004196167,2.98009991645813
1683009346554401300,14.2614013671875,0.9031999707221985,-1.1243000030517578,3.9358999729156494
1683009346574399700,14.281399658203124,0.5015999674797058,-0.8258000016212463,3.403599977493286
1683009346594399700,14.301399658203126,0.18559999763965607,-0.6857999563217163,2.5458998680114746
1683009346614401300,14.3214013671875,0.3093000054359436,-1.2056999206542969,3.3581998348236084
1683009346634399700,14.341399658203125,0.3560999929904938,-1.3690999746322632,4.582699775695801
1683009346654399700,14.361399658203124,0.08619999885559082,-0.9788999557495117,4.21560001373291
1683009346674401300,14.3814013671875,-0.46619999408721924,-0.7095999717712402,2.7926998138427734
1683009346694399700,14.401399658203125,-0.7493000030517578,-0.5866999626159668,1.2451000213623047
1683009346714399700,14.421399658203125,-0.7791999578475952,-0.6313999891281128,0.12189999967813492
1683009346734399700,14.441399658203125,-0.9795999526977539,-0.5837000012397766,-0.29679998755455017
1683009346754401300,14.4614013671875,-1.1272000074386597,-0.384799987077713,-0.003700000001117587
1683009346774399700,14.481399658203125,-0.9343000054359436,-0.03680000081658363,0.39419999718666077
1683009346794399700,14.501399658203125,-0.8201999664306641,0.257099986076355,0.45799997448921204
1683009346814401300,14.5214013671875,-0.5884000062942505,0.40779998898506165,0.23879998922348022
1683009346834401300,14.5414013671875,-0.3352999985218048,0.4267999827861786,-0.31189998984336853
1683009346854399700,14.561399658203126,-0.2003999948501587,0.23389999568462372,-0.7931999564170837
1683009346874402800,14.58140283203125,-0.020499998703598976,0.04479999840259552,-1.0289000272750854
1683009346894399700,14.601399658203125,0.002300000051036477,-0.0486999973654747,-1.138100028038025
1683009346914399700,14.621399658203124,0.007899999618530273,0.1784999966621399,-1.2078999280929565
1683009346934399700,14.641399658203126,-0.07699999958276749,0.46719998121261597,-1.0512999296188354
1683009346954399700,14.661399658203125,-0.23639999330043793,0.8269999623298645,-1.177799940109253
1683009346974399700,14.681399658203125,-0.2724999785423279,1.1579999923706055,-1.3525999784469604
1683009346994399700,14.701399658203124,-0.3732999861240387,1.3148000240325928,-1.497399926185608
1683009347014399700,14.721399658203126,-0.4788999855518341,1.285499930381775,-1.5928999185562134
1683009347034399700,14.741399658203125,-0.6089999675750732,1.208400011062622,-1.678299903869629
1683009347054399700,14.761399658203125,-0.6597999930381775,1.1523000001907349,-1.6066999435424805
1683009347074399700,14.781399658203124,-0.9661999940872192,1.212399959564209,-1.6226999759674072
1683009347094399700,14.801399658203126,-0.8452999591827393,1.482100009918213,-1.4693999290466309
1683009347114401300,14.8214013671875,-0.7129999995231628,1.6710999011993408,-1.1757999658584595
1683009347134399700,14.841399658203125,-0.6297999620437622,1.7227998971939087,-1.3015999794006348
1683009347154399700,14.861399658203124,-0.46140000224113464,1.6833999156951904,-1.406499981880188
1683009347174401300,14.8814013671875,-0.3849000036716461,1.3816999197006226,-1.180899977684021
1683009347194399700,14.901399658203125,-0.34279999136924744,1.0375999212265015,-1.0568000078201294
1683009347214399700,14.921399658203125,-0.22019998729228973,0.6304000020027161,-0.670699954032898
1683009347234399700,14.941399658203125,0.17469999194145203,-0.24210000038146973,0.8885999917984009
1683009347254401300,14.9614013671875,0.9598000049591064,-0.8325999975204468,3.219399929046631
1683009347274399700,14.981399658203125,1.4581999778747559,-1.0261999368667603,5.127899646759033
1683009347294399700,15.001399658203125,1.3776999711990356,-0.5612999796867371,5.557300090789795
1683009347314401300,15.0214013671875,1.1891000270843506,-0.34389999508857727,4.292699813842773
1683009347334401300,15.0414013671875,1.0465999841690063,-0.4899999797344208,2.9286999702453613
1683009347354399700,15.061399658203126,0.9734999537467957,-1.0126999616622925,2.5253000259399414
1683009347374399700,15.081399658203125,0.5065000057220459,-1.496999979019165,2.035799980163574
1683009347394399700,15.101399658203125,0.01769999973475933,-1.952299952507019,1.9386999607086182
1683009347414399700,15.121399658203124,-0.17350000143051147,-2.092399835586548,1.8985999822616577
1683009347434399700,15.141399658203126,-0.24529999494552612,-1.88510000705719,1.2010999917984009
1683009347454399700,15.161399658203125,-0.25220000743865967,-1.4332000017166138,0.19129998981952667
1683009347474401300,15.1814013671875,-0.2946999967098236,-1.0954999923706055,-0.5633000135421753
1683009347494399700,15.201399658203124,-0.34849998354911804,-0.9587999582290649,-0.7795999646186829
1683009347514399700,15.221399658203126,-0.36419999599456787,-0.8055999875068665,-0.6747999787330627
1683009347534399700,15.241399658203125,-0.40950000286102295,-0.483599990606308,-0.4447999894618988
1683009347554399700,15.261399658203125,-0.42229998111724854,-0.21459999680519104,-0.32409998774528503
1683009347574399700,15.281399658203124,-0.15969999134540558,0.020499998703598976,-0.507099986076355
1683009347594399700,15.301399658203126,0.18599998950958252,0.09209999442100525,-0.7958999872207642
1683009347614401300,15.3214013671875,0.29409998655319214,0.12449999898672104,-1.2008999586105347
1683009347634399700,15.341399658203125,0.23439998924732208,0.09079999476671219,-1.272499918937683
1683009347654399700,15.361399658203124,0.07880000025033951,0.06119999662041664,-1.0025999546051025
1683009347674401300,15.3814013671875,0.12639999389648438,0.11909999698400497,-0.733299970626831
1683009347694399700,15.401399658203125,0.2513999938964844,0.24969999492168427,-0.6890999674797058
1683009347714399700,15.421399658203125,0.3901999890804291,0.4195999801158905,-0.9664999842643738
1683009347734399700,15.441399658203125,0.5159000158309937,0.48589998483657837,-1.36899995803833
1683009347754401300,15.4614013671875,0.6061999797821045,0.42399999499320984,-1.6134999990463257
1683009347774399700,15.481399658203125,0.6498000025749207,0.3278000056743622,-1.621999979019165
1683009347794399700,15.501399658203125,0.5633000135421753,0.3407999873161316,-1.6399999856948853
1683009347814401300,15.5214013671875,0.4283999800682068,0.36389997601509094,-1.7461999654769897
1683009347834399700,15.541399658203124,0.3165999948978424,0.32999998331069946,-1.9021999835968018
1683009347854399700,15.561399658203126,0.3197000026702881,0.23189999163150787,-1.9218999147415161
1683009347874399700,15.581399658203125,0.3659999966621399,-0.05379999801516533,-1.6675999164581299
1683009347894399700,15.601399658203125,0.44179999828338623,-0.24479998648166656,-1.393399953842163
1683009347914399700,15.621399658203124,0.33059999346733093,-0.2533999979496002,-1.1575000286102295
1683009347934399700,15.641399658203126,0.12219999730587006,-0.3757999837398529,-0.40149998664855957
1683009347954399700,15.661399658203125,0.031199999153614044,-0.7307999730110168,1.1384999752044678
1683009347974401300,15.6814013671875,-0.1454000025987625,-0.9180999994277954,2.7551000118255615
1683009347994399700,15.701399658203124,-0.06119999662041664,-1.261199951171875,4.087399959564209
1683009348014399700,15.721399658203126,0.08049999922513962,-1.0799999237060547,4.498799800872803
1683009348034399700,15.741399658203125,0.43709999322891235,-0.7058999538421631,3.637199878692627
1683009348054399700,15.761399658203125,0.6383000016212463,-0.3920999765396118,2.642699956893921
1683009348074399700,15.781399658203124,0.6208999752998352,-0.21310000121593475,2.384899854660034
1683009348094399700,15.801399658203126,0.25929999351501465,-0.10909999907016754,2.4788999557495117
1683009348114401300,15.8214013671875,-0.5137999653816223,0.004399999976158142,2.394700050354004
1683009348134399700,15.841399658203125,-1.2799999713897705,0.22269999980926514,2.073199987411499
1683009348154399700,15.861399658203124,-1.5929999351501465,0.32989999651908875,1.5835999250411987
1683009348174401300,15.8814013671875,-1.330199956893921,0.2962999939918518,1.1126999855041504
1683009348194399700,15.901399658203125,-0.9304999709129333,0.22429999709129333,0.9156999588012695
1683009348214399700,15.921399658203125,-0.6305999755859375,0.24969999492168427,0.5716999769210815
1683009348234399700,15.941399658203125,-0.5593999624252319,0.29440000653266907,0.19859999418258667
1683009348254399700,15.961399658203124,-0.5857999920845032,0.4080999791622162,-0.027300000190734863
1683009348274399700,15.981399658203125,-0.5733000040054321,0.5353999733924866,-0.23319999873638153
1683009348294399700,16.001399658203123,-0.6207000017166138,0.6103999614715576,-0.5471999645233154
1683009348314401300,16.0214013671875,-0.6764000058174133,0.582099974155426,-0.7734999656677246
1683009348334401300,16.0414013671875,-0.7117999792098999,0.5094999670982361,-0.9228999614715576
1683009348354399700,16.061399658203126,-0.6577999591827393,0.3937000036239624,-1.0738999843597412
1683009348374399700,16.081399658203125,-0.6496999859809875,0.35359999537467957,-1.2350999116897583
1683009348394399700,16.101399658203125,-0.5295000076293945,0.3983999788761139,-1.208799958229065
1683009348414399700,16.121399658203124,-0.3621000051498413,0.5723999738693237,-0.9853000044822693
1683009348434399700,16.141399658203124,-0.2710999846458435,0.684499979019165,-0.8398999571800232
1683009348454399700,16.161399658203123,-0.3164999783039093,0.8271999955177307,-0.977899968624115
1683009348474399700,16.181399658203127,-0.43320000171661377,0.8046000003814697,-1.2731000185012817
1683009348494399700,16.201399658203126,-0.5281999707221985,0.8095999956130981,-1.5702999830245972
1683009348514399700,16.221399658203126,-0.652999997138977,0.7949000000953674,-1.9566999673843384
1683009348534399700,16.241399658203125,-0.6656999588012695,0.88919997215271,-2.093899965286255
1683009348554399700,16.261399658203125,-0.9453999996185303,1.0454999208450317,-1.8858000040054321
1683009348574399700,16.281399658203124,-1.0499999523162842,0.9971999526023865,-1.3952000141143799
1683009348594399700,16.301399658203124,-1.0204999446868896,1.1403999328613281,-0.856499969959259
1683009348614399700,16.321399658203124,-1.0749000310897827,1.138700008392334,-0.4461999833583832
1683009348634399700,16.341399658203127,-1.0312999486923218,1.0369999408721924,-0.40829998254776
1683009348654399700,16.361399658203126,-0.8416000008583069,0.5532000064849854,-0.4487999975681305
1683009348674399700,16.381399658203126,-0.17710000276565552,-0.24279999732971191,0.029500000178813934
1683009348694399700,16.401399658203125,0.5694000124931335,-0.9146999716758728,0.8804000020027161
1683009348714399700,16.421399658203125,1.1409000158309937,-1.412500023841858,2.1823999881744385
1683009348734399700,16.441399658203125,1.256600022315979,-1.3808000087738037,3.3845999240875244
1683009348754399700,16.461399658203124,1.06059992313385,-1.045799970626831,3.3313000202178955
1683009348774399700,16.481399658203124,1.0614999532699585,-1.1761999130249023,2.3794000148773193
1683009348794399700,16.501399658203123,1.0820000171661377,-1.7246999740600586,2.507499933242798
1683009348814399700,16.521399658203126,1.2384999990463257,-2.0546000003814697,3.1046998500823975
1683009348834399700,16.541399658203126,0.712399959564209,-1.6351999044418335,3.142199993133545
1683009348854399700,16.561399658203126,0.2272999882698059,-1.0727999210357666,2.985100030899048
1683009348874399700,16.581399658203125,-0.2037999927997589,-0.4666999876499176,2.3864998817443848
1683009348894399700,16.601399658203125,-0.35819998383522034,-0.3075999915599823,1.4742999076843262
1683009348914399700,16.621399658203124,-0.2449999898672104,-0.3563999831676483,0.41599997878074646
1683009348934399700,16.641399658203124,-0.02019999921321869,-0.46299999952316284,-0.3572999835014343
1683009348954399700,16.661399658203123,0.11859999597072601,-0.4852999746799469,-0.7678999900817871
1683009348974399700,16.681399658203127,0.051899999380111694,-0.29269999265670776,-0.7770000100135803
1683009348994399700,16.701399658203126,-0.00839999970048666,-0.031700000166893005,-0.7567999958992004
1683009349014399700,16.721399658203126,0.049799997359514236,0.14259999990463257,-0.6972000002861023
1683009349034399700,16.741399658203125,-0.0478999987244606,0.2987000048160553,-0.7660999894142151
1683009349054399700,16.761399658203125,-0.11979999393224716,0.38929998874664307,-0.8748999834060669
1683009349074399700,16.781399658203124,-0.31929999589920044,0.4553000032901764,-0.7396999597549438
1683009349094399700,16.801399658203124,-0.5112999677658081,0.5669999718666077,-0.6542999744415283
1683009349114399700,16.821399658203124,-0.585599958896637,0.5634999871253967,-0.5101000070571899
1683009349134399700,16.841399658203127,-0.46609997749328613,0.5900999903678894,-0.3668999969959259
1683009349154399700,16.861399658203126,-0.1995999962091446,0.6277999877929688,-0.6747999787330627
1683009349174402800,16.88140283203125,0.11169999837875366,0.7157999873161316,-1.2955999374389648
1683009349194399700,16.901399658203125,0.17790000140666962,0.6315999627113342,-1.6812999248504639
1683009349214399700,16.921399658203125,0.07400000095367432,0.498199999332428,-1.7936999797821045
1683009349234399700,16.941399658203125,-0.011899999342858791,0.3431999981403351,-1.71999990940094
1683009349254401300,16.9614013671875,0.04010000079870224,0.37199997901916504,-1.8222999572753906
1683009349274399700,16.981399658203124,0.29989999532699585,0.3920999765396118,-1.7273999452590942
1683009349294399700,17.001399658203123,0.5728999972343445,0.4026999771595001,-1.5728999376296997
1683009349314401300,17.0214013671875,0.7163000106811523,0.4088999927043915,-1.1924999952316284
1683009349334401300,17.0414013671875,0.6288999915122986,0.4940999746322632,-0.9291999936103821
1683009349354399700,17.061399658203126,0.5539000034332275,0.4575999975204468,-0.4596000015735626
1683009349374399700,17.081399658203125,0.45799997448921204,0.17639999091625214,0.6862999796867371
1683009349394399700,17.101399658203125,0.5950999855995178,-0.19439999759197235,2.0673999786376953
1683009349414399700,17.121399658203124,0.8330000042915344,-0.6721000075340271,3.3508999347686768
1683009349434399700,17.141399658203124,0.9563999772071838,-0.6096999645233154,3.6736998558044434
1683009349454399700,17.161399658203123,1.12909996509552,-0.5250999927520752,2.8304998874664307
1683009349474401300,17.1814013671875,1.0204999446868896,-0.9396999478340149,1.959399938583374
1683009349494399700,17.201399658203126,0.9846999645233154,-1.4279999732971191,2.0109000205993652
1683009349514399700,17.221399658203126,0.807699978351593,-1.7382999658584595,2.3573999404907227
1683009349534399700,17.241399658203125,0.3278999924659729,-1.7624999284744263,2.7136998176574707
1683009349554399700,17.261399658203125,-0.21649999916553497,-1.6022999286651611,2.7261998653411865
1683009349574399700,17.281399658203124,-0.5699999928474426,-1.0815999507904053,1.8953999280929565
1683009349594399700,17.301399658203124,-0.589199960231781,-0.5539999604225159,0.9084999561309814
1683009349614401300,17.3214013671875,-0.6039999723434448,-0.30979999899864197,0.43230000138282776
1683009349634399700,17.341399658203127,-0.7889999747276306,-0.15549999475479126,0.210999995470047
1683009349654399700,17.361399658203126,-1.1304999589920044,-0.014099999330937862,0.11649999767541885
1683009349674401300,17.3814013671875,-1.3407999277114868,0.03189999982714653,0.21699999272823334
1683009349694399700,17.401399658203125,-1.48989999294281,0.07099999487400055,0.21819999814033508
1683009349714399700,17.421399658203125,-1.3112999200820923,0.027699999511241913,-0.0348999984562397
1683009349734399700,17.441399658203125,-1.0191999673843384,0.009399999864399433,-0.39569997787475586
1683009349754401300,17.4614013671875,-0.7479000091552734,-0.06629999727010727,-0.6876999735832214
1683009349774399700,17.481399658203124,-0.6471999883651733,-0.030399998649954796,-0.9016000032424927
1683009349794399700,17.501399658203123,-0.715999960899353,0.04529999941587448,-0.9786999821662903
1683009349814399700,17.521399658203126,-0.7690999507904053,0.24059998989105225,-1.0069999694824219
1683009349834401300,17.5414013671875,-0.7694000005722046,0.41589999198913574,-1.1038999557495117
1683009349854399700,17.561399658203126,-0.738599956035614,0.6372999548912048,-1.279099941253662
1683009349874399700,17.581399658203125,-0.6869999766349792,0.7712999582290649,-1.3952999114990234
1683009349894399700,17.601399658203125,-0.66839998960495,0.8277999758720398,-1.2766000032424927
1683009349914399700,17.621399658203124,-0.6434999704360962,0.9080999493598938,-1.1187000274658203
1683009349934399700,17.641399658203124,-0.6729999780654907,1.0988999605178833,-1.0785999298095703
1683009349954399700,17.661399658203123,-0.7008000016212463,1.4101999998092651,-1.1654999256134033
1683009349974399700,17.681399658203127,-0.6444000005722046,1.6669999361038208,-1.4678999185562134
1683009349994399700,17.701399658203126,-0.6696000099182129,1.709999918937683,-1.7423999309539795
1683009350014399700,17.721399658203126,-0.6103000044822693,1.6466999053955078,-1.890199899673462
1683009350034399700,17.741399658203125,-0.6262999773025513,1.4688999652862549,-1.607800006866455
1683009350054399700,17.761399658203125,-0.5342000126838684,1.201300024986267,-0.9241999983787537
1683009350074399700,17.781399658203124,-0.3215999901294708,0.9226999878883362,-0.06499999761581421
1683009350094399700,17.801399658203124,-0.02070000022649765,0.6913999915122986,0.4502999782562256
1683009350114401300,17.8214013671875,0.2857999801635742,0.3073999881744385,0.6717999577522278
1683009350134399700,17.841399658203127,0.6013999581336975,-0.3653999865055084,1.149399995803833
1683009350154399700,17.861399658203126,0.9296999573707581,-0.7989999651908875,1.8732999563217163
1683009350174401300,17.8814013671875,0.9536999464035034,-0.9863999485969543,2.823199987411499
1683009350194399700,17.901399658203125,0.6543999910354614,-0.882099986076355,3.469099998474121
1683009350214399700,17.921399658203125,0.3051999807357788,-0.6953999996185303,3.477099895477295
1683009350234402800,17.94140283203125,0.15719999372959137,-0.9009999632835388,3.3969998359680176
1683009350254401300,17.9614013671875,0.2969000041484833,-1.1612999439239502,3.552299976348877
1683009350274399700,17.981399658203124,0.5952999591827393,-1.3449000120162964,3.7075998783111572
1683009350294399700,18.001399658203123,0.998699963092804,-1.5620999336242676,3.922999858856201
1683009350314399700,18.021399658203126,1.1755999326705933,-1.43559992313385,3.2366998195648193
1683009350334401300,18.0414013671875,0.976099967956543,-0.8464999794960022,1.101099967956543
1683009350354399700,18.061399658203126,0.3773999810218811,-0.5288999676704407,-0.5424999594688416
1683009350374399700,18.081399658203125,-0.09290000051259995,-0.4496999979019165,-1.382599949836731
1683009350394399700,18.101399658203125,-0.46149998903274536,-0.42729997634887695,-1.7038999795913696
1683009350414399700,18.121399658203124,-0.6674999594688416,-0.30660000443458557,-1.6143999099731445
1683009350434399700,18.141399658203124,-0.6121000051498413,0.014699999243021011,-1.0551999807357788
1683009350454399700,18.161399658203123,-0.37939998507499695,0.37549999356269836,-0.711899995803833
1683009350474399700,18.181399658203127,-0.13030000030994415,0.656499981880188,-0.5640000104904175
1683009350494402800,18.20140283203125,-0.010300000198185444,0.7787999510765076,-0.5827000141143799
1683009350514399700,18.221399658203126,-0.031199999153614044,0.7816999554634094,-0.8370999693870544
1683009350534399700,18.241399658203125,-0.21899999678134918,0.670699954032898,-1.1414999961853027
1683009350554399700,18.261399658203125,-0.36489999294281006,0.5898000001907349,-1.4175999164581299
1683009350574402800,18.28140283203125,-0.41769999265670776,0.5446999669075012,-1.7328999042510986
1683009350594402800,18.30140283203125,-0.36059999465942383,0.4380999803543091,-2.0873000621795654
1683009350614401300,18.3214013671875,-0.12389999628067017,0.33059999346733093,-2.323499917984009
1683009350634399700,18.341399658203127,0.04659999907016754,0.29899999499320984,-2.216599941253662
1683009350654399700,18.361399658203126,0.002199999988079071,0.31709998846054077,-1.8846999406814575
1683009350674401300,18.3814013671875,0.06199999898672104,0.3561999797821045,-1.4941999912261963
1683009350694399700,18.401399658203125,0.3263999819755554,0.19679999351501465,-0.965999960899353
1683009350714399700,18.421399658203125,0.6642999649047852,0.06949999928474426,-0.8883000016212463
1683009350734399700,18.441399658203125,0.9736999869346619,0.24709999561309814,-0.35850000381469727
1683009350754401300,18.4614013671875,1.284999966621399,0.5742999911308289,0.4170999825000763
1683009350774399700,18.481399658203124,1.468999981880188,0.9257999658584595,0.7622999548912048
1683009350794399700,18.501399658203123,1.3953999280929565,1.0541999340057373,0.5202999711036682
1683009350814399700,18.521399658203126,0.7950999736785889,0.675000011920929,0.3278999924659729
1683009350834399700,18.541399658203126,0.10029999911785126,0.13939999043941498,0.36079999804496765
1683009350854399700,18.561399658203126,-0.30300000309944153,-0.08609999716281891,0.7854999899864197
1683009350874399700,18.581399658203125,-0.19589999318122864,-0.28999999165534973,1.865299940109253
1683009350894399700,18.601399658203125,0.12319999933242798,-0.48249998688697815,2.9042999744415283
1683009350914399700,18.621399658203124,0.18689998984336853,-0.3637999892234802,2.941999912261963
1683009350934399700,18.641399658203124,0.15839999914169312,-0.04729999974370003,1.8043999671936035
1683009350954399700,18.661399658203123,0.02709999866783619,-0.5011999607086182,1.6203999519348145
1683009350974401300,18.6814013671875,0.13849999010562897,-1.4128999710083008,3.0713999271392822
1683009350994399700,18.701399658203126,0.251800000667572,-1.5362999439239502,4.115299701690674
1683009351014399700,18.721399658203126,0.00419999985024333,-1.0405999422073364,3.541299819946289
1683009351034399700,18.741399658203125,-0.4601999819278717,-0.6137999892234802,2.0012998580932617
1683009351054399700,18.761399658203125,-0.8574000000953674,-0.5077999830245972,0.7001999616622925
1683009351074399700,18.781399658203124,-1.170799970626831,-0.5141000151634216,0.3009999990463257
1683009351094399700,18.801399658203124,-1.3438999652862549,-0.6072999835014343,0.39969998598098755
1683009351114401300,18.8214013671875,-1.4053999185562134,-0.7925999760627747,0.3391999900341034
1683009351134399700,18.841399658203127,-0.8639999628067017,-0.8887999653816223,0.18029999732971191
1683009351154399700,18.861399658203126,-0.16439999639987946,-0.8621999621391296,-0.026599999517202377
1683009351174401300,18.8814013671875,0.29339998960494995,-0.6664999723434448,-0.31039997935295105
1683009351194399700,18.901399658203125,0.4169999957084656,-0.47189998626708984,-0.5437999963760376
1683009351214399700,18.921399658203125,0.22829999029636383,-0.2816999852657318,-0.6987000107765198
1683009351234399700,18.941399658203125,-0.27950000762939453,-0.09279999881982803,-0.9037999510765076
1683009351254399700,18.961399658203124,-0.6944999694824219,0.1354999989271164,-1.0993999242782593
1683009351274399700,18.981399658203124,-0.9145999550819397,0.31599998474121094,-1.1964999437332153
1683009351294399700,19.001399658203123,-0.9677000045776367,0.3870999813079834,-1.0582000017166138
1683009351314399700,19.021399658203126,-0.9792999625205994,0.5443999767303467,-1.0376999378204346
1683009351334399700,19.041399658203126,-0.9559999704360962,0.6969000101089478,-1.0961999893188477
1683009351354399700,19.061399658203126,-0.7532999515533447,0.73499995470047,-1.0471999645233154
1683009351374399700,19.081399658203125,-0.4488999843597412,0.8637999892234802,-0.9596999883651733
1683009351394399700,19.101399658203125,-0.1736999899148941,1.0085999965667725,-0.9898999929428101
1683009351414399700,19.121399658203124,-0.31610000133514404,1.1984999179840088,-0.97079998254776
1683009351434399700,19.141399658203124,-0.5895000100135803,1.361899971961975,-0.9027000069618225
1683009351454399700,19.161399658203123,-0.8367999792098999,1.4571999311447144,-1.3256999254226685
1683009351474401300,19.1814013671875,-0.627299964427948,1.277899980545044,-2.0040998458862305
1683009351494399700,19.201399658203126,-0.6940000057220459,1.0174999237060547,-2.986299991607666
1683009351514399700,19.221399658203126,-0.42559999227523804,0.7157999873161316,-3.262699842453003
1683009351534399700,19.241399658203125,-0.28129997849464417,0.46879997849464417,-3.1947999000549316
1683009351554399700,19.261399658203125,-0.3781999945640564,0.26589998602867126,-2.6557998657226562
1683009351574399700,19.281399658203124,-0.29739999771118164,-0.10099999606609344,-1.184499979019165
1683009351594399700,19.301399658203124,0.011699999682605267,-0.7046999931335449,1.6687999963760376
1683009351614401300,19.3214013671875,0.4300999939441681,-0.9218999743461609,4.4807000160217285
1683009351634399700,19.341399658203127,0.7393999695777893,-0.7129999995231628,6.321499824523926
1683009351654399700,19.361399658203126,0.6640999913215637,-0.28209999203681946,6.006099700927734
1683009351674401300,19.3814013671875,0.9010999798774719,-0.45899999141693115,4.330999851226807
1683009351694399700,19.401399658203125,0.8983999490737915,-1.0404000282287598,3.019699811935425
1683009351714399700,19.421399658203125,0.3969999849796295,-1.4663000106811523,2.0119998455047607
1683009351734399700,19.441399658203125,-0.039799999445676804,-1.8801000118255615,1.4656999111175537
1683009351754401300,19.4614013671875,-0.3456999957561493,-2.3317999839782715,2.721799850463867
1683009351774399700,19.481399658203124,-0.39079999923706055,-1.8537999391555786,3.452399969100952
1683009351794399700,19.501399658203123,0.11209999769926071,-0.9412999749183655,2.6836998462677
1683009351814399700,19.521399658203126,0.7142999768257141,-0.37369999289512634,1.1935999393463135
1683009351834399700,19.541399658203126,0.8585999608039856,-0.19829998910427094,-0.28509998321533203
1683009351854399700,19.561399658203126,0.849399983882904,-0.3562999963760376,-0.6845999956130981
1683009351874399700,19.581399658203125,0.4721999764442444,-0.30159997940063477,-0.30069997906684875
1683009351894399700,19.601399658203125,-0.006300000008195639,-0.19859999418258667,0.07090000063180923
1683009351914399700,19.621399658203124,-0.14409999549388885,0.0066999997943639755,-0.18559999763965607
1683009351934399700,19.641399658203124,-0.024799998849630356,0.13490000367164612,-0.6965000033378601
1683009351954399700,19.661399658203123,0.3068999946117401,0.18320000171661377,-1.3327999114990234
1683009351974401300,19.6814013671875,0.31599998474121094,0.13379999995231628,-1.7132999897003174
1683009351994399700,19.701399658203126,0.17309999465942383,0.13699999451637268,-1.8490999937057495
1683009352014399700,19.721399658203126,-0.3659999966621399,0.16579999029636383,-1.7411999702453613
1683009352034401300,19.7414013671875,-0.7457000017166138,0.23249998688697815,-1.4483000040054321
1683009352054399700,19.761399658203125,-0.8375999927520752,0.2985000014305115,-1.2145999670028687
1683009352074399700,19.781399658203124,-0.5550000071525574,0.30219998955726624,-1.186900019645691
1683009352094399700,19.801399658203124,-0.11959999799728394,0.2848999798297882,-1.1979999542236328
1683009352114399700,19.821399658203124,0.32499998807907104,0.36629998683929443,-1.3364999294281006
1683009352134399700,19.841399658203127,0.5139999985694885,0.3783999979496002,-1.4160999059677124
1683009352154399700,19.861399658203126,0.5180000066757202,0.3781999945640564,-1.4270999431610107
1683009352174401300,19.8814013671875,0.5726999640464783,0.3877999782562256,-1.350000023841858
1683009352194399700,19.901399658203125,0.49789997935295105,0.42890000343322754,-1.3314999341964722
1683009352214399700,19.921399658203125,0.45229998230934143,0.5543000102043152,-1.322700023651123
1683009352234402800,19.94140283203125,0.4302999973297119,0.6863999962806702,-1.313499927520752
1683009352254401300,19.9614013671875,0.34769999980926514,0.8592999577522278,-1.205899953842163
1683009352274399700,19.981399658203124,0.08139999955892563,0.9916999936103821,-0.7944999933242798
1683009352294399700,20.001399658203123,-0.0705999955534935,0.9271000027656555,-0.13840000331401825
1683009352314399700,20.021399658203126,-0.10509999841451645,0.5705999732017517,0.8998000025749207
1683009352334399700,20.041399658203126,-0.054999999701976776,-0.00930000003427267,2.065199851989746
1683009352354399700,20.061399658203126,0.22749999165534973,-0.019899999722838402,2.583400011062622
1683009352374399700,20.081399658203125,0.32330000400543213,-0.39890000224113464,2.6313998699188232
1683009352394399700,20.101399658203125,0.6642000079154968,-0.4633999764919281,2.660399913787842
1683009352414399700,20.121399658203124,1.038699984550476,-0.468999981880188,2.3367998600006104
1683009352434399700,20.141399658203124,1.0509999990463257,-0.7422999739646912,2.2395999431610107
1683009352454399700,20.161399658203123,0.8925999999046326,-1.3646999597549438,2.878000020980835
1683009352474401300,20.1814013671875,0.6934999823570251,-1.5584999322891235,2.966599941253662
1683009352494399700,20.201399658203126,0.2750000059604645,-1.3947999477386475,2.33870005607605
1683009352514402800,20.22140283203125,-0.4578999876976013,-0.8686999678611755,1.5928999185562134
1683009352534401300,20.2414013671875,-1.1990000009536743,-0.4527999758720398,1.1411999464035034
1683009352554402800,20.26140283203125,-1.5870999097824097,0.0026000000070780516,0.7684999704360962
1683009352574402800,20.28140283203125,-1.7197999954223633,0.2459999918937683,0.6904999613761902
1683009352594399700,20.301399658203124,-1.6964999437332153,0.23240000009536743,0.6804999709129333
1683009352614401300,20.3214013671875,-1.3808999061584473,0.19189999997615814,0.6304999589920044
1683009352634399700,20.341399658203127,-0.6988999843597412,0.1890999972820282,0.24779999256134033
1683009352654399700,20.361399658203126,-0.09139999747276306,0.23919999599456787,-0.24159999191761017
1683009352674401300,20.3814013671875,0.4465999901294708,0.16939999163150787,-0.8282999992370605
1683009352694399700,20.401399658203125,0.755299985408783,0.3292999863624573,-1.327199935913086
1683009352714399700,20.421399658203125,0.5292999744415283,0.4108999967575073,-1.406000018119812
1683009352734402800,20.44140283203125,-0.11050000041723251,0.6187999844551086,-1.378000020980835
1683009352754402800,20.46140283203125,-0.7188999652862549,0.7234999537467957,-1.1723999977111816
1683009352774399700,20.481399658203124,-1.0621999502182007,0.8657999634742737,-1.1033999919891357
1683009352794399700,20.501399658203123,-1.2287999391555786,0.854699969291687,-0.8381999731063843
1683009352814399700,20.521399658203126,-1.0555999279022217,0.8982999920845032,-0.7001999616622925
1683009352834401300,20.5414013671875,-0.8952999711036682,0.9966999888420105,-0.7973999977111816
1683009352854399700,20.561399658203126,-0.6894999742507935,1.1114000082015991,-1.0997999906539917
1683009352874399700,20.581399658203125,-0.5059999823570251,1.291599988937378,-1.5190999507904053
1683009352894401300,20.6014013671875,-0.29420000314712524,1.2431999444961548,-1.9183999300003052
1683009352914399700,20.621399658203124,-0.3075000047683716,1.0615999698638916,-2.249699831008911
1683009352934399700,20.641399658203124,-0.40529999136924744,0.7748000025749207,-2.337399959564209
1683009352954402800,20.66140283203125,-0.5291000008583069,0.6024999618530273,-2.2692999839782715
1683009352974399700,20.681399658203127,-0.5087000131607056,0.5468999743461609,-2.3192999362945557
1683009352994399700,20.701399658203126,-0.3978999853134155,0.16899999976158142,-1.977199912071228
1683009353014402800,20.72140283203125,0.014599999412894249,-0.09679999947547913,-0.9491999745368958
1683009353034401300,20.7414013671875,0.22609999775886536,-0.5758999586105347,1.1358000040054321
1683009353054399700,20.761399658203125,0.4300999939441681,-0.6462999582290649,3.005499839782715
1683009353074399700,20.781399658203124,0.6003000140190125,-0.4009999930858612,4.073899745941162
1683009353094402800,20.80140283203125,0.875499963760376,0.029099998995661736,3.7906999588012695
1683009353114401300,20.8214013671875,1.173200011253357,0.09749999642372131,3.144199848175049
1683009353134399700,20.841399658203127,1.2541999816894531,-0.07719999551773071,2.801499843597412
1683009353154399700,20.861399658203126,0.8015999794006348,-0.5785999894142151,2.9691998958587646
1683009353174401300,20.8814013671875,0.5141000151634216,-1.1161999702453613,3.353600025177002
1683009353194399700,20.901399658203125,0.16820000112056732,-1.2839000225067139,3.375
1683009353214399700,20.921399658203125,0.020499998703598976,-1.1291999816894531,2.6703999042510986
1683009353234399700,20.941399658203125,-0.07169999927282333,-1.0239999294281006,1.7508000135421753
1683009353254401300,20.9614013671875,-0.13429999351501465,-0.9621999859809875,0.8608999848365784
1683009353274399700,20.981399658203124,-0.2345999926328659,-0.8901999592781067,0.20649999380111694
1683009353294399700,21.001399658203123,-0.3774999976158142,-0.8496999740600586,-0.04609999805688858
1683009353314399700,21.021399658203126,-0.5103999972343445,-0.7360000014305115,-0.10439999401569366
1683009353334401300,21.0414013671875,-0.44859999418258667,-0.4748999774456024,-0.04659999907016754
1683009353354399700,21.061399658203126,-0.29429998993873596,-0.16869999468326569,-0.25380000472068787
1683009353374399700,21.081399658203125,-0.15779998898506165,0.0828000009059906,-0.567799985408783
1683009353394399700,21.101399658203125,-0.054999999701976776,0.19449999928474426,-0.8420000076293945
1683009353414399700,21.121399658203124,-0.08609999716281891,0.22829999029636383,-1.1067999601364136
1683009353434399700,21.141399658203124,-0.13300000131130219,0.18279999494552612,-1.2151999473571777
1683009353454399700,21.161399658203123,-0.2102999985218048,0.08959999680519104,-1.2254999876022339
1683009353474401300,21.1814013671875,-0.4172999858856201,-0.019099999219179153,-1.274999976158142
1683009353494399700,21.201399658203126,-0.23249998688697815,0.011799999512732029,-1.5404999256134033
1683009353514399700,21.221399658203126,-0.03830000013113022,-0.052400000393390656,-1.708799958229065
1683009353534401300,21.2414013671875,0.16269999742507935,-0.08479999750852585,-1.9947999715805054
1683009353554401300,21.2614013671875,0.4368000030517578,-0.1453000009059906,-2.0251998901367188
1683009353574399700,21.281399658203124,0.5819000005722046,-0.22139999270439148,-1.918199896812439
1683009353594399700,21.301399658203124,0.6398999691009521,-0.10669999569654465,-1.9286999702453613
1683009353614401300,21.3214013671875,0.6347000002861023,0.10339999943971634,-2.144700050354004
1683009353634399700,21.341399658203127,0.7519999742507935,0.188400000333786,-2.232800006866455
1683009353654399700,21.361399658203126,0.7414000034332275,0.25270000100135803,-2.350299835205078
1683009353674401300,21.3814013671875,0.8511999845504761,0.08460000157356262,-1.9865999221801758
1683009353694399700,21.401399658203125,0.7260000109672546,-0.009599999524652958,-1.014799952507019
1683009353714399700,21.421399658203125,0.5985999703407288,-0.16519999504089355,0.5453000068664551
1683009353734399700,21.441399658203125,0.311599999666214,-0.25220000743865967,2.0464999675750732
1683009353754401300,21.4614013671875,0.1598999947309494,-0.19929999113082886,3.0667998790740967
1683009353774399700,21.481399658203124,0.17019999027252197,-0.11679999530315399,3.6071999073028564
1683009353794399700,21.501399658203123,0.06619999557733536,-0.2011999934911728,3.6283998489379883
1683009353814399700,21.521399658203126,0.06780000030994415,-0.8752999901771545,4.0518999099731445
1683009353834399700,21.541399658203126,0.16269999742507935,-1.469099998474121,5.160699844360352
1683009353854399700,21.561399658203126,0.019099999219179153,-1.3572999238967896,5.610899925231934
1683009353874399700,21.581399658203125,-0.19709999859333038,-0.904699981212616,4.13100004196167
1683009353894399700,21.601399658203125,-0.6552000045776367,-0.8377999663352966,2.2916998863220215
1683009353914399700,21.621399658203124,-0.850600004196167,-0.9159999489784241,1.021899938583374
1683009353934399700,21.641399658203124,-1.0476000308990479,-0.824400007724762,0.17499999701976776
1683009353954399700,21.661399658203123,-1.324199914932251,-0.5737999677658081,-0.30969998240470886
1683009353974401300,21.6814013671875,-1.6371999979019165,-0.3238999843597412,-0.43529999256134033
1683009353994399700,21.701399658203126,-1.6964999437332153,-0.06379999965429306,-0.43699997663497925
1683009354014399700,21.721399658203126,-1.23989999294281,0.2683999836444855,-0.35019999742507935
1683009354034401300,21.7414013671875,-0.7599999904632568,0.5220000147819519,-0.4668999910354614
1683009354054399700,21.761399658203125,-0.49309998750686646,0.7125999927520752,-0.6317999958992004
1683009354074399700,21.781399658203124,-0.2830999791622162,0.8367999792098999,-0.9146999716758728
1683009354094399700,21.801399658203124,-0.2921999990940094,0.8140999674797058,-1.3359999656677246
1683009354114401300,21.8214013671875,-0.24889999628067017,0.8025999665260315,-1.7864999771118164
1683009354134399700,21.841399658203127,-0.27639999985694885,0.7910000085830688,-1.913100004196167
1683009354154399700,21.861399658203126,-0.3498999774456024,0.851099967956543,-1.980799913406372
1683009354174401300,21.8814013671875,-0.5006999969482422,1.0124999284744263,-1.881500005722046
1683009354194399700,21.901399658203125,-0.5946999788284302,1.198699951171875,-1.781499981880188
1683009354214399700,21.921399658203125,-0.46379998326301575,1.351199984550476,-1.8671000003814697
1683009354234399700,21.941399658203125,-0.2603999972343445,1.2888000011444092,-1.8939999341964722
1683009354254401300,21.9614013671875,-0.12929999828338623,1.254499912261963,-1.9508999586105347
1683009354274399700,21.981399658203124,-0.2092999964952469,1.2343000173568726,-2.115799903869629
1683009354294399700,22.001399658203123,-0.3146999776363373,1.2781999111175537,-2.3000998497009277
1683009354314399700,22.021399658203126,-0.4684000015258789,1.2060999870300293,-2.4646999835968018
1683009354334401300,22.0414013671875,-0.43529999256134033,1.0449999570846558,-2.296799898147583
1683009354354399700,22.061399658203126,-0.2936999797821045,0.7384999990463257,-1.7382999658584595
1683009354374399700,22.081399658203125,-0.051500000059604645,0.13199999928474426,-0.3763999938964844
1683009354394399700,22.101399658203125,0.27059999108314514,-0.4120999872684479,1.8084999322891235
1683009354414399700,22.121399658203124,0.29319998621940613,-0.33719998598098755,3.581899881362915
1683009354434399700,22.141399658203124,0.27549999952316284,-0.29179999232292175,4.492300033569336
1683009354454399700,22.161399658203123,0.448199987411499,-0.39229997992515564,4.334799766540527
1683009354474401300,22.1814013671875,0.849299967288971,-0.7414999604225159,3.5683000087738037
1683009354494399700,22.201399658203126,1.1547999382019043,-1.337399959564209,3.6945998668670654
1683009354514399700,22.221399658203126,0.8441999554634094,-1.6143999099731445,4.085400104522705
1683009354534401300,22.2414013671875,0.1395999938249588,-1.2818999290466309,3.563499927520752
1683009354554399700,22.261399658203125,-0.2741999924182892,-1.1974999904632568,2.924799919128418
1683009354574399700,22.281399658203124,-0.5356000065803528,-1.180400013923645,2.3441998958587646
1683009354594399700,22.301399658203124,-0.2637999951839447,-1.121500015258789,1.3538999557495117
1683009354614401300,22.3214013671875,-0.2044999897480011,-1.0214999914169312,0.43479999899864197
1683009354634399700,22.341399658203127,-0.13490000367164612,-1.032599925994873,-0.17219999432563782
1683009354654399700,22.361399658203126,-0.019099999219179153,-1.031999945640564,-0.6934999823570251
1683009354674401300,22.3814013671875,0.22339999675750732,-0.8551999926567078,-1.2348999977111816
1683009354694399700,22.401399658203125,0.5997999906539917,-0.5913000106811523,-1.2254999876022339
1683009354714399700,22.421399658203125,0.7787999510765076,-0.23070000112056732,-1.1067999601364136
1683009354734399700,22.441399658203125,0.8962000012397766,0.14749999344348907,-1.0764999389648438
1683009354754401300,22.4614013671875,0.5781999826431274,0.43309998512268066,-1.0779999494552612
1683009354774399700,22.481399658203124,0.05469999834895134,0.6195999979972839,-1.1395000219345093
1683009354794399700,22.501399658203123,-0.2459999918937683,0.774399995803833,-1.1901999711990356
1683009354814399700,22.521399658203126,-0.2361999899148941,0.7077999711036682,-1.1718999147415161
1683009354834399700,22.541399658203126,-0.13019999861717224,0.5758000016212463,-1.1632999181747437
1683009354854399700,22.561399658203126,-0.11569999903440475,0.4196999967098236,-1.3025000095367432
1683009354874399700,22.581399658203125,-0.023399999365210533,0.31769999861717224,-1.451799988746643
1683009354894399700,22.601399658203125,0.11050000041723251,0.21809999644756317,-1.74809992313385
1683009354914399700,22.621399658203124,0.40209999680519104,0.0616999976336956,-2.034600019454956
1683009354934399700,22.641399658203124,0.7080000042915344,0.03350000083446503,-2.03629994392395
1683009354954399700,22.661399658203123,0.7893999814987183,0.21930000185966492,-1.9190999269485474
1683009354974401300,22.6814013671875,0.6902999877929688,0.5443999767303467,-1.6725999116897583
1683009354994399700,22.701399658203126,0.3147999942302704,0.8101999759674072,-1.6203999519348145
1683009355014399700,22.721399658203126,-0.2515999972820282,0.5307999849319458,-0.3807999789714813
1683009355034401300,22.7414013671875,-0.7860999703407288,0.02539999969303608,1.6220999956130981
1683009355054399700,22.761399658203125,-1.354699969291687,-0.0689999982714653,3.642899990081787
1683009355074399700,22.781399658203124,-1.518399953842163,-0.25929999351501465,5.064300060272217
1683009355094399700,22.801399658203124,-0.7990999817848206,-0.3264999985694885,5.158799648284912
1683009355114401300,22.8214013671875,0.30300000309944153,-0.41429999470710754,3.7515997886657715
1683009355134399700,22.841399658203127,1.5063999891281128,-0.748199999332428,2.5725998878479004
1683009355154399700,22.861399658203126,1.8141999244689941,-0.9223999977111816,2.700899839401245
1683009355174401300,22.8814013671875,1.1268999576568604,-1.0688999891281128,3.6639997959136963
1683009355194399700,22.901399658203125,0.12770000100135803,-0.6693999767303467,3.9988999366760254
1683009355214399700,22.921399658203125,-1.0541999340057373,-0.2897000014781952,3.265699863433838
1683009355234399700,22.941399658203125,-1.5020999908447266,0.08590000122785568,1.9444999694824219
1683009355254401300,22.9614013671875,-1.319000005722046,0.28110000491142273,0.8003999590873718
1683009355274399700,22.981399658203124,-1.205199956893921,0.3449999988079071,-0.13729999959468842
1683009355294399700,23.001399658203123,-0.9476999640464783,0.4901999831199646,-1.0938999652862549
1683009355314399700,23.021399658203126,-0.9149999618530273,0.5476999878883362,-1.6204999685287476
1683009355334401300,23.0414013671875,-0.7269999980926514,0.7164999842643738,-2.021199941635132
1683009355354399700,23.061399658203126,-0.6557999849319458,0.9321999549865723,-1.9707999229431152
1683009355374399700,23.081399658203125,-0.6592999696731567,1.0512999296188354,-1.8712999820709229
1683009355394399700,23.101399658203125,-0.6200000047683716,0.9704999923706055,-1.4577999114990234
1683009355414399700,23.121399658203124,-0.6505999565124512,0.8955000042915344,-1.339900016784668
1683009355434399700,23.141399658203124,-0.6301000118255615,0.7095999717712402,-1.2817000150680542
1683009355454399700,23.161399658203123,-0.5680999755859375,0.5625,-1.1456999778747559
1683009355474401300,23.1814013671875,-0.41269999742507935,0.5321999788284302,-1.0584999322891235
1683009355494399700,23.201399658203126,-0.4617999792098999,0.4984999895095825,-0.7935999631881714
1683009355514399700,23.221399658203126,-0.589199960231781,0.5370000004768372,-0.45889997482299805
1683009355534399700,23.241399658203125,-0.5889999866485596,0.4593999981880188,0.09229999780654907
1683009355554399700,23.261399658203125,-0.6962999701499939,0.4494999945163727,0.6728999614715576
1683009355574399700,23.281399658203124,-0.9323999881744385,0.4964999854564667,1.1841999292373657
1683009355594399700,23.301399658203124,-1.1780999898910522,0.5902000069618225,1.4205999374389648
1683009355614401300,23.3214013671875,-1.3530999422073364,0.5805000066757202,1.4315999746322632
1683009355634399700,23.341399658203127,-1.3912999629974365,0.4016999900341034,1.4225999116897583
1683009355654399700,23.361399658203126,-1.3937000036239624,-0.024699999019503593,1.687399983406067
1683009355674399700,23.381399658203126,-1.274999976158142,-0.673799991607666,1.9809999465942383
1683009355694399700,23.401399658203125,-1.1949999332427979,-1.1780999898910522,2.175600051879883
1683009355714399700,23.421399658203125,-1.0537999868392944,-1.4021999835968018,2.0959999561309814
1683009355734402800,23.44140283203125,-0.8034999966621399,-1.2045999765396118,1.3808000087738037
1683009355754401300,23.4614013671875,-0.4976999759674072,-1.0236999988555908,0.5680999755859375
1683009355774399700,23.481399658203124,-0.11419999599456787,-1.0002999305725098,0.2653000056743622
1683009355794399700,23.501399658203123,-0.03399999812245369,-1.1072999238967896,0.5789999961853027
1683009355814399700,23.521399658203126,-0.24779999256134033,-1.1856999397277832,1.0779999494552612
1683009355834399700,23.541399658203126,-0.4339999854564667,-1.110700011253357,1.2049999237060547
1683009355854399700,23.561399658203126,-0.6496999859809875,-0.9690999984741211,0.7631999850273132
1683009355874399700,23.581399658203125,-0.5943999886512756,-0.7975999712944031,0.19329999387264252
1683009355894399700,23.601399658203125,-0.5263000130653381,-0.7303000092506409,-0.20960000157356262
1683009355914399700,23.621399658203124,-0.6172999739646912,-0.6873999834060669,-0.19119998812675476
1683009355934399700,23.641399658203124,-0.8693999648094177,-0.6977999806404114,-0.21279999613761902
1683009355954399700,23.661399658203123,-0.8151999711990356,-0.8017999529838562,-0.1665000021457672
1683009355974401300,23.6814013671875,-0.6194999814033508,-0.780299961566925,-0.14999999105930328
1683009355994399700,23.701399658203126,-0.4139999747276306,-0.7655999660491943,-0.17249999940395355
1683009356014399700,23.721399658203126,-0.26510000228881836,-0.7963999509811401,-0.5370999574661255
1683009356034401300,23.7414013671875,-0.38439998030662537,-0.9210000038146973,-1.1069999933242798
1683009356054399700,23.761399658203125,-0.42419999837875366,-0.9221999645233154,-1.2933999300003052
1683009356074399700,23.781399658203124,-0.436599999666214,-0.696399986743927,-1.0368000268936157
1683009356094399700,23.801399658203124,-0.29019999504089355,-0.35749998688697815,-0.6614999771118164
1683009356114401300,23.8214013671875,-0.21649999916553497,-0.11840000003576279,-0.060099996626377106
1683009356134399700,23.841399658203127,-0.01939999870955944,0.12839999794960022,0.296999990940094
1683009356154399700,23.861399658203126,0.13689999282360077,0.3393999934196472,0.3896999955177307
1683009356174399700,23.881399658203126,0.29269999265670776,0.5309999585151672,0.3552999794483185
1683009356194399700,23.901399658203125,0.37469998002052307,0.7356999516487122,0.13539999723434448
1683009356214399700,23.921399658203125,0.29440000653266907,0.9842999577522278,0.05289999768137932
1683009356234399700,23.941399658203125,0.061400000005960464,1.1275999546051025,-0.06960000097751617
1683009356254401300,23.9614013671875,-0.13459999859333038,1.1612999439239502,-0.1542000025510788
1683009356274399700,23.981399658203124,-0.2184000015258789,1.1075999736785889,0.034299999475479126
1683009356294399700,24.001399658203123,-0.1859000027179718,1.0591000318527222,0.3199000060558319
1683009356314399700,24.021399658203126,-0.13750000298023224,1.044700026512146,0.5162000060081482
1683009356334401300,24.0414013671875,-0.13009999692440033,0.9979999661445618,0.7416999936103821
1683009356354399700,24.061399658203126,-0.10830000042915344,0.8288999795913696,1.261099934577942
1683009356374399700,24.081399658203125,-0.11769999563694,0.6624999642372131,1.4842000007629395
1683009356394399700,24.101399658203125,-0.10429999977350235,0.14919999241828918,1.8122999668121338
1683009356414399700,24.121399658203124,0.010499999858438969,-0.5497999787330627,2.8242998123168945
1683009356434399700,24.141399658203124,0.0876999944448471,-0.8743999600410461,3.187700033187866
1683009356454399700,24.161399658203123,0.33799999952316284,-1.014799952507019,2.307800054550171
1683009356474401300,24.1814013671875,0.39149999618530273,-1.1240999698638916,0.9591999650001526
1683009356494399700,24.201399658203126,0.49539998173713684,-1.034500002861023,0.4854999780654907
1683009356514399700,24.221399658203126,0.1437000036239624,-0.5223000049591064,0.49549999833106995
1683009356534401300,24.2414013671875,-0.819599986076355,0.10639999806880951,0.5370999574661255
1683009356554401300,24.2614013671875,-1.4781999588012695,0.49889999628067017,0.06870000064373016
1683009356574399700,24.281399658203124,-1.8396999835968018,0.323199987411499,-0.5598999857902527
1683009356594399700,24.301399658203124,-1.5458999872207642,0.08879999816417694,-0.30969998240470886
1683009356614401300,24.3214013671875,-1.1269999742507935,-0.1622999906539917,0.3414999842643738
1683009356634399700,24.341399658203127,-0.8014000058174133,-0.3400000035762787,0.5117999911308289
1683009356654399700,24.361399658203126,-0.6164000034332275,-0.5034999847412109,0.249099999666214
1683009356674399700,24.381399658203126,-0.43449997901916504,-0.6840999722480774,0.0551999993622303
1683009356694399700,24.401399658203125,-0.3182999789714813,-0.6797999739646912,0.03969999775290489
1683009356714399700,24.421399658203125,-0.4544000029563904,-0.4124999940395355,-0.2378999888896942
1683009356734399700,24.441399658203125,-0.8100999593734741,-0.06069999933242798,-0.7003999948501587
1683009356754401300,24.4614013671875,-1.2848999500274658,0.15039999783039093,-1.152899980545044
1683009356774399700,24.481399658203124,-1.430400013923645,0.14479999244213104,-1.605799913406372
1683009356794399700,24.501399658203123,-1.260699987411499,0.0608999989926815,-1.813499927520752
1683009356814399700,24.521399658203126,-0.8428999781608582,0.015099999494850636,-1.6480998992919922
1683009356834399700,24.541399658203126,-0.3577999770641327,0.04470000043511391,-1.2858999967575073
1683009356854399700,24.561399658203126,-0.04079999774694443,0.204599991440773,-1.0016999244689941
1683009356874399700,24.581399658203125,-0.0031999999191612005,0.4733999967575073,-0.8934999704360962
1683009356894399700,24.601399658203125,-0.031700000166893005,0.7698000073432922,-1.0098999738693237
1683009356914399700,24.621399658203124,-0.1582999974489212,1.0693999528884888,-1.2333999872207642
1683009356934399700,24.641399658203124,-0.2963999807834625,1.351699948310852,-1.2110999822616577
1683009356954399700,24.661399658203123,-0.36879998445510864,1.5893999338150024,-1.080199956893921
1683009356974401300,24.6814013671875,-0.5020999908447266,1.6686999797821045,-0.7828999757766724
1683009356994399700,24.701399658203126,-0.5995000004768372,1.6341999769210815,-0.3292999863624573
1683009357014399700,24.721399658203126,-0.5216999650001526,1.4488999843597412,0.11429999768733978
