time,seconds_elapsed,z,y,x
1683009332334402800,0.04140283203125,1.0982999801635742,-0.7339000105857849,9.717199325561523
1683009332354399700,0.061399658203125,1.0982999801635742,-0.7339000105857849,9.717199325561523
1683009332374406000,0.081406005859375,1.0982999801635742,-0.7339000105857849,9.717199325561523
1683009332394399700,0.101399658203125,1.6359999179840088,-1.00819993019104,9.616499900817871
1683009332414399700,0.121399658203125,1.6373999118804932,-1.010200023651123,9.616000175476074
1683009332434399700,0.141399658203125,1.6459999084472656,-1.0085999965667725,9.614699363708496
1683009332454401300,0.1614013671875,1.6414999961853027,-0.9957000017166138,9.616799354553223
1683009332474399700,0.181399658203125,1.6154999732971191,-0.9898999929428101,9.62179946899414
1683009332494399700,0.201399658203125,1.5971999168395996,-0.9947999715805054,9.62440013885498
1683009332514399700,0.221399658203125,1.597000002861023,-1.0008000135421753,9.623799324035645
1683009332534399700,0.241399658203125,1.6140999794006348,-0.977400004863739,9.623299598693848
1683009332554399700,0.261399658203125,1.5333999395370483,-0.9530999660491943,9.638999938964844
1683009332574399700,0.281399658203125,1.5161999464035034,-0.8592000007629395,9.65049934387207
1683009332594399700,0.301399658203125,1.5022999048233032,-0.816100001335144,9.656399726867676
1683009332614399700,0.321399658203125,1.5003999471664429,-0.7742999792098999,9.660099983215332
1683009332634399700,0.341399658203125,1.4972000122070312,-0.7240999937057495,9.664499282836914
1683009332654399700,0.361399658203125,1.5073999166488647,-0.6581000089645386,9.667699813842773
1683009332674401300,0.3814013671875,1.5266000032424927,-0.5771999955177307,9.6697998046875
1683009332694399700,0.401399658203125,1.5119999647140503,-0.4903999865055084,9.676899909973145
1683009332714399700,0.421399658203125,1.4783999919891357,-0.45809999108314514,9.683699607849121
1683009332734399700,0.441399658203125,1.428399920463562,-0.42899999022483826,9.692500114440918
1683009332754399700,0.461399658203125,1.3780999183654785,-0.37199997901916504,9.702099800109863
1683009332774399700,0.481399658203125,1.3380999565124512,-0.28599998354911804,9.710700035095215
1683009332794399700,0.501399658203125,1.2877999544143677,-0.1995999962091446,9.719599723815918
1683009332814399700,0.521399658203125,1.225000023841858,-0.13740000128746033,9.728799819946289
1683009332834399700,0.541399658203125,1.174799919128418,-0.10999999940395355,9.735400199890137
1683009332854399700,0.561399658203125,1.1380000114440918,-0.10979999601840973,9.739699363708496
1683009332874399700,0.581399658203125,1.0936999320983887,-0.1265999972820282,9.744599342346191
1683009332894399700,0.601399658203125,1.073799967765808,-0.1462000012397766,9.746500015258789
1683009332914399700,0.621399658203125,1.0412999391555786,-0.15489999949932098,9.749899864196777
1683009332934399700,0.641399658203125,1.0139999389648438,-0.1542000025510788,9.752799987792969
1683009332954399700,0.661399658203125,0.9953999519348145,-0.15649999678134918,9.75469970703125
1683009332974399700,0.681399658203125,1.0148999691009521,-0.16899999976158142,9.7524995803833
1683009332994399700,0.701399658203125,1.0469999313354492,-0.18949998915195465,9.748700141906738
1683009333014399700,0.721399658203125,1.0622999668121338,-0.21379999816417694,9.746500015258789
1683009333034399700,0.741399658203125,1.0691999197006226,-0.24369999766349792,9.745100021362305
1683009333054399700,0.761399658203125,1.0770000219345093,-0.27300000190734863,9.743499755859375
1683009333074399700,0.781399658203125,1.0637999773025513,-0.2888000011444092,9.744400024414062
1683009333094399700,0.801399658203125,1.0526000261306763,-0.3091000020503998,9.744999885559082
1683009333114399700,0.821399658203125,1.0616999864578247,-0.32829999923706055,9.743399620056152
1683009333134399700,0.841399658203125,1.0679999589920044,-0.3522000014781952,9.741899490356445
1683009333154399700,0.861399658203125,1.0685999393463135,-0.3773999810218811,9.740900039672852
1683009333174399700,0.881399658203125,1.089900016784668,-0.3894999921321869,9.73799991607666
1683009333194399700,0.901399658203125,1.0842000246047974,-0.37610000371932983,9.7391996383667
1683009333214399700,0.921399658203125,1.0760999917984009,-0.34549999237060547,9.741299629211426
1683009333234399700,0.941399658203125,1.0749999284744263,-0.3245999813079834,9.74209976196289
1683009333254399700,0.961399658203125,1.0788999795913696,-0.3109999895095825,9.74209976196289
1683009333274399700,0.981399658203125,1.0842000246047974,-0.2962000072002411,9.741999626159668
1683009333294399700,1.001399658203125,1.0936999320983887,-0.27959999442100525,9.741399765014648
1683009333314399700,1.021399658203125,1.0896999835968018,-0.272599995136261,9.74209976196289
1683009333334399700,1.041399658203125,1.0734999179840088,-0.273499995470047,9.743800163269043
1683009333354399700,1.061399658203125,1.0576999187469482,-0.27539998292922974,9.745499610900879
1683009333374399700,1.081399658203125,1.0433000326156616,-0.2777000069618225,9.746999740600586
1683009333394399700,1.101399658203125,1.042199969291687,-0.2865999937057495,9.74679946899414
1683009333414399700,1.121399658203125,1.041700005531311,-0.2888999879360199,9.74679946899414
1683009333434399700,1.141399658203125,1.0230000019073486,-0.29670000076293945,9.748600006103516
1683009333454401300,1.1614013671875,0.9940999746322632,-0.3240000009536743,9.750699996948242
1683009333474399700,1.181399658203125,0.9624999761581421,-0.35999998450279236,9.752599716186523
1683009333494399700,1.201399658203125,0.9382999539375305,-0.3781999945640564,9.754300117492676
1683009333514399700,1.221399658203125,0.9430999755859375,-0.37279999256134033,9.753999710083008
1683009333534401300,1.2414013671875,0.9757999777793884,-0.3407999873161316,9.751999855041504
1683009333554399700,1.261399658203125,1.0125999450683594,-0.2996000051498413,9.74959945678711
1683009333574399700,1.281399658203125,1.02839994430542,-0.2705000042915344,9.748799324035645
1683009333594399700,1.301399658203125,1.0379999876022339,-0.25519999861717224,9.748199462890625
1683009333614399700,1.321399658203125,1.059399962425232,-0.2425999939441681,9.746199607849121
1683009333634399700,1.341399658203125,1.0866999626159668,-0.2386999875307083,9.74329948425293
1683009333654399700,1.361399658203125,1.1168999671936035,-0.23499999940395355,9.739999771118164
1683009333674401300,1.3814013671875,1.124899983406067,-0.23809999227523804,9.738900184631348
1683009333694399700,1.401399658203125,1.1405999660491943,-0.24399998784065247,9.73699951171875
1683009333714399700,1.421399658203125,1.1719999313354492,-0.24889999628067017,9.733099937438965
1683009333734399700,1.441399658203125,1.2070000171661377,-0.2639999985694885,9.728499412536621
1683009333754401300,1.4614013671875,1.2419999837875366,-0.2793000042438507,9.723599433898926
1683009333774399700,1.481399658203125,1.2631999254226685,-0.2915000021457672,9.720499992370605
1683009333794399700,1.501399658203125,1.2848999500274658,-0.2929999828338623,9.717599868774414
1683009333814401300,1.5214013671875,1.3071999549865723,-0.28779998421669006,9.714799880981445
1683009333834399700,1.541399658203125,1.3228999376296997,-0.28349998593330383,9.712800025939941
1683009333854399700,1.561399658203125,1.3325999975204468,-0.2775000035762787,9.711699485778809
1683009333874399700,1.581399658203125,1.3391000032424927,-0.27950000762939453,9.710700035095215
1683009333894399700,1.601399658203125,1.3539999723434448,-0.28929999470710754,9.708399772644043
1683009333914399700,1.621399658203125,1.3753999471664429,-0.2985999882221222,9.705100059509277
1683009333934399700,1.641399658203125,1.410499930381775,-0.3089999854564667,9.699699401855469
1683009333954401300,1.6614013671875,1.4320999383926392,-0.3155999779701233,9.69629955291748
1683009333974399700,1.681399658203125,1.4271999597549438,-0.3174999952316284,9.696999549865723
1683009333994399700,1.701399658203125,1.4085999727249146,-0.3203999996185303,9.699600219726562
1683009334014399700,1.721399658203125,1.3880999088287354,-0.34880000352859497,9.701600074768066
1683009334034401300,1.7414013671875,1.3717999458312988,-0.4016999900341034,9.701899528503418
1683009334054399700,1.761399658203125,1.3539999723434448,-0.44179999828338623,9.70259952545166
1683009334074399700,1.781399658203125,1.3269000053405762,-0.4668999910354614,9.7052001953125
1683009334094399700,1.801399658203125,1.2982999086380005,-0.4912000000476837,9.707799911499023
1683009334114401300,1.8214013671875,1.2710999250411987,-0.5084999799728394,9.710599899291992
1683009334134399700,1.841399658203125,1.243399977684021,-0.5065000057220459,9.714300155639648
1683009334154399700,1.861399658203125,1.232699990272522,-0.495199978351593,9.71619987487793
1683009334174401300,1.8814013671875,1.2472000122070312,-0.4765999913215637,9.715299606323242
1683009334194399700,1.901399658203125,1.2706999778747559,-0.4578000009059906,9.713099479675293
1683009334214399700,1.921399658203125,1.2640999555587769,-0.45399999618530273,9.714200019836426
1683009334234399700,1.941399658203125,1.2101999521255493,-0.4804999828338623,9.719799995422363
1683009334254401300,1.9614013671875,1.1787999868392944,-0.5331000089645386,9.72089958190918
1683009334274399700,1.981399658203125,1.2164000272750854,-0.557200014591217,9.714900016784668
1683009334294399700,2.001399658203125,1.2911999225616455,-0.539900004863739,9.706199645996094
1683009334314401300,2.0214013671875,1.357100009918213,-0.5145999789237976,9.698599815368652
1683009334334399700,2.041399658203125,1.3804999589920044,-0.4935999810695648,9.696399688720703
1683009334354399700,2.061399658203125,1.376099944114685,-0.494299978017807,9.696999549865723
1683009334374399700,2.081399658203125,1.3615999221801758,-0.5317000150680542,9.696999549865723
1683009334394399700,2.101399658203125,1.3579000234603882,-0.5945999622344971,9.693900108337402
1683009334414399700,2.121399658203125,1.3622000217437744,-0.6649999618530273,9.688699722290039
1683009334434399700,2.141399658203125,1.3701000213623047,-0.7324999570846558,9.682700157165527
1683009334454401300,2.1614013671875,1.3791999816894531,-0.795799970626831,9.676499366760254
1683009334474399700,2.181399658203125,1.3930000066757202,-0.8578999638557434,9.66919994354248
1683009334494399700,2.201399658203125,1.4161999225616455,-0.9147999882698059,9.660599708557129
1683009334514399700,2.221399658203125,1.4478999376296997,-0.9628999829292297,9.651199340820312
1683009334534399700,2.241399658203125,1.4808999300003052,-1.0003999471664429,9.642399787902832
1683009334554399700,2.261399658203125,1.514299988746643,-1.024899959564209,9.634599685668945
1683009334574399700,2.281399658203125,1.5525999069213867,-1.0365999937057495,9.627299308776855
1683009334594401300,2.3014013671875,1.5936999320983887,-1.038100004196167,9.620399475097656
1683009334614399700,2.321399658203125,1.62309992313385,-1.0302000045776367,9.616299629211426
1683009334634399700,2.341399658203125,1.6269999742507935,-1.0230000019073486,9.616399765014648
1683009334654399700,2.361399658203125,1.6023999452590942,-1.0293999910354614,9.61989974975586
1683009334674401300,2.3814013671875,1.5446999073028564,-1.0368999242782593,9.628499984741211
1683009334694399700,2.401399658203125,1.4679999351501465,-1.036199927330017,9.640600204467773
1683009334714399700,2.421399658203125,1.4113999605178833,-1.0234999656677246,9.650400161743164
1683009334734399700,2.441399658203125,1.403499960899353,-0.9980999827384949,9.654199600219727
1683009334754401300,2.4614013671875,1.4293999671936035,-0.9623000025749207,9.653999328613281
1683009334774399700,2.481399658203125,1.436900019645691,-0.9244999885559082,9.656599998474121
1683009334794399700,2.501399658203125,1.423200011253357,-0.8976999521255493,9.661199569702148
1683009334814401300,2.5214013671875,1.4120999574661255,-0.8817999958992004,9.664199829101562
1683009334834399700,2.541399658203125,1.3920999765396118,-0.8772000074386597,9.66759967803955
1683009334854399700,2.561399658203125,1.3654999732971191,-0.887999951839447,9.67039966583252
1683009334874399700,2.581399658203125,1.3459999561309814,-0.8977999687194824,9.672200202941895
1683009334894399700,2.601399658203125,1.3453999757766724,-0.8761999607086182,9.674300193786621
1683009334914399700,2.621399658203125,1.3686000108718872,-0.8021000027656555,9.677399635314941
1683009334934399700,2.641399658203125,1.4191999435424805,-0.6911999583244324,9.678699493408203
1683009334954401300,2.6614013671875,1.4838999509811401,-0.5694999694824219,9.676899909973145
1683009334974399700,2.681399658203125,1.5394999980926514,-0.46309998631477356,9.67389965057373
1683009334994399700,2.701399658203125,1.5770999193191528,-0.38599997758865356,9.671199798583984
1683009335014399700,2.721399658203125,1.5946999788284302,-0.32889997959136963,9.670499801635742
1683009335034401300,2.7414013671875,1.6133999824523926,-0.28139999508857727,9.668899536132812
1683009335054399700,2.761399658203125,1.6233999729156494,-0.2629999816417694,9.667699813842773
1683009335074399700,2.781399658203125,1.6072999238967896,-0.2750999927520752,9.670100212097168
1683009335094399700,2.801399658203125,1.5836999416351318,-0.3025999963283539,9.673099517822266
1683009335114399700,2.821399658203125,1.573799967765808,-0.32989999651908875,9.67389965057373
1683009335134399700,2.841399658203125,1.5814999341964722,-0.3522000014781952,9.671799659729004
1683009335154399700,2.861399658203125,1.5924999713897705,-0.37389999628067017,9.66919994354248
1683009335174401300,2.8814013671875,1.5932999849319458,-0.39739999175071716,9.668099403381348
1683009335194399700,2.901399658203125,1.5820000171661377,-0.42800000309944153,9.668700218200684
1683009335214399700,2.921399658203125,1.569700002670288,-0.46320000290870667,9.669099807739258
1683009335234399700,2.941399658203125,1.5578999519348145,-0.5005999803543091,9.669099807739258
1683009335254401300,2.9614013671875,1.5453999042510986,-0.5352999567985535,9.669300079345703
1683009335274399700,2.981399658203125,1.5317999124526978,-0.5627999901771545,9.6697998046875
1683009335294399700,3.001399658203125,1.5250999927520752,-0.5764999985694885,9.670100212097168
1683009335314401300,3.0214013671875,1.5234999656677246,-0.5791999697685242,9.670199394226074
1683009335334399700,3.041399658203125,1.527999997138977,-0.5705999732017517,9.670000076293945
1683009335354399700,3.061399658203125,1.5357999801635742,-0.5534999966621399,9.6697998046875
1683009335374399700,3.081399658203125,1.5454999208450317,-0.5248000025749207,9.6697998046875
1683009335394399700,3.101399658203125,1.5628999471664429,-0.49469998478889465,9.668600082397461
1683009335414399700,3.121399658203125,1.574199914932251,-0.4702000021934509,9.668000221252441
1683009335434399700,3.141399658203125,1.5787999629974365,-0.4648999869823456,9.667499542236328
1683009335454401300,3.1614013671875,1.5764999389648438,-0.47110000252723694,9.66759967803955
1683009335474399700,3.181399658203125,1.5644999742507935,-0.47540000081062317,9.669300079345703
1683009335494399700,3.201399658203125,1.555400013923645,-0.45899999141693115,9.671599388122559
1683009335514399700,3.221399658203125,1.5556999444961548,-0.41819998621940613,9.673399925231934
1683009335534401300,3.2414013671875,1.555899977684021,-0.3682999908924103,9.675399780273438
1683009335554399700,3.261399658203125,1.5374000072479248,-0.3260999917984009,9.679800033569336
1683009335574399700,3.281399658203125,1.4924999475479126,-0.2994999885559082,9.687699317932129
1683009335594399700,3.301399658203125,1.445599913597107,-0.27699998021125793,9.695499420166016
1683009335614401300,3.3214013671875,1.4160999059677124,-0.2565000057220459,9.700399398803711
1683009335634399700,3.341399658203125,1.4189999103546143,-0.2289000004529953,9.700699806213379
1683009335654399700,3.361399658203125,1.444599986076355,-0.1842999905347824,9.69789981842041
1683009335674401300,3.3814013671875,1.4608999490737915,-0.13109999895095825,9.69629955291748
1683009335694399700,3.401399658203125,1.4625999927520752,-0.0794999971985817,9.696599960327148
1683009335714399700,3.421399658203125,1.459999918937683,-0.02290000021457672,9.69729995727539
1683009335734399700,3.441399658203125,1.4566999673843384,0.03439999744296074,9.697699546813965
1683009335754401300,3.4614013671875,1.458400011062622,0.07519999891519547,9.69729995727539
1683009335774399700,3.481399658203125,1.4586999416351318,0.08720000088214874,9.697099685668945
1683009335794399700,3.501399658203125,1.444100022315979,0.0794999971985817,9.699399948120117
1683009335814401300,3.5214013671875,1.4154999256134033,0.05649999901652336,9.703700065612793
1683009335834399700,3.541399658203125,1.3975999355316162,0.02149999886751175,9.706500053405762
1683009335854399700,3.561399658203125,1.389699935913086,-0.007599999662488699,9.707599639892578
1683009335874399700,3.581399658203125,1.3938000202178955,-0.017899999395012856,9.706999778747559
1683009335894399700,3.601399658203125,1.4032999277114868,-0.011299999430775642,9.705699920654297
1683009335914399700,3.621399658203125,1.4148999452590942,0.00559999980032444,9.703999519348145
1683009335934399700,3.641399658203125,1.4264999628067017,0.02290000021457672,9.702300071716309
1683009335954401300,3.6614013671875,1.4327999353408813,0.02979999966919422,9.701299667358398
1683009335974399700,3.681399658203125,1.434999942779541,0.020499998703598976,9.701000213623047
1683009335994399700,3.701399658203125,1.4362999200820923,0,9.700799942016602
1683009336014399700,3.721399658203125,1.4354000091552734,-0.023399999365210533,9.700900077819824
1683009336034401300,3.7414013671875,1.4381999969482422,-0.045899998396635056,9.700399398803711
1683009336054399700,3.761399658203125,1.4449999332427979,-0.06350000202655792,9.699299812316895
1683009336074399700,3.781399658203125,1.4578999280929565,-0.0778999999165535,9.69729995727539
1683009336094399700,3.801399658203125,1.4776999950408936,-0.08129999786615372,9.694299697875977
1683009336114399700,3.821399658203125,1.4984999895095825,-0.07750000059604645,9.691100120544434
1683009336134399700,3.841399658203125,1.5202999114990234,-0.07209999859333038,9.687799453735352
1683009336154402800,3.86140283203125,1.532599925994873,-0.06960000097751617,9.685799598693848
1683009336174402800,3.88140283203125,1.5394999980926514,-0.07069999724626541,9.684700012207031
1683009336194399700,3.901399658203125,1.5405999422073364,-0.07180000096559525,9.684599876403809
1683009336214399700,3.921399658203125,1.5408999919891357,-0.07039999961853027,9.684499740600586
1683009336234399700,3.941399658203125,1.5521999597549438,-0.06659999489784241,9.682700157165527
1683009336254401300,3.9614013671875,1.5500999689102173,-0.06939999759197235,9.683099746704102
1683009336274399700,3.981399658203125,1.532599925994873,-0.08429999649524689,9.685699462890625
1683009336294399700,4.001399658203125,1.5139999389648438,-0.09799999743700027,9.688499450683594
1683009336314401300,4.0214013671875,1.5181999206542969,-0.08549999445676804,9.687999725341797
1683009336334399700,4.041399658203125,1.5465999841690063,-0.04659999907016754,9.683799743652344
1683009336354399700,4.061399658203125,1.5776000022888184,-0.010199999436736107,9.678899765014648
1683009336374399700,4.081399658203125,1.583799958229065,0.010300000198185444,9.677800178527832
1683009336394399700,4.101399658203125,1.5525999069213867,-0.006899999920278788,9.682899475097656
1683009336414399700,4.121399658203125,1.5078999996185303,-0.06369999796152115,9.689799308776855
1683009336434399700,4.141399658203125,1.4886999130249023,-0.12280000001192093,9.69219970703125
1683009336454401300,4.1614013671875,1.499400019645691,-0.14819999039173126,9.690199851989746
1683009336474399700,4.181399658203125,1.5200999975204468,-0.15369999408721924,9.686800003051758
1683009336494399700,4.201399658203125,1.5275999307632446,-0.16589999198913574,9.685500144958496
1683009336514399700,4.221399658203125,1.5187000036239624,-0.19609999656677246,9.686299324035645
1683009336534401300,4.2414013671875,1.5066999197006226,-0.24619999527931213,9.686999320983887
1683009336554399700,4.261399658203125,1.5056999921798706,-0.30230000615119934,9.685599327087402
1683009336574399700,4.281399658203125,1.5181999206542969,-0.35109999775886536,9.682000160217285
1683009336594401300,4.3014013671875,1.5332999229431152,-0.39100000262260437,9.678099632263184
1683009336614401300,4.3214013671875,1.535099983215332,-0.4196999967098236,9.676599502563477
1683009336634399700,4.341399658203125,1.5156999826431274,-0.4388999938964844,9.678799629211426
1683009336654399700,4.361399658203125,1.4840999841690063,-0.4495999813079834,9.683199882507324
1683009336674401300,4.3814013671875,1.4509999752044678,-0.45089998841285706,9.688199996948242
1683009336694399700,4.401399658203125,1.4193999767303467,-0.43709999322891235,9.693499565124512
1683009336714399700,4.421399658203125,1.3959999084472656,-0.4056999981403351,9.698200225830078
1683009336734399700,4.441399658203125,1.385699987411499,-0.3644999861717224,9.701299667358398
1683009336754401300,4.4614013671875,1.3805999755859375,-0.3215000033378601,9.70359992980957
1683009336774399700,4.481399658203125,1.3768999576568604,-0.2777999937534332,9.705499649047852
1683009336794399700,4.501399658203125,1.3672000169754028,-0.23439998924732208,9.708000183105469
1683009336814401300,4.5214013671875,1.3503999710083008,-0.19619999825954437,9.711199760437012
1683009336834399700,4.541399658203125,1.3384000062942505,-0.16529999673366547,9.713399887084961
1683009336854399700,4.561399658203125,1.3300999402999878,-0.13529999554157257,9.71500015258789
1683009336874399700,4.581399658203125,1.3054999113082886,-0.10909999907016754,9.71869945526123
1683009336894401300,4.6014013671875,1.286199927330017,-0.09030000120401382,9.7214994430542
1683009336914399700,4.621399658203125,1.2818999290466309,-0.06629999727010727,9.722199440002441
1683009336934399700,4.641399658203125,1.2857999801635742,-0.043800000101327896,9.721799850463867
1683009336954401300,4.6614013671875,1.2989000082015991,-0.020800000056624413,9.720199584960938
1683009336974399700,4.681399658203125,1.312999963760376,0.010199999436736107,9.718299865722656
1683009336994399700,4.701399658203125,1.3243999481201172,0.04559999704360962,9.716599464416504
1683009337014399700,4.721399658203125,1.3277000188827515,0.07499999552965164,9.715999603271484
1683009337034401300,4.7414013671875,1.3315999507904053,0.0940999984741211,9.715299606323242
1683009337054399700,4.761399658203125,1.3463000059127808,0.11209999769926071,9.713099479675293
1683009337074399700,4.781399658203125,1.3650999069213867,0.13589999079704285,9.710199356079102
1683009337094399700,4.801399658203125,1.3550000190734863,0.14869999885559082,9.711400032043457
1683009337114399700,4.821399658203125,1.3253999948501587,0.1339000016450882,9.715700149536133
1683009337134399700,4.841399658203125,1.3004000186920166,0.10130000114440918,9.719499588012695
1683009337154399700,4.861399658203125,1.2999999523162842,0.07279999554157257,9.719799995422363
1683009337174401300,4.8814013671875,1.320099949836731,0.05269999802112579,9.717199325561523
1683009337194399700,4.901399658203125,1.3423999547958374,0.03709999844431877,9.714200019836426
1683009337214399700,4.921399658203125,1.3529999256134033,0.02579999901354313,9.712800025939941
1683009337234399700,4.941399658203125,1.354200005531311,0.013599999248981476,9.712599754333496
1683009337254401300,4.9614013671875,1.3493999242782593,-0.001999999862164259,9.713299751281738
1683009337274399700,4.981399658203125,1.3352999687194824,-0.02199999988079071,9.71519947052002
1683009337294399700,5.001399658203125,1.312600016593933,-0.04099999740719795,9.718299865722656
1683009337314401300,5.0214013671875,1.2862999439239502,-0.057999998331069946,9.721699714660645
1683009337334399700,5.041399658203125,1.2633999586105347,-0.0746999979019165,9.724599838256836
1683009337354399700,5.061399658203125,1.2599999904632568,-0.09019999951124191,9.724899291992188
1683009337374399700,5.081399658203125,1.2719999551773071,-0.10349999368190765,9.723199844360352
1683009337394399700,5.101399658203125,1.2960000038146973,-0.11419999599456787,9.719900131225586
1683009337414399700,5.121399658203125,1.3214999437332153,-0.12439999729394913,9.716400146484375
1683009337434399700,5.141399658203125,1.3442000150680542,-0.14409999549388885,9.71299934387207
1683009337454401300,5.1614013671875,1.3758000135421753,-0.17289999127388,9.708099365234375
1683009337474399700,5.181399658203125,1.393399953842163,-0.20509999990463257,9.704899787902832
1683009337494399700,5.201399658203125,1.4017000198364258,-0.2458999902009964,9.702799797058105
1683009337514399700,5.221399658203125,1.4067999124526978,-0.288100004196167,9.700900077819824
1683009337534401300,5.2414013671875,1.4103999137878418,-0.3172000050544739,9.699399948120117
1683009337554399700,5.261399658203125,1.4326999187469482,-0.32249999046325684,9.696000099182129
1683009337574399700,5.281399658203125,1.465499997138977,-0.3021000027656555,9.691800117492676
1683009337594401300,5.3014013671875,1.4891999959945679,-0.2757999897003174,9.688899993896484
1683009337614401300,5.3214013671875,1.5022999048233032,-0.2506999969482422,9.687600135803223
1683009337634399700,5.341399658203125,1.4967999458312988,-0.2272000014781952,9.689000129699707
1683009337654399700,5.361399658203125,1.4886000156402588,-0.20799998939037323,9.690699577331543
1683009337674401300,5.3814013671875,1.4840999841690063,-0.1858000010251999,9.691899299621582
1683009337694399700,5.401399658203125,1.4723999500274658,-0.16089999675750732,9.694099426269531
1683009337714399700,5.421399658203125,1.448099970817566,-0.14339999854564667,9.697999954223633
1683009337734399700,5.441399658203125,1.4117000102996826,-0.14419999718666077,9.703399658203125
1683009337754401300,5.4614013671875,1.3716999292373657,-0.1639999896287918,9.708799362182617
1683009337774399700,5.481399658203125,1.3468999862670898,-0.18809999525547028,9.711799621582031
1683009337794399700,5.501399658203125,1.3365999460220337,-0.19709999859333038,9.713099479675293
1683009337814401300,5.5214013671875,1.3359999656677246,-0.1946999877691269,9.713199615478516
1683009337834399700,5.541399658203125,1.3241000175476074,-0.1987999975681305,9.714799880981445
1683009337854399700,5.561399658203125,1.302299976348877,-0.21779999136924744,9.717299461364746
1683009337874399700,5.581399658203125,1.2788000106811523,-0.24849998950958252,9.71969985961914
1683009337894399700,5.601399658203125,1.268399953842163,-0.28209999203681946,9.720099449157715
1683009337914399700,5.621399658203125,1.2652000188827515,-0.30869999527931213,9.71969985961914
1683009337934399700,5.641399658203125,1.2627999782562256,-0.32829999923706055,9.719399452209473
1683009337954401300,5.6614013671875,1.2531999349594116,-0.3422999978065491,9.720199584960938
1683009337974399700,5.681399658203125,1.235700011253357,-0.35339999198913574,9.722000122070312
1683009337994399700,5.701399658203125,1.2142000198364258,-0.36419999599456787,9.724299430847168
1683009338014399700,5.721399658203125,1.199299931526184,-0.36809998750686646,9.72599983215332
1683009338034399700,5.741399658203125,1.184499979019165,-0.3578999936580658,9.72819995880127
1683009338054399700,5.761399658203125,1.1757999658584595,-0.32659998536109924,9.730400085449219
1683009338074399700,5.781399658203125,1.177899956703186,-0.27629998326301575,9.73169994354248
1683009338094399700,5.801399658203125,1.1883999109268188,-0.21469999849796295,9.731900215148926
1683009338114401300,5.8214013671875,1.19760000705719,-0.14790000021457672,9.732099533081055
1683009338134399700,5.841399658203125,1.208799958229065,-0.08509999513626099,9.731399536132812
1683009338154399700,5.861399658203125,1.2214999198913574,-0.03199999779462814,9.730199813842773
1683009338174401300,5.8814013671875,1.2235000133514404,0.00989999994635582,9.729999542236328
1683009338194399700,5.901399658203125,1.2139999866485596,0.03790000081062317,9.731100082397461
1683009338214399700,5.921399658203125,1.206399917602539,0.0568000003695488,9.731900215148926
1683009338234399700,5.941399658203125,1.2034000158309937,0.07840000092983246,9.732199668884277
1683009338254401300,5.9614013671875,1.2204999923706055,0.10099999606609344,9.7298002243042
1683009338274399700,5.981399658203125,1.26010000705719,0.12359999865293503,9.724499702453613
1683009338294399700,6.001399658203125,1.3046000003814697,0.14790000021457672,9.718299865722656
1683009338314401300,6.0214013671875,1.3220999240875244,0.1673000007867813,9.71560001373291
1683009338334399700,6.041399658203125,1.3008999824523926,0.1688999980688095,9.718500137329102
1683009338354399700,6.061399658203125,1.2631999254226685,0.14499999582767487,9.723799705505371
1683009338374399700,6.081399658203125,1.2453999519348145,0.10209999978542328,9.726699829101562
1683009338394399700,6.101399658203125,1.2615000009536743,0.06529999524354935,9.724899291992188
1683009338414399700,6.121399658203125,1.3036999702453613,0.050999999046325684,9.719399452209473
1683009338434399700,6.141399658203125,1.3400999307632446,0.042399998754262924,9.714499473571777
1683009338454399700,6.161399658203125,1.3508999347686768,0.02929999865591526,9.713099479675293
1683009338474399700,6.181399658203125,1.330299973487854,0,9.715899467468262
1683009338494399700,6.201399658203125,1.2924000024795532,-0.052299998700618744,9.72089958190918
1683009338514399700,6.221399658203125,1.2549999952316284,-0.11679999530315399,9.725299835205078
1683009338534399700,6.241399658203125,1.2279000282287598,-0.17839999496936798,9.727799415588379
1683009338554399700,6.261399658203125,1.2177000045776367,-0.23089998960494995,9.727999687194824
1683009338574399700,6.281399658203125,1.2177000045776367,-0.27059999108314514,9.726900100708008
1683009338594399700,6.301399658203125,1.2232999801635742,-0.29510000348091125,9.725500106811523
1683009338614399700,6.321399658203125,1.2269999980926514,-0.30879998207092285,9.724599838256836
1683009338634399700,6.341399658203125,1.2299000024795532,-0.32019999623298645,9.723899841308594
1683009338654399700,6.361399658203125,1.2263000011444092,-0.3346000015735626,9.723899841308594
1683009338674399700,6.381399658203125,1.2257999181747437,-0.350600004196167,9.723400115966797
1683009338694399700,6.401399658203125,1.2319999933242798,-0.3651999831199646,9.722000122070312
1683009338714399700,6.421399658203125,1.2400000095367432,-0.3779999911785126,9.720499992370605
1683009338734399700,6.441399658203125,1.2481999397277832,-0.38999998569488525,9.718999862670898
1683009338754399700,6.461399658203125,1.2529000043869019,-0.39879998564720154,9.717999458312988
1683009338774399700,6.481399658203125,1.2484999895095825,-0.4016999900341034,9.718500137329102
1683009338794399700,6.501399658203125,1.2339999675750732,-0.4009999930858612,9.720399856567383
1683009338814399700,6.521399658203125,1.2110999822616577,-0.3950999975204468,9.723499298095703
1683009338834399700,6.541399658203125,1.1859999895095825,-0.38359999656677246,9.726999282836914
1683009338854399700,6.561399658203125,1.167099952697754,-0.35899999737739563,9.730299949645996
1683009338874399700,6.581399658203125,1.1553000211715698,-0.32179999351501465,9.732999801635742
1683009338894399700,6.601399658203125,1.14329993724823,-0.2897000014781952,9.735400199890137
1683009338914399700,6.621399658203125,1.1313999891281128,-0.2759999930858612,9.737199783325195
1683009338934399700,6.641399658203125,1.118299961090088,-0.27539998292922974,9.738699913024902
1683009338954399700,6.661399658203125,1.1080999374389648,-0.27230000495910645,9.739999771118164
1683009338974399700,6.681399658203125,1.104099988937378,-0.25349998474121094,9.740900039672852
1683009338994399700,6.701399658203125,1.0892999172210693,-0.23019999265670776,9.743199348449707
1683009339014399700,6.721399658203125,1.0651999711990356,-0.21639999747276306,9.746199607849121
1683009339034399700,6.741399658203125,1.0422999858856201,-0.21059998869895935,9.748799324035645
1683009339054399700,6.761399658203125,1.0263999700546265,-0.19900000095367432,9.750699996948242
1683009339074399700,6.781399658203125,1.0066999197006226,-0.17880000174045563,9.75309944152832
1683009339094399700,6.801399658203125,1.011799931526184,-0.1550000011920929,9.752999305725098
1683009339114399700,6.821399658203125,1.0379999876022339,-0.11629999428987503,9.750800132751465
1683009339134399700,6.841399658203125,1.0678999423980713,-0.06920000165700912,9.748000144958496
1683009339154399700,6.861399658203125,1.0920000076293945,-0.026899999007582664,9.745599746704102
1683009339174399700,6.881399658203125,1.1043000221252441,-0.008200000040233135,9.744199752807617
1683009339194399700,6.901399658203125,1.0993999242782593,-0.023399999365210533,9.744799613952637
1683009339214399700,6.921399658203125,1.0936999320983887,-0.06419999897480011,9.745200157165527
1683009339234399700,6.941399658203125,1.093999981880188,-0.11479999870061874,9.744699478149414
1683009339254399700,6.961399658203125,1.0978999137878418,-0.16339999437332153,9.743599891662598
1683009339274399700,6.981399658203125,1.1049000024795532,-0.2101999968290329,9.741899490356445
1683009339294399700,7.001399658203125,1.107100009918213,-0.25540000200271606,9.740499496459961
1683009339314399700,7.021399658203125,1.0964999198913574,-0.2962000072002411,9.740599632263184
1683009339334399700,7.041399658203125,1.0849000215530396,-0.3303999900817871,9.740799903869629
1683009339354399700,7.061399658203125,1.0781999826431274,-0.35089999437332153,9.740799903869629
1683009339374399700,7.081399658203125,1.0764999389648438,-0.35830000042915344,9.740699768066406
1683009339394399700,7.101399658203125,1.0773999691009521,-0.3610999882221222,9.740499496459961
1683009339414399700,7.121399658203125,1.0760999917984009,-0.3686999976634979,9.740399360656738
1683009339434399700,7.141399658203125,1.0691999197006226,-0.38099998235702515,9.740699768066406
1683009339454399700,7.161399658203125,1.0601999759674072,-0.3933999836444855,9.741199493408203
1683009339474399700,7.181399658203125,1.0582000017166138,-0.4034000039100647,9.741000175476074
1683009339494399700,7.201399658203125,1.0613999366760254,-0.4096999764442444,9.740399360656738
1683009339514399700,7.221399658203125,1.0585999488830566,-0.41759997606277466,9.740300178527832
1683009339534399700,7.241399658203125,1.0583000183105469,-0.4284999966621399,9.739899635314941
1683009339554399700,7.261399658203125,1.067099928855896,-0.4306999742984772,9.738800048828125
1683009339574399700,7.281399658203125,1.073599934577942,-0.41429999470710754,9.738800048828125
1683009339594399700,7.301399658203125,1.094499945640564,-0.38429999351501465,9.737699508666992
1683009339614399700,7.321399658203125,1.1467000246047974,-0.3458999991416931,9.733200073242188
1683009339634399700,7.341399658203125,1.187999963760376,-0.290800005197525,9.729999542236328
1683009339654399700,7.361399658203125,1.1957999467849731,-0.23429998755455017,9.730599403381348
1683009339674399700,7.381399658203125,1.2065999507904053,-0.17759999632835388,9.730500221252441
1683009339694399700,7.401399658203125,1.232800006866455,-0.11079999804496765,9.72819995880127
1683009339714399700,7.421399658203125,1.2681999206542969,-0.02979999966919422,9.724199295043945
1683009339734399700,7.441399658203125,1.2860000133514404,0.033799998462200165,9.72189998626709
1683009339754399700,7.461399658203125,1.2698999643325806,0.04959999769926071,9.723899841308594
1683009339774399700,7.481399658203125,1.2217999696731567,0.023799998685717583,9.730199813842773
1683009339794399700,7.501399658203125,1.1626999378204346,-0.026999998837709427,9.73740005493164
1683009339814399700,7.521399658203125,1.1270999908447266,-0.07569999992847443,9.741299629211426
1683009339834399700,7.541399658203125,1.118899941444397,-0.1054999977350235,9.741999626159668
1683009339854399700,7.561399658203125,1.1247999668121338,-0.1151999980211258,9.741199493408203
1683009339874399700,7.581399658203125,1.1318999528884888,-0.10659999400377274,9.740499496459961
1683009339894399700,7.601399658203125,1.1305999755859375,-0.08779999613761902,9.740799903869629
1683009339914399700,7.621399658203125,1.1237000226974487,-0.06839999556541443,9.741799354553223
1683009339934399700,7.641399658203125,1.1195999383926392,-0.0510999970138073,9.742300033569336
1683009339954399700,7.661399658203125,1.1102999448776245,-0.04859999939799309,9.743399620056152
1683009339974399700,7.681399658203125,1.083799958229065,-0.06830000132322311,9.746299743652344
1683009339994399700,7.701399658203125,1.0472999811172485,-0.10429999977350235,9.75
1683009340014399700,7.721399658203125,1.0102999210357666,-0.14710000157356262,9.753299713134766
1683009340034399700,7.741399658203125,0.9918999671936035,-0.19029998779296875,9.754399299621582
1683009340054399700,7.761399658203125,0.9856999516487122,-0.22749999165534973,9.754300117492676
1683009340074399700,7.781399658203125,0.986299991607666,-0.2572000026702881,9.753499984741211
1683009340094399700,7.801399658203125,0.9908999800682068,-0.28049999475479126,9.752399444580078
1683009340114399700,7.821399658203125,1.0042999982833862,-0.29819998145103455,9.750499725341797
1683009340134399700,7.841399658203125,1.0225999355316162,-0.3107999861240387,9.748199462890625
1683009340154399700,7.861399658203125,1.046299934387207,-0.32189998030662537,9.745299339294434
1683009340174399700,7.881399658203125,1.073799967765808,-0.3296999931335449,9.74209976196289
1683009340194399700,7.901399658203125,1.1026999950408936,-0.33980000019073486,9.738499641418457
1683009340214399700,7.921399658203125,1.1172000169754028,-0.35819998383522034,9.736199378967285
1683009340234399700,7.941399658203125,1.1172000169754028,-0.38349997997283936,9.735199928283691
1683009340254399700,7.961399658203125,1.1151000261306763,-0.4124999940395355,9.734299659729004
1683009340274399700,7.981399658203125,1.1158000230789185,-0.42739999294281006,9.733499526977539
1683009340294399700,8.001399658203125,1.125499963760376,-0.42569997906684875,9.732500076293945
1683009340314399700,8.021399658203125,1.1437000036239624,-0.41519999504089355,9.730799674987793
1683009340334399700,8.041399658203124,1.1347999572753906,-0.4123999774456024,9.731999397277832
1683009340354399700,8.061399658203126,1.1164000034332275,-0.4235000014305115,9.733599662780762
1683009340374399700,8.081399658203125,1.1161999702453613,-0.4351999759674072,9.733099937438965
1683009340394399700,8.101399658203125,1.1276999711990356,-0.42179998755455017,9.732399940490723
1683009340414399700,8.121399658203124,1.1541999578475952,-0.3921999931335449,9.730500221252441
1683009340434399700,8.141399658203126,1.1805999279022217,-0.3669999837875366,9.728300094604492
1683009340454399700,8.161399658203125,1.2015999555587769,-0.36309999227523804,9.725899696350098
1683009340474399700,8.181399658203125,1.194100022315979,-0.38109999895095825,9.726200103759766
1683009340494399700,8.201399658203124,1.1678999662399292,-0.41349998116493225,9.727999687194824
1683009340514399700,8.221399658203126,1.1403999328613281,-0.44419997930526733,9.729899406433105
1683009340534399700,8.241399658203125,1.1244999170303345,-0.46480000019073486,9.730799674987793
1683009340554399700,8.261399658203125,1.1137999296188354,-0.4790000021457672,9.731399536132812
1683009340574399700,8.281399658203124,1.0952999591827393,-0.49719998240470886,9.732500076293945
1683009340594399700,8.301399658203126,1.0722999572753906,-0.5238000154495239,9.733699798583984
1683009340614399700,8.321399658203125,1.0504000186920166,-0.5498999953269958,9.734700202941895
1683009340634399700,8.341399658203125,1.0322999954223633,-0.5683000087738037,9.735499382019043
1683009340654399700,8.361399658203124,1.0225999355316162,-0.5734999775886536,9.736199378967285
1683009340674399700,8.381399658203126,1.017199993133545,-0.5641999840736389,9.73740005493164
1683009340694399700,8.401399658203125,1.0087000131607056,-0.5482999682426453,9.7391996383667
1683009340714399700,8.421399658203125,1.000100016593933,-0.530299961566925,9.741000175476074
1683009340734399700,8.441399658203125,0.9921999573707581,-0.5117999911308289,9.742799758911133
1683009340754399700,8.461399658203124,0.983199954032898,-0.49399998784065247,9.744699478149414
1683009340774399700,8.481399658203125,0.9745999574661255,-0.4747999906539917,9.746500015258789
1683009340794399700,8.501399658203125,0.9713999629020691,-0.4518999755382538,9.747900009155273
1683009340814399700,8.521399658203125,0.9784999489784241,-0.4359000027179718,9.747900009155273
1683009340834399700,8.541399658203124,0.989799976348877,-0.42289999127388,9.74739933013916
1683009340854399700,8.561399658203126,0.9875999689102173,-0.41099998354911804,9.748099327087402
1683009340874399700,8.581399658203125,0.990399956703186,-0.39969998598098755,9.748299598693848
1683009340894399700,8.601399658203125,1.0083999633789062,-0.3886999785900116,9.746899604797363
1683009340914399700,8.621399658203124,1.0311999320983887,-0.3828999996185303,9.744699478149414
1683009340934399700,8.641399658203126,1.0662000179290771,-0.37939998507499695,9.74109935760498
1683009340954399700,8.661399658203125,1.1191999912261963,-0.3612000048160553,9.735799789428711
1683009340974399700,8.681399658203125,1.1791999340057373,-0.3245999813079834,9.729999542236328
1683009340994399700,8.701399658203124,1.230299949645996,-0.2821999788284302,9.72499942779541
1683009341014399700,8.721399658203126,1.2662999629974365,-0.23629999160766602,9.721599578857422
1683009341034399700,8.741399658203125,1.2925999164581299,-0.1898999959230423,9.719200134277344
1683009341054399700,8.761399658203125,1.315999984741211,-0.15609999001026154,9.716599464416504
1683009341074399700,8.781399658203124,1.3449000120162964,-0.1410999894142151,9.712900161743164
1683009341094399700,8.801399658203126,1.3657000064849854,-0.1428999900817871,9.710000038146973
1683009341114402800,8.82140283203125,1.3660999536514282,-0.15569999814033508,9.709699630737305
1683009341134399700,8.841399658203125,1.3483999967575073,-0.18079999089241028,9.711799621582031
1683009341154399700,8.861399658203124,1.324199914932251,-0.21570000052452087,9.714399337768555
1683009341174401300,8.8814013671875,1.3047000169754028,-0.25270000100135803,9.716099739074707
1683009341194399700,8.901399658203125,1.2947999238967896,-0.2839999794960022,9.716599464416504
1683009341214399700,8.921399658203125,1.293299913406372,-0.3127000033855438,9.715899467468262
1683009341234399700,8.941399658203125,1.292199969291687,-0.34209999442100525,9.715099334716797
1683009341254401300,8.9614013671875,1.2800999879837036,-0.37700000405311584,9.715399742126465
1683009341274399700,8.981399658203125,1.2667999267578125,-0.4203999936580658,9.715299606323242
1683009341294399700,9.001399658203125,1.2561999559402466,-0.4684999883174896,9.714499473571777
1683009341314401300,9.0214013671875,1.2517999410629272,-0.5167999863624573,9.712599754333496
1683009341334399700,9.041399658203124,1.2483999729156494,-0.5593000054359436,9.710700035095215
1683009341354399700,9.061399658203126,1.2501999139785767,-0.590999960899353,9.708600044250488
1683009341374399700,9.081399658203125,1.254699945449829,-0.6078000068664551,9.706999778747559
1683009341394399700,9.101399658203125,1.2608000040054321,-0.6128000020980835,9.705900192260742
1683009341414399700,9.121399658203124,1.2638999223709106,-0.6096999645233154,9.705699920654297
1683009341434399700,9.141399658203126,1.2659000158309937,-0.6003000140190125,9.705999374389648
1683009341454401300,9.1614013671875,1.2598999738693237,-0.5907999873161316,9.707399368286133
1683009341474401300,9.1814013671875,1.2470999956130981,-0.5823999643325806,9.70949935913086
1683009341494399700,9.201399658203124,1.232100009918213,-0.574999988079071,9.711899757385254
1683009341514399700,9.221399658203126,1.2247999906539917,-0.564799964427948,9.713399887084961
1683009341534399700,9.241399658203125,1.235700011253357,-0.551800012588501,9.712800025939941
1683009341554399700,9.261399658203125,1.250599980354309,-0.5411999821662903,9.711400032043457
1683009341574399700,9.281399658203124,1.2480000257492065,-0.5444999933242798,9.711599349975586
1683009341594399700,9.301399658203126,1.23580002784729,-0.5583999752998352,9.71239948272705
1683009341614401300,9.3214013671875,1.2244999408721924,-0.5663999915122986,9.713399887084961
1683009341634399700,9.341399658203125,1.2268999814987183,-0.5572999715805054,9.713600158691406
1683009341654399700,9.361399658203124,1.2451999187469482,-0.5241999626159668,9.713099479675293
1683009341674401300,9.3814013671875,1.257200002670288,-0.47529998421669006,9.71399974822998
1683009341694399700,9.401399658203125,1.2583999633789062,-0.42809998989105225,9.716099739074707
1683009341714401300,9.4214013671875,1.261199951171875,-0.3856000006198883,9.717499732971191
1683009341734399700,9.441399658203125,1.2640999555587769,-0.3499999940395355,9.718500137329102
1683009341754401300,9.4614013671875,1.260599970817566,-0.3310000002384186,9.719599723815918
1683009341774399700,9.481399658203125,1.2451000213623047,-0.3279999792575836,9.721699714660645
1683009341794399700,9.501399658203125,1.215399980545044,-0.33399999141693115,9.725199699401855
1683009341814401300,9.5214013671875,1.1746000051498413,-0.34049999713897705,9.729999542236328
1683009341834401300,9.5414013671875,1.13919997215271,-0.34279999136924744,9.734199523925781
1683009341854399700,9.561399658203126,1.1210999488830566,-0.3391000032424927,9.73639965057373
1683009341874399700,9.581399658203125,1.1129000186920166,-0.3301999866962433,9.73759937286377
1683009341894399700,9.601399658203125,1.104699969291687,-0.3163999915122986,9.738999366760254
1683009341914399700,9.621399658203124,1.094499945640564,-0.2953000068664551,9.740900039672852
1683009341934399700,9.641399658203126,1.0795999765396118,-0.2685000002384186,9.74329948425293
1683009341954401300,9.6614013671875,1.059999942779541,-0.23809999227523804,9.746199607849121
1683009341974401300,9.6814013671875,1.027400016784668,-0.2037999927997589,9.750499725341797
1683009341994399700,9.701399658203124,0.9788999557495117,-0.16030000150203705,9.75629997253418
1683009342014399700,9.721399658203126,0.9231999516487122,-0.120899997651577,9.762299537658691
1683009342034401300,9.7414013671875,0.8788999915122986,-0.09279999881982803,9.76669979095459
1683009342054399700,9.761399658203125,0.8712999820709229,-0.07400000095367432,9.767499923706055
1683009342074399700,9.781399658203124,0.8829999566078186,-0.0616999976336956,9.766599655151367
1683009342094399700,9.801399658203126,0.901199996471405,-0.05779999867081642,9.764900207519531
1683009342114401300,9.8214013671875,0.9395999908447266,-0.0714000016450882,9.761199951171875
1683009342134399700,9.841399658203125,0.9906999468803406,-0.10119999945163727,9.755899429321289
1683009342154399700,9.861399658203124,1.0126999616622925,-0.1379999965429306,9.753199577331543
1683009342174401300,9.8814013671875,1.0082999467849731,-0.17009998857975006,9.75309944152832
1683009342194399700,9.901399658203125,1.0099999904632568,-0.18889999389648438,9.752599716186523
1683009342214399700,9.921399658203125,1.0087000131607056,-0.2021999955177307,9.7524995803833
1683009342234399700,9.941399658203125,0.988099992275238,-0.21359999477863312,9.754300117492676
1683009342254401300,9.9614013671875,0.957099974155426,-0.22599999606609344,9.75719928741455
1683009342274399700,9.981399658203125,0.9329999685287476,-0.24210000038146973,9.759099960327148
1683009342294399700,10.001399658203125,0.9578999876976013,-0.24740000069141388,9.756599426269531
1683009342314401300,10.0214013671875,1.0288000106811523,-0.2296999990940094,9.749799728393555
1683009342334399700,10.041399658203124,1.111799955368042,-0.20109999179840088,9.741299629211426
1683009342354399700,10.061399658203126,1.1477999687194824,-0.16749998927116394,9.737699508666992
1683009342374399700,10.081399658203125,1.1382999420166016,-0.15519998967647552,9.739099502563477
1683009342394402800,10.10140283203125,1.121899962425232,-0.15929999947547913,9.740900039672852
1683009342414399700,10.121399658203124,1.1375999450683594,-0.15929999947547913,9.739099502563477
1683009342434399700,10.141399658203126,1.1864999532699585,-0.14350000023841858,9.733499526977539
1683009342454401300,10.1614013671875,1.2210999727249146,-0.12359999865293503,9.729499816894531
1683009342474401300,10.1814013671875,1.226599931716919,-0.11229999363422394,9.728899955749512
1683009342494399700,10.201399658203124,1.2008999586105347,-0.11249999701976776,9.732099533081055
1683009342514399700,10.221399658203126,1.167699933052063,-0.1225999966263771,9.736000061035156
1683009342534401300,10.2414013671875,1.1449999809265137,-0.13419999182224274,9.73859977722168
1683009342554399700,10.261399658203125,1.1347999572753906,-0.14469999074935913,9.73960018157959
1683009342574399700,10.281399658203124,1.133099913597107,-0.15889999270439148,9.73960018157959
1683009342594399700,10.301399658203126,1.1287000179290771,-0.17579999566078186,9.739799499511719
1683009342614401300,10.3214013671875,1.114400029182434,-0.19419999420642853,9.74109935760498
1683009342634399700,10.341399658203125,1.0976999998092651,-0.21609999239444733,9.742599487304688
1683009342654399700,10.361399658203124,1.083899974822998,-0.2395000010728836,9.743599891662598
1683009342674401300,10.3814013671875,1.0686999559402466,-0.257099986076355,9.744799613952637
1683009342694399700,10.401399658203125,1.0511000156402588,-0.2685999870300293,9.746399879455566
1683009342714399700,10.421399658203125,1.0311999320983887,-0.27889999747276306,9.748199462890625
1683009342734399700,10.441399658203125,1.0099999904632568,-0.29099997878074646,9.750100135803223
1683009342754401300,10.4614013671875,0.9825999736785889,-0.310699999332428,9.752299308776855
1683009342774399700,10.481399658203125,0.9619999527931213,-0.34109997749328613,9.753299713134766
1683009342794399700,10.501399658203125,0.9611999988555908,-0.36809998750686646,9.752399444580078
1683009342814401300,10.5214013671875,0.972000002861023,-0.38839998841285706,9.75059986114502
1683009342834399700,10.541399658203124,0.9889999628067017,-0.40469998121261597,9.748199462890625
1683009342854399700,10.561399658203126,1.00819993019104,-0.4195999801158905,9.745599746704102
1683009342874399700,10.581399658203125,1.0196999311447144,-0.43140000104904175,9.74389934539795
1683009342894399700,10.601399658203125,1.0264999866485596,-0.438400000333786,9.742899894714355
1683009342914399700,10.621399658203124,1.0454000234603882,-0.43529999256134033,9.741000175476074
1683009342934399700,10.641399658203126,1.0720999240875244,-0.4193999767303467,9.738800048828125
1683009342954401300,10.6614013671875,1.100600004196167,-0.39659997820854187,9.736599922180176
1683009342974401300,10.6814013671875,1.139299988746643,-0.370199978351593,9.733099937438965
1683009342994399700,10.701399658203124,1.1820999383926392,-0.3434999883174896,9.729000091552734
1683009343014399700,10.721399658203126,1.2275999784469604,-0.31790000200271606,9.724299430847168
1683009343034401300,10.7414013671875,1.261799931526184,-0.29170000553131104,9.720699310302734
1683009343054399700,10.761399658203125,1.2691999673843384,-0.26510000228881836,9.720499992370605
1683009343074399700,10.781399658203124,1.2562999725341797,-0.24169999361038208,9.722799301147461
1683009343094399700,10.801399658203126,1.2314999103546143,-0.21799999475479126,9.726499557495117
1683009343114401300,10.8214013671875,1.2240999937057495,-0.19139999151229858,9.727999687194824
1683009343134399700,10.841399658203125,1.2451000213623047,-0.16129998862743378,9.725899696350098
1683009343154402800,10.86140283203125,1.2763999700546265,-0.1451999992132187,9.722099304199219
1683009343174401300,10.8814013671875,1.3061000108718872,-0.15709999203681946,9.717999458312988
1683009343194399700,10.901399658203125,1.3425999879837036,-0.17989999055862427,9.712599754333496
1683009343214399700,10.921399658203125,1.3671000003814697,-0.2044999897480011,9.708700180053711
1683009343234399700,10.941399658203125,1.4014999866485596,-0.22029998898506165,9.703399658203125
1683009343254401300,10.9614013671875,1.4218000173568726,-0.23819999396800995,9.70009994506836
1683009343274399700,10.981399658203125,1.4397000074386597,-0.2676999866962433,9.696599960327148
1683009343294399700,11.001399658203125,1.4398999214172363,-0.3227999806404114,9.694899559020996
1683009343314401300,11.0214013671875,1.4286999702453613,-0.3905999958515167,9.694099426269531
1683009343334401300,11.0414013671875,1.4148999452590942,-0.46309998631477356,9.692899703979492
1683009343354399700,11.061399658203126,1.4032999277114868,-0.5340999960899353,9.690999984741211
1683009343374399700,11.081399658203125,1.402999997138977,-0.604699969291687,9.68690013885498
1683009343394399700,11.101399658203125,1.4155999422073364,-0.6711999773979187,9.6806001663208
1683009343414399700,11.121399658203124,1.4275000095367432,-0.732699990272522,9.674399375915527
1683009343434399700,11.141399658203126,1.4301999807357788,-0.7929999828338623,9.669300079345703
1683009343454401300,11.1614013671875,1.4249999523162842,-0.8550999760627747,9.66469955444336
1683009343474401300,11.1814013671875,1.419600009918213,-0.9136999845504761,9.660200119018555
1683009343494399700,11.201399658203124,1.4126999378204346,-0.9646999835968018,9.65619945526123
1683009343514399700,11.221399658203126,1.406999945640564,-1.01010000705719,9.652400016784668
1683009343534399700,11.241399658203125,1.4160999059677124,-1.039099931716919,9.64799976348877
1683009343554399700,11.261399658203125,1.4320999383926392,-1.0483999252319336,9.644599914550781
1683009343574399700,11.281399658203124,1.4506999254226685,-1.0412999391555786,9.642600059509277
1683009343594399700,11.301399658203126,1.4673999547958374,-1.01829993724823,9.642600059509277
1683009343614401300,11.3214013671875,1.4747999906539917,-0.9846999645233154,9.644899368286133
1683009343634399700,11.341399658203125,1.4559999704360962,-0.9526999592781067,9.651000022888184
1683009343654399700,11.361399658203124,1.4032999277114868,-0.9394999742507935,9.660099983215332
1683009343674401300,11.3814013671875,1.3468999862670898,-0.9495999813079834,9.667099952697754
1683009343694399700,11.401399658203125,1.3550999164581299,-0.9587000012397766,9.66510009765625
1683009343714399700,11.421399658203125,1.407599925994873,-0.9289999604225159,9.660499572753906
1683009343734399700,11.441399658203125,1.46589994430542,-0.8926999568939209,9.655200004577637
1683009343754401300,11.4614013671875,1.507599949836731,-0.861299991607666,9.651700019836426
1683009343774399700,11.481399658203125,1.5271999835968018,-0.8208000063896179,9.652099609375
1683009343794399700,11.501399658203125,1.514699935913086,-0.7673999667167664,9.658499717712402
1683009343814401300,11.5214013671875,1.4764999151229858,-0.723800003528595,9.667699813842773
1683009343834399700,11.541399658203124,1.4585999250411987,-0.7021999955177307,9.672100067138672
1683009343854399700,11.561399658203126,1.455299973487854,-0.6960999965667725,9.672999382019043
1683009343874399700,11.581399658203125,1.4531999826431274,-0.6972000002861023,9.673199653625488
1683009343894399700,11.601399658203125,1.4512999057769775,-0.7066999673843384,9.672800064086914
1683009343914399700,11.621399658203124,1.4498999118804932,-0.7293999791145325,9.671299934387207
1683009343934399700,11.641399658203126,1.4460999965667725,-0.7621999979019165,9.669400215148926
1683009343954399700,11.661399658203125,1.438599944114685,-0.7999999523162842,9.667399406433105
1683009343974401300,11.6814013671875,1.43559992313385,-0.8319000005722046,9.665199279785156
1683009343994399700,11.701399658203124,1.433899998664856,-0.8553999662399292,9.663399696350098
1683009344014399700,11.721399658203126,1.4326000213623047,-0.8685999512672424,9.662399291992188
1683009344034401300,11.7414013671875,1.434499979019165,-0.8730999827384949,9.661699295043945
1683009344054399700,11.761399658203125,1.4345999956130981,-0.8716999888420105,9.661799430847168
1683009344074399700,11.781399658203124,1.4292999505996704,-0.8695999979972839,9.662799835205078
1683009344094399700,11.801399658203126,1.4335999488830566,-0.8748999834060669,9.661699295043945
1683009344114399700,11.821399658203125,1.437999963760376,-0.8880999684333801,9.659799575805664
1683009344134399700,11.841399658203125,1.4387999773025513,-0.9085999727249146,9.65779972076416
1683009344154399700,11.861399658203124,1.4332000017166138,-0.9330999851226807,9.656299591064453
1683009344174401300,11.8814013671875,1.423799991607666,-0.9626999497413635,9.654799461364746
1683009344194399700,11.901399658203125,1.4158999919891357,-0.9954999685287476,9.652599334716797
1683009344214399700,11.921399658203125,1.4011999368667603,-1.0325000286102295,9.650899887084961
1683009344234399700,11.941399658203125,1.379699945449829,-1.0694999694824219,9.649999618530273
1683009344254401300,11.9614013671875,1.355199933052063,-1.1073999404907227,9.649199485778809
1683009344274399700,11.981399658203125,1.3346999883651733,-1.141700029373169,9.64799976348877
1683009344294399700,12.001399658203125,1.324299931526184,-1.160499930381775,9.647199630737305
1683009344314401300,12.0214013671875,1.3327000141143799,-1.1500999927520752,9.647299766540527
1683009344334399700,12.041399658203124,1.3602999448776245,-1.1101999282836914,9.648099899291992
1683009344354399700,12.061399658203126,1.389299988746643,-1.048699975013733,9.650899887084961
1683009344374399700,12.081399658203125,1.404099941253662,-0.9853999614715576,9.655399322509766
1683009344394399700,12.101399658203125,1.4315999746322632,-0.926099956035614,9.65719985961914
1683009344414399700,12.121399658203124,1.4613999128341675,-0.856499969959259,9.659199714660645
1683009344434399700,12.141399658203126,1.4916999340057373,-0.7820999622344971,9.660900115966797
1683009344454399700,12.161399658203125,1.5392999649047852,-0.7116000056266785,9.65880012512207
1683009344474401300,12.1814013671875,1.5973999500274658,-0.6521999835968018,9.653599739074707
1683009344494399700,12.201399658203124,1.6303999423980713,-0.6172999739646912,9.650400161743164
1683009344514399700,12.221399658203126,1.6200000047683716,-0.6193999648094177,9.651999473571777
1683009344534401300,12.2414013671875,1.587499976158142,-0.6486999988555908,9.655499458312988
1683009344554399700,12.261399658203125,1.5432000160217285,-0.6820999979972839,9.660299301147461
1683009344574399700,12.281399658203124,1.5019999742507935,-0.7023999691009521,9.665399551391602
1683009344594399700,12.301399658203126,1.469499945640564,-0.7080000042915344,9.670000076293945
1683009344614401300,12.3214013671875,1.4479999542236328,-0.7035999894142151,9.673500061035156
1683009344634399700,12.341399658203125,1.4364999532699585,-0.6916999816894531,9.67609977722168
1683009344654399700,12.361399658203124,1.4351999759674072,-0.6771000027656555,9.677299499511719
1683009344674401300,12.3814013671875,1.4377999305725098,-0.661899983882904,9.677999496459961
1683009344694399700,12.401399658203125,1.4366999864578247,-0.6487999558448792,9.679100036621094
1683009344714399700,12.421399658203125,1.4398999214172363,-0.6398000121116638,9.679200172424316
1683009344734399700,12.441399658203125,1.4427999258041382,-0.6381999850273132,9.678899765014648
1683009344754401300,12.4614013671875,1.4383000135421753,-0.6437000036239624,9.679200172424316
1683009344774399700,12.481399658203125,1.4217000007629395,-0.6502000093460083,9.68120002746582
1683009344794399700,12.501399658203125,1.4020999670028687,-0.6577000021934509,9.683499336242676
1683009344814401300,12.5214013671875,1.385200023651123,-0.670199990272522,9.685099601745605
1683009344834401300,12.5414013671875,1.3740999698638916,-0.6883999705314636,9.685400009155273
1683009344854399700,12.561399658203126,1.368899941444397,-0.708899974822998,9.684700012207031
1683009344874399700,12.581399658203125,1.3604999780654907,-0.7347999811172485,9.683899879455566
1683009344894399700,12.601399658203125,1.350600004196167,-0.7680000066757202,9.682700157165527
1683009344914399700,12.621399658203124,1.3411999940872192,-0.8064000010490417,9.680899620056152
1683009344934399700,12.641399658203126,1.3294999599456787,-0.8508999943733215,9.678699493408203
1683009344954399700,12.661399658203125,1.3167999982833862,-0.9004999995231628,9.675999641418457
1683009344974401300,12.6814013671875,1.305999994277954,-0.9505999684333801,9.672599792480469
1683009344994399700,12.701399658203124,1.2991999387741089,-0.9954999685287476,9.668999671936035
1683009345014399700,12.721399658203126,1.2878999710083008,-1.0255999565124512,9.667399406433105
1683009345034399700,12.741399658203125,1.2735999822616577,-1.0413999557495117,9.66759967803955
1683009345054399700,12.761399658203125,1.2638999223709106,-1.0441999435424805,9.668600082397461
1683009345074399700,12.781399658203124,1.246500015258789,-1.035499930381775,9.671799659729004
1683009345094399700,12.801399658203126,1.2206000089645386,-1.0160000324249268,9.67710018157959
1683009345114401300,12.8214013671875,1.1856999397277832,-0.988599956035614,9.68429946899414
1683009345134399700,12.841399658203125,1.1475999355316162,-0.9620999693870544,9.69159984588623
1683009345154399700,12.861399658203124,1.1175999641418457,-0.9404999613761902,9.697199821472168
1683009345174401300,12.8814013671875,1.0882999897003174,-0.9281999468803406,9.701700210571289
1683009345194399700,12.901399658203125,1.0604000091552734,-0.9294999837875366,9.704699516296387
1683009345214399700,12.921399658203125,1.0384999513626099,-0.9316999912261963,9.706799507141113
1683009345234399700,12.941399658203125,1.0231000185012817,-0.929099977016449,9.708700180053711
1683009345254399700,12.961399658203124,1.0245000123977661,-0.9126999974250793,9.710100173950195
1683009345274399700,12.981399658203125,1.0434999465942383,-0.8768999576568604,9.711400032043457
1683009345294399700,13.001399658203125,1.0815999507904053,-0.8246999979019165,9.711799621582031
1683009345314401300,13.0214013671875,1.1180999279022217,-0.7766000032424927,9.711599349975586
1683009345334401300,13.0414013671875,1.1345000267028809,-0.7530999779701233,9.711599349975586
1683009345354399700,13.061399658203126,1.129499912261963,-0.7490999698638916,9.712499618530273
1683009345374399700,13.081399658203125,1.1136999130249023,-0.7488999962806702,9.714300155639648
1683009345394399700,13.101399658203125,1.0884000062942505,-0.7519999742507935,9.716899871826172
1683009345414399700,13.121399658203124,1.073599934577942,-0.7592999935150146,9.717999458312988
1683009345434399700,13.141399658203126,1.0712000131607056,-0.7653999924659729,9.71780014038086
1683009345454399700,13.161399658203125,1.0849000215530396,-0.7579999566078186,9.716899871826172
1683009345474401300,13.1814013671875,1.0997999906539917,-0.743399977684021,9.716300010681152
1683009345494399700,13.201399658203124,1.1130999326705933,-0.7374999523162842,9.715299606323242
1683009345514399700,13.221399658203126,1.1267999410629272,-0.7434999942779541,9.713199615478516
1683009345534401300,13.2414013671875,1.129699945449829,-0.7583000063896179,9.711699485778809
1683009345554402800,13.26140283203125,1.128499984741211,-0.7798999547958374,9.710199356079102
1683009345574399700,13.281399658203124,1.1302999258041382,-0.8057999610900879,9.707799911499023
1683009345594399700,13.301399658203126,1.1327999830245972,-0.8305000066757202,9.705499649047852
1683009345614401300,13.3214013671875,1.142300009727478,-0.849299967288971,9.702699661254883
1683009345634399700,13.341399658203125,1.156499981880188,-0.8628000020980835,9.699899673461914
1683009345654399700,13.361399658203124,1.1646000146865845,-0.8750999569892883,9.697799682617188
1683009345674401300,13.3814013671875,1.1654000282287598,-0.8853999972343445,9.696799278259277
1683009345694399700,13.401399658203125,1.160099983215332,-0.8952999711036682,9.696499824523926
1683009345714399700,13.421399658203125,1.1419999599456787,-0.9145999550819397,9.696799278259277
1683009345734399700,13.441399658203125,1.11899995803833,-0.9447000026702881,9.696599960327148
1683009345754401300,13.4614013671875,1.112299919128418,-0.9770999550819397,9.694199562072754
1683009345774399700,13.481399658203125,1.1449999809265137,-0.9929999709129333,9.688799858093262
1683009345794399700,13.501399658203125,1.2175999879837036,-0.9927999973297119,9.679900169372559
1683009345814401300,13.5214013671875,1.3260999917984009,-0.9695999622344971,9.668000221252441
1683009345834399700,13.541399658203124,1.4390000104904175,-0.9355999827384949,9.655200004577637
1683009345854399700,13.561399658203126,1.5130000114440918,-0.9170999526977539,9.645699501037598
1683009345874399700,13.581399658203125,1.5471999645233154,-0.9066999554634094,9.641200065612793
1683009345894399700,13.601399658203125,1.5443999767303467,-0.873199999332428,9.644800186157227
1683009345914401300,13.6214013671875,1.5228999853134155,-0.801099956035614,9.654399871826172
1683009345934399700,13.641399658203126,1.531499981880188,-0.707099974155426,9.660399436950684
1683009345954399700,13.661399658203125,1.5432000160217285,-0.6164999604225159,9.664799690246582
1683009345974401300,13.6814013671875,1.5475000143051147,-0.5573999881744385,9.667699813842773
1683009345994399700,13.701399658203124,1.5491999387741089,-0.5192999839782715,9.669499397277832
1683009346014399700,13.721399658203126,1.535499930381775,-0.48829999566078186,9.673299789428711
1683009346034401300,13.7414013671875,1.5085999965667725,-0.4554999768733978,9.679100036621094
1683009346054399700,13.761399658203125,1.4843000173568726,-0.43799999356269836,9.683699607849121
1683009346074399700,13.781399658203124,1.465399980545044,-0.44859999418258667,9.686100006103516
1683009346094399700,13.801399658203126,1.4433999061584473,-0.4813999831676483,9.687799453735352
1683009346114399700,13.821399658203125,1.4154999256134033,-0.5192999839782715,9.6899995803833
1683009346134399700,13.841399658203125,1.38319993019104,-0.5521999597549438,9.69279956817627
1683009346154399700,13.861399658203124,1.3507999181747437,-0.5766000151634216,9.696000099182129
1683009346174401300,13.8814013671875,1.3194999694824219,-0.5941999554634094,9.699199676513672
1683009346194399700,13.901399658203125,1.2949999570846558,-0.6071999669075012,9.701700210571289
1683009346214399700,13.921399658203125,1.28249990940094,-0.6152999997138977,9.702899932861328
1683009346234399700,13.941399658203125,1.273800015449524,-0.6182000041007996,9.703800201416016
1683009346254401300,13.9614013671875,1.260599970817566,-0.6162999868392944,9.705699920654297
1683009346274399700,13.981399658203125,1.2387999296188354,-0.6097999811172485,9.70889949798584
1683009346294399700,14.001399658203125,1.21589994430542,-0.5963000059127808,9.712599754333496
1683009346314401300,14.0214013671875,1.2062000036239624,-0.5681999921798706,9.715499877929688
1683009346334401300,14.0414013671875,1.1996999979019165,-0.528499960899353,9.718599319458008
1683009346354399700,14.061399658203126,1.1912999153137207,-0.48889997601509094,9.721699714660645
1683009346374399700,14.081399658203125,1.1854000091552734,-0.4535999894142151,9.724100112915039
1683009346394399700,14.101399658203125,1.177299976348877,-0.42179998755455017,9.726499557495117
1683009346414399700,14.121399658203124,1.1669999361038208,-0.3958999812602997,9.728899955749512
1683009346434399700,14.141399658203126,1.1614999771118164,-0.3707999885082245,9.730500221252441
1683009346454399700,14.161399658203125,1.1579999923706055,-0.34610000252723694,9.731800079345703
1683009346474401300,14.1814013671875,1.1618000268936157,-0.32269999384880066,9.732199668884277
1683009346494399700,14.201399658203124,1.1614999771118164,-0.29889997839927673,9.732999801635742
1683009346514399700,14.221399658203126,1.142899990081787,-0.2807999849319458,9.735699653625488
1683009346534401300,14.2414013671875,1.1186000108718872,-0.2635999917984009,9.738999366760254
1683009346554401300,14.2614013671875,1.0777000188827515,-0.2386999875307083,9.74429988861084
1683009346574399700,14.281399658203124,1.0575000047683716,-0.21369999647140503,9.747099876403809
1683009346594399700,14.301399658203126,1.108799934387207,-0.19669999182224274,9.741700172424316
1683009346614401300,14.3214013671875,1.1812000274658203,-0.1768999993801117,9.733599662780762
1683009346634399700,14.341399658203125,1.1735999584197998,-0.15079998970031738,9.734899520874023
1683009346654399700,14.361399658203124,1.1395000219345093,-0.1388999968767166,9.7391996383667
1683009346674401300,14.3814013671875,1.1330000162124634,-0.12389999628067017,9.740099906921387
1683009346694399700,14.401399658203125,1.1513999700546265,-0.09969999641180038,9.738299369812012
1683009346714399700,14.421399658203125,1.191100001335144,-0.07459999620914459,9.733699798583984
1683009346734399700,14.441399658203125,1.2149999141693115,-0.06340000033378601,9.730799674987793
1683009346754401300,14.4614013671875,1.2056999206542969,-0.07609999924898148,9.731900215148926
1683009346774399700,14.481399658203125,1.169700026512146,-0.11019999533891678,9.736000061035156
1683009346794399700,14.501399658203125,1.1241999864578247,-0.14919999241828918,9.740799903869629
1683009346814401300,14.5214013671875,1.0885999202728271,-0.18219999969005585,9.74429988861084
1683009346834401300,14.5414013671875,1.0707999467849731,-0.2012999951839447,9.74590015411377
1683009346854399700,14.561399658203126,1.0634000301361084,-0.2043999880552292,9.746600151062012
1683009346874402800,14.58140283203125,1.059999942779541,-0.20170000195503235,9.746999740600586
1683009346894399700,14.601399658203125,1.0468999147415161,-0.2061999887228012,9.74839973449707
1683009346914399700,14.621399658203124,1.031499981880188,-0.22759999334812164,9.749499320983887
1683009346934399700,14.641399658203126,1.018399953842163,-0.2709999978542328,9.749799728393555
1683009346954399700,14.661399658203125,1.011099934577942,-0.32679998874664307,9.748899459838867
1683009346974399700,14.681399658203125,1.0080000162124634,-0.38329997658729553,9.747099876403809
1683009346994399700,14.701399658203124,1.010699987411499,-0.43219998478889465,9.744799613952637
1683009347014399700,14.721399658203126,1.0181999206542969,-0.4715999960899353,9.742199897766113
1683009347034399700,14.741399658203125,1.0306999683380127,-0.502299964427948,9.739299774169922
1683009347054399700,14.761399658203125,1.0422999858856201,-0.534500002861023,9.73639965057373
1683009347074399700,14.781399658203124,1.0544999837875366,-0.574999988079071,9.732799530029297
1683009347094399700,14.801399658203126,1.0806999206542969,-0.6288999915122986,9.72659969329834
1683009347114401300,14.8214013671875,1.124899983406067,-0.6904000043869019,9.717399597167969
1683009347134399700,14.841399658203125,1.1887999773025513,-0.7421000003814697,9.705900192260742
1683009347154399700,14.861399658203124,1.2654999494552612,-0.7811999917030334,9.69320011138916
1683009347174401300,14.8814013671875,1.3263999223709106,-0.8030999898910522,9.683199882507324
1683009347194399700,14.901399658203125,1.372499942779541,-0.8021999597549438,9.676899909973145
1683009347214399700,14.921399658203125,1.4067999124526978,-0.7872999906539917,9.673199653625488
1683009347234399700,14.941399658203125,1.423699975013733,-0.7579999566078186,9.672999382019043
1683009347254401300,14.9614013671875,1.4132999181747437,-0.736299991607666,9.676199913024902
1683009347274399700,14.981399658203125,1.385599970817566,-0.7389000058174133,9.679999351501465
1683009347294399700,15.001399658203125,1.358199954032898,-0.762499988079071,9.682099342346191
1683009347314401300,15.0214013671875,1.3604999780654907,-0.7640999555587769,9.681599617004395
1683009347334401300,15.0414013671875,1.3852999210357666,-0.7062999606132507,9.682499885559082
1683009347354399700,15.061399658203126,1.4192999601364136,-0.6150999665260315,9.683799743652344
1683009347374399700,15.081399658203125,1.4644999504089355,-0.5133000016212463,9.682999610900879
1683009347394399700,15.101399658203125,1.5022999048233032,-0.41099998354911804,9.682099342346191
1683009347414399700,15.121399658203124,1.5169999599456787,-0.3296999931335449,9.682899475097656
1683009347434399700,15.141399658203126,1.5202000141143799,-0.27230000495910645,9.684199333190918
1683009347454399700,15.161399658203125,1.5270999670028687,-0.243599995970726,9.683899879455566
1683009347474401300,15.1814013671875,1.5303999185562134,-0.23809999227523804,9.683499336242676
1683009347494399700,15.201399658203124,1.5252999067306519,-0.24729999899864197,9.684100151062012
1683009347514399700,15.221399658203126,1.5017999410629272,-0.27300000190734863,9.68709945678711
1683009347534399700,15.241399658203125,1.458799958229065,-0.310699999332428,9.692500114440918
1683009347554399700,15.261399658203125,1.402999997138977,-0.35409998893737793,9.699299812316895
1683009347574399700,15.281399658203124,1.3463000059127808,-0.39319998025894165,9.70580005645752
1683009347594399700,15.301399658203126,1.3044999837875366,-0.42559999227523804,9.710100173950195
1683009347614401300,15.3214013671875,1.2747999429702759,-0.4481000006198883,9.71299934387207
1683009347634399700,15.341399658203125,1.2462999820709229,-0.4633999764919281,9.715999603271484
1683009347654399700,15.361399658203124,1.2056999206542969,-0.4729999899864197,9.720699310302734
1683009347674401300,15.3814013671875,1.1582000255584717,-0.4818999767303467,9.72599983215332
1683009347694399700,15.401399658203125,1.1115999221801758,-0.4948999881744385,9.730799674987793
1683009347714399700,15.421399658203125,1.0806999206542969,-0.5078999996185303,9.733599662780762
1683009347734399700,15.441399658203125,1.072700023651123,-0.5152999758720398,9.734099388122559
1683009347754401300,15.4614013671875,1.0805000066757202,-0.5123000144958496,9.733399391174316
1683009347774399700,15.481399658203125,1.0957000255584717,-0.5044000148773193,9.732099533081055
1683009347794399700,15.501399658203125,1.1134999990463257,-0.4976999759674072,9.730500221252441
1683009347814401300,15.5214013671875,1.1308000087738037,-0.49129998683929443,9.728799819946289
1683009347834399700,15.541399658203124,1.1445000171661377,-0.4770999848842621,9.727899551391602
1683009347854399700,15.561399658203126,1.1511999368667603,-0.45739999413490295,9.727999687194824
1683009347874399700,15.581399658203125,1.1539000272750854,-0.43639999628067017,9.728699684143066
1683009347894399700,15.601399658203125,1.156599998474121,-0.4219000041484833,9.729000091552734
1683009347914399700,15.621399658203124,1.1598999500274658,-0.42309999465942383,9.728599548339844
1683009347934399700,15.641399658203126,1.1624000072479248,-0.43799999356269836,9.72760009765625
1683009347954399700,15.661399658203125,1.1553000211715698,-0.46549999713897705,9.72719955444336
1683009347974401300,15.6814013671875,1.126099944114685,-0.5037999749183655,9.728699684143066
1683009347994399700,15.701399658203124,1.09089994430542,-0.552899956703186,9.729999542236328
1683009348014399700,15.721399658203126,1.056999921798706,-0.6065999865531921,9.730599403381348
1683009348034399700,15.741399658203125,1.0338000059127808,-0.6668999791145325,9.729100227355957
1683009348054399700,15.761399658203125,1.04830002784729,-0.7257999777793884,9.723400115966797
1683009348074399700,15.781399658203124,1.0755000114440918,-0.7771999835968018,9.716400146484375
1683009348094399700,15.801399658203126,1.0938999652862549,-0.8223999738693237,9.710599899291992
1683009348114401300,15.8214013671875,1.1022000312805176,-0.8575999736785889,9.706600189208984
1683009348134399700,15.841399658203125,1.1035000085830688,-0.8797000050544739,9.704500198364258
1683009348154399700,15.861399658203124,1.1026999950408936,-0.8888999819755554,9.703800201416016
1683009348174401300,15.8814013671875,1.104599952697754,-0.8847000002861023,9.703899383544922
1683009348194399700,15.901399658203125,1.1069999933242798,-0.8715999722480774,9.704899787902832
1683009348214399700,15.921399658203125,1.1110999584197998,-0.8578000068664551,9.705599784851074
1683009348234399700,15.941399658203125,1.118399977684021,-0.8435999751091003,9.705999374389648
1683009348254399700,15.961399658203124,1.1251999139785767,-0.8296999931335449,9.706399917602539
1683009348274399700,15.981399658203125,1.1323000192642212,-0.8197999596595764,9.706500053405762
1683009348294399700,16.001399658203123,1.1404999494552612,-0.8065999746322632,9.706600189208984
1683009348314401300,16.0214013671875,1.1470999717712402,-0.788100004196167,9.707300186157227
1683009348334401300,16.0414013671875,1.14329993724823,-0.7644999623298645,9.709699630737305
1683009348354399700,16.061399658203126,1.128600001335144,-0.7369999885559082,9.713500022888184
1683009348374399700,16.081399658203125,1.1105999946594238,-0.7066999673843384,9.71780014038086
1683009348394399700,16.101399658203125,1.0982999801635742,-0.6827999949455261,9.72089958190918
1683009348414399700,16.121399658203124,1.0878000259399414,-0.6704999804496765,9.722999572753906
1683009348434399700,16.141399658203124,1.0751999616622925,-0.664900004863739,9.724800109863281
1683009348454399700,16.161399658203123,1.0715999603271484,-0.6604999899864197,9.725500106811523
1683009348474399700,16.181399658203127,1.070599913597107,-0.6477000117301941,9.726399421691895
1683009348494399700,16.201399658203126,1.0576999187469482,-0.623199999332428,9.729399681091309
1683009348514399700,16.221399658203126,1.035499930381775,-0.5986999869346619,9.733399391174316
1683009348534399700,16.241399658203125,1.0383999347686768,-0.5949999690055847,9.73330020904541
1683009348554399700,16.261399658203125,1.0532000064849854,-0.604200005531311,9.731100082397461
1683009348574399700,16.281399658203124,1.0499999523162842,-0.614799976348877,9.730799674987793
1683009348594399700,16.301399658203124,1.0401999950408936,-0.6205999851226807,9.731499671936035
1683009348614399700,16.321399658203124,1.0257999897003174,-0.6189999580383301,9.733099937438965
1683009348634399700,16.341399658203127,1.0214999914169312,-0.6054999828338623,9.734399795532227
1683009348654399700,16.361399658203126,1.027899980545044,-0.5727999806404114,9.735699653625488
1683009348674399700,16.381399658203126,1.0400999784469604,-0.5121999979019165,9.737799644470215
1683009348694399700,16.401399658203125,1.0485999584197998,-0.44829997420310974,9.740099906921387
1683009348714399700,16.421399658203125,1.0458999872207642,-0.4016999900341034,9.742400169372559
1683009348734399700,16.441399658203125,1.0184999704360962,-0.37449997663497925,9.746399879455566
1683009348754399700,16.461399658203124,0.9790999889373779,-0.36629998683929443,9.750699996948242
1683009348774399700,16.481399658203124,0.9781000018119812,-0.35359999537467957,9.751299858093262
1683009348794399700,16.501399658203123,0.9968999624252319,-0.3149999976158142,9.750699996948242
1683009348814399700,16.521399658203126,0.9972999691963196,-0.2793000042438507,9.751699447631836
1683009348834399700,16.541399658203126,0.9840999841690063,-0.2671999931335449,9.753399848937988
1683009348854399700,16.561399658203126,0.9787999987602234,-0.28039997816085815,9.753600120544434
1683009348874399700,16.581399658203125,0.9686999917030334,-0.29809999465942383,9.75409984588623
1683009348894399700,16.601399658203125,0.9661999940872192,-0.3003999888896942,9.754300117492676
1683009348914399700,16.621399658203124,0.9804999828338623,-0.2809999883174896,9.753399848937988
1683009348934399700,16.641399658203124,1.0009000301361084,-0.25270000100135803,9.752099990844727
1683009348954399700,16.661399658203123,1.018899917602539,-0.2304999977350235,9.750800132751465
1683009348974399700,16.681399658203127,1.0267999172210693,-0.22699999809265137,9.750100135803223
1683009348994399700,16.701399658203126,1.0282999277114868,-0.24279999732971191,9.749499320983887
1683009349014399700,16.721399658203126,1.0288000106811523,-0.2700999975204468,9.748700141906738
1683009349034399700,16.741399658203125,1.0188000202178955,-0.2987000048160553,9.74899959564209
1683009349054399700,16.761399658203125,1.0023999214172363,-0.3206000030040741,9.75
1683009349074399700,16.781399658203124,0.9763999581336975,-0.3376999795436859,9.751999855041504
1683009349094399700,16.801399658203124,0.942799985408783,-0.3511999845504761,9.754799842834473
1683009349114399700,16.821399658203124,0.9091999530792236,-0.35749998688697815,9.757800102233887
1683009349134399700,16.841399658203127,0.8682000041007996,-0.3547999858856201,9.76159954071045
1683009349154399700,16.861399658203126,0.827299952507019,-0.3434000015258789,9.765600204467773
1683009349174402800,16.88140283203125,0.8001999855041504,-0.32359999418258667,9.768499374389648
1683009349194399700,16.901399658203125,0.7732999920845032,-0.28839999437332153,9.77180004119873
1683009349214399700,16.921399658203125,0.7299999594688416,-0.24319998919963837,9.776399612426758
1683009349234399700,16.941399658203125,0.6787999868392944,-0.19609999656677246,9.781099319458008
1683009349254401300,16.9614013671875,0.6266999840736389,-0.15629999339580536,9.785299301147461
1683009349274399700,16.981399658203124,0.5825999975204468,-0.1273999959230423,9.788399696350098
1683009349294399700,17.001399658203123,0.5449000000953674,-0.10849999636411667,9.790800094604492
1683009349314401300,17.0214013671875,0.5094000101089478,-0.09510000050067902,9.792900085449219
1683009349334401300,17.0414013671875,0.47909998893737793,-0.09209999442100525,9.794499397277832
1683009349354399700,17.061399658203126,0.4560999870300293,-0.09479999542236328,9.795499801635742
1683009349374399700,17.081399658203125,0.4244999885559082,-0.09799999743700027,9.796899795532227
1683009349394399700,17.101399658203125,0.3854999840259552,-0.09969999641180038,9.798500061035156
1683009349414399700,17.121399658203124,0.35349997878074646,-0.10249999910593033,9.799699783325195
1683009349434399700,17.141399658203124,0.3280999958515167,-0.10610000044107437,9.80049991607666
1683009349454399700,17.161399658203123,0.3319999873638153,-0.11229999363422394,9.800299644470215
1683009349474401300,17.1814013671875,0.38179999589920044,-0.09969999641180038,9.798699378967285
1683009349494399700,17.201399658203126,0.44699999690055847,-0.0625,9.796199798583984
1683009349514399700,17.221399658203126,0.5160999894142151,-0.03659999743103981,9.792900085449219
1683009349534399700,17.241399658203125,0.5741999745368958,-0.032099999487400055,9.78969955444336
1683009349554399700,17.261399658203125,0.6186000108718872,-0.045099999755620956,9.786999702453613
1683009349574399700,17.281399658203124,0.65829998254776,-0.065700002014637,9.784299850463867
1683009349594399700,17.301399658203124,0.7069000005722046,-0.09319999814033508,9.780599594116211
1683009349614401300,17.3214013671875,0.7608999609947205,-0.12159999459981918,9.776299476623535
1683009349634399700,17.341399658203127,0.8086000084877014,-0.14839999377727509,9.772099494934082
1683009349654399700,17.361399658203126,0.8460999727249146,-0.1720999926328659,9.768499374389648
1683009349674401300,17.3814013671875,0.8700999617576599,-0.18879999220371246,9.76609992980957
1683009349694399700,17.401399658203125,0.8818999528884888,-0.19849999248981476,9.764800071716309
1683009349714399700,17.421399658203125,0.899399995803833,-0.20419999957084656,9.763099670410156
1683009349734399700,17.441399658203125,0.9211999773979187,-0.20559999346733093,9.761099815368652
1683009349754401300,17.4614013671875,0.9440000057220459,-0.20819999277591705,9.75879955291748
1683009349774399700,17.481399658203124,0.9609999656677246,-0.21469999849796295,9.756999969482422
1683009349794399700,17.501399658203123,0.9709999561309814,-0.23160000145435333,9.75570011138916
1683009349814399700,17.521399658203126,0.9749999642372131,-0.26019999384880066,9.754499435424805
1683009349834401300,17.5414013671875,0.9752999544143677,-0.29819998145103455,9.753399848937988
1683009349854399700,17.561399658203126,0.9739999771118164,-0.343099981546402,9.752099990844727
1683009349874399700,17.581399658203125,0.9713999629020691,-0.3888999819755554,9.75059986114502
1683009349894399700,17.601399658203125,0.9625999927520752,-0.43549999594688416,9.749499320983887
1683009349914399700,17.621399658203124,0.9474999904632568,-0.48639997839927673,9.748600006103516
1683009349934399700,17.641399658203124,0.9279999732971191,-0.539900004863739,9.747599601745605
1683009349954399700,17.661399658203123,0.9066999554634094,-0.5963000059127808,9.746399879455566
1683009349974399700,17.681399658203127,0.8894999623298645,-0.6470999717712402,9.744699478149414
1683009349994399700,17.701399658203126,0.8657000064849854,-0.6802999973297119,9.744599342346191
1683009350014399700,17.721399658203126,0.8455999493598938,-0.6954999566078186,9.745299339294434
1683009350034399700,17.741399658203125,0.8224999904632568,-0.6940999627113342,9.74739933013916
1683009350054399700,17.761399658203125,0.7989999651908875,-0.6815999746322632,9.750199317932129
1683009350074399700,17.781399658203124,0.7726999521255493,-0.6578999757766724,9.753899574279785
1683009350094399700,17.801399658203124,0.746399998664856,-0.6227999925613403,9.758299827575684
1683009350114401300,17.8214013671875,0.7339999675750732,-0.5722000002861023,9.762299537658691
1683009350134399700,17.841399658203127,0.7421000003814697,-0.5072999596595764,9.765299797058105
1683009350154399700,17.861399658203126,0.7569999694824219,-0.4462999999523163,9.767099380493164
1683009350174401300,17.8814013671875,0.7622999548912048,-0.4059999883174896,9.768499374389648
1683009350194399700,17.901399658203125,0.7576999664306641,-0.3828999996185303,9.769800186157227
1683009350214399700,17.921399658203125,0.7439999580383301,-0.3635999858379364,9.771599769592285
1683009350234402800,17.94140283203125,0.7350999712944031,-0.3346000015735626,9.773300170898438
1683009350254401300,17.9614013671875,0.732699990272522,-0.28999999165534973,9.77489948272705
1683009350274399700,17.981399658203124,0.7285000085830688,-0.24369999766349792,9.77649974822998
1683009350294399700,18.001399658203123,0.7369999885559082,-0.2029999941587448,9.776800155639648
1683009350314399700,18.021399658203126,0.746399998664856,-0.17249999940395355,9.776599884033203
1683009350334401300,18.0414013671875,0.7791999578475952,-0.15369999408721924,9.774399757385254
1683009350354399700,18.061399658203126,0.8287999629974365,-0.1378999948501587,9.770500183105469
1683009350374399700,18.081399658203125,0.8675999641418457,-0.12879998981952667,9.76729965209961
1683009350394399700,18.101399658203125,0.8930000066757202,-0.13159999251365662,9.764999389648438
1683009350414399700,18.121399658203124,0.9027999639511108,-0.1542000025510788,9.763699531555176
1683009350434399700,18.141399658203124,0.8964999914169312,-0.20099999010562897,9.763500213623047
1683009350454399700,18.161399658203123,0.8794999718666077,-0.26759999990463257,9.763400077819824
1683009350474399700,18.181399658203127,0.8657999634742737,-0.3328999876976013,9.76259994506836
1683009350494402800,18.20140283203125,0.8535999655723572,-0.38659998774528503,9.761699676513672
1683009350514399700,18.221399658203126,0.8450999855995178,-0.4187999963760376,9.761099815368652
1683009350534399700,18.241399658203125,0.8367999792098999,-0.42559999227523804,9.76159954071045
1683009350554399700,18.261399658203125,0.8258000016212463,-0.4132999777793884,9.762999534606934
1683009350574402800,18.28140283203125,0.8197999596595764,-0.3877999782562256,9.764599800109863
1683009350594402800,18.30140283203125,0.8215000033378601,-0.3497999906539917,9.765899658203125
1683009350614401300,18.3214013671875,0.8299999833106995,-0.3012000024318695,9.766799926757812
1683009350634399700,18.341399658203127,0.8359000086784363,-0.2498999983072281,9.7677001953125
1683009350654399700,18.361399658203126,0.8312999606132507,-0.19939999282360077,9.769299507141113
1683009350674401300,18.3814013671875,0.8204999566078186,-0.15029999613761902,9.771100044250488
1683009350694399700,18.401399658203125,0.8111000061035156,-0.10859999805688858,9.77239990234375
1683009350714399700,18.421399658203125,0.8065999746322632,-0.06949999928474426,9.773099899291992
1683009350734399700,18.441399658203125,0.8109999895095825,-0.041099999099969864,9.772899627685547
1683009350754401300,18.4614013671875,0.8233999609947205,-0.04470000043511391,9.771900177001953
1683009350774399700,18.481399658203124,0.8452999591827393,-0.06289999932050705,9.769899368286133
1683009350794399700,18.501399658203123,0.8795999884605408,-0.07360000163316727,9.766799926757812
1683009350814399700,18.521399658203126,0.9210000038146973,-0.057099997997283936,9.763099670410156
1683009350834399700,18.541399658203126,0.9587000012397766,-0.021699998527765274,9.759599685668945
1683009350854399700,18.561399658203126,0.9894999861717224,0.007599999662488699,9.756499290466309
1683009350874399700,18.581399658203125,1.000100016593933,0.015399999916553497,9.755499839782715
1683009350894399700,18.601399658203125,0.9946999549865723,0.001999999862164259,9.755999565124512
1683009350914399700,18.621399658203124,0.9799000024795532,-0.008799999952316284,9.757499694824219
1683009350934399700,18.641399658203124,0.9790999889373779,-0.021199999377131462,9.757599830627441
1683009350954399700,18.661399658203123,1.0024999380111694,-0.028299998492002487,9.755199432373047
1683009350974401300,18.6814013671875,0.9989999532699585,-0.018799999728798866,9.755599975585938
1683009350994399700,18.701399658203126,0.9444999694824219,-0.02279999852180481,9.76099967956543
1683009351014399700,18.721399658203126,0.8880999684333801,-0.0478999987244606,9.766200065612793
1683009351034399700,18.741399658203125,0.8818999528884888,-0.07259999960660934,9.766599655151367
1683009351054399700,18.761399658203125,0.9161999821662903,-0.08049999922513962,9.763400077819824
1683009351074399700,18.781399658203124,0.9452999830245972,-0.08399999886751175,9.760600090026855
1683009351094399700,18.801399658203124,0.9515999555587769,-0.08889999985694885,9.759900093078613
1683009351114401300,18.8214013671875,0.9346999526023865,-0.08989999443292618,9.761499404907227
1683009351134399700,18.841399658203127,0.9129999876022339,-0.0916999951004982,9.763599395751953
1683009351154399700,18.861399658203126,0.899899959564209,-0.10849999636411667,9.764599800109863
1683009351174401300,18.8814013671875,0.902899980545044,-0.13750000298023224,9.763999938964844
1683009351194399700,18.901399658203125,0.9165999889373779,-0.1753000020980835,9.762100219726562
1683009351214399700,18.921399658203125,0.9287999868392944,-0.218299999833107,9.760099411010742
1683009351234399700,18.941399658203125,0.9267999529838562,-0.26010000705718994,9.759200096130371
1683009351254399700,18.961399658203124,0.9199999570846558,-0.30219998955726624,9.758699417114258
1683009351274399700,18.981399658203124,0.9145999550819397,-0.34540000557899475,9.757699966430664
1683009351294399700,19.001399658203123,0.9088999629020691,-0.3870999813079834,9.756699562072754
1683009351314399700,19.021399658203126,0.9007999897003174,-0.42669999599456787,9.755799293518066
1683009351334399700,19.041399658203126,0.8872999548912048,-0.46149998903274536,9.755499839782715
1683009351354399700,19.061399658203126,0.8709999918937683,-0.48979997634887695,9.755599975585938
1683009351374399700,19.081399658203125,0.8508999943733215,-0.510699987411499,9.756199836730957
1683009351394399700,19.101399658203125,0.8307999968528748,-0.5281000137329102,9.757100105285645
1683009351414399700,19.121399658203124,0.8161999583244324,-0.5414000153541565,9.757599830627441
1683009351434399700,19.141399658203124,0.8052999973297119,-0.5478999614715576,9.758099555969238
1683009351454399700,19.161399658203123,0.79749995470047,-0.5353999733924866,9.7593994140625
1683009351474401300,19.1814013671875,0.8037999868392944,-0.493399977684021,9.761099815368652
1683009351494399700,19.201399658203126,0.8215000033378601,-0.429099977016449,9.762700080871582
1683009351514399700,19.221399658203126,0.8276000022888184,-0.3725999891757965,9.76449966430664
1683009351534399700,19.241399658203125,0.8402999639511108,-0.32170000672340393,9.765199661254883
1683009351554399700,19.261399658203125,0.8488999605178833,-0.2856000065803528,9.765600204467773
1683009351574399700,19.281399658203124,0.8563999533653259,-0.27160000801086426,9.765399932861328
1683009351594399700,19.301399658203124,0.851099967956543,-0.2759000062942505,9.76569938659668
1683009351614401300,19.3214013671875,0.8151999711990356,-0.29409998655319214,9.768199920654297
1683009351634399700,19.341399658203127,0.7706999778747559,-0.3165999948978424,9.771100044250488
1683009351654399700,19.361399658203126,0.7382000088691711,-0.34540000557899475,9.772699356079102
1683009351674401300,19.3814013671875,0.7658999562263489,-0.3351999819278717,9.770899772644043
1683009351694399700,19.401399658203125,0.8273999691009521,-0.2637999951839447,9.768099784851074
1683009351714399700,19.421399658203125,0.8776999711990356,-0.1712999939918518,9.76569938659668
1683009351734399700,19.441399658203125,0.9223999977111816,-0.0810999944806099,9.762800216674805
1683009351754401300,19.4614013671875,0.9340999722480774,-0.011899999342858791,9.76200008392334
1683009351774399700,19.481399658203124,0.8810999989509583,0.019899999722838402,9.766900062561035
1683009351794399700,19.501399658203123,0.8389999866485596,0.00969999935477972,9.770599365234375
1683009351814399700,19.521399658203126,0.8447999954223633,-0.008700000122189522,9.770099639892578
1683009351834399700,19.541399658203126,0.8671999573707581,0.002199999988079071,9.768199920654297
1683009351854399700,19.561399658203126,0.8960999846458435,0.032600000500679016,9.76550006866455
1683009351874399700,19.581399658203125,0.9104999899864197,0.05649999901652336,9.764100074768066
1683009351894399700,19.601399658203125,0.8986999988555908,0.07109999656677246,9.76509952545166
1683009351914399700,19.621399658203124,0.8795999884605408,0.08150000125169754,9.76669979095459
1683009351934399700,19.641399658203124,0.8682000041007996,0.09049999713897705,9.7677001953125
1683009351954399700,19.661399658203123,0.8795999884605408,0.10109999775886536,9.766499519348145
1683009351974401300,19.6814013671875,0.8999999761581421,0.11129999905824661,9.764599800109863
1683009351994399700,19.701399658203126,0.915399968624115,0.11789999902248383,9.763099670410156
1683009352014399700,19.721399658203126,0.9150999784469604,0.1184999942779541,9.763099670410156
1683009352034401300,19.7414013671875,0.9025999903678894,0.11069999635219574,9.764299392700195
1683009352054399700,19.761399658203125,0.8865999579429626,0.09369999915361404,9.765999794006348
1683009352074399700,19.781399658203124,0.8687999844551086,0.08009999990463257,9.7677001953125
1683009352094399700,19.801399658203124,0.8550999760627747,0.06799999624490738,9.769000053405762
1683009352114399700,19.821399658203124,0.8418999910354614,0.0551999993622303,9.7701997756958
1683009352134399700,19.841399658203127,0.8294000029563904,0.04319999739527702,9.77139949798584
1683009352154399700,19.861399658203126,0.8155999779701233,0.03350000083446503,9.772600173950195
1683009352174401300,19.8814013671875,0.8001999855041504,0.024000000208616257,9.773900032043457
1683009352194399700,19.901399658203125,0.7865999937057495,0.012299999594688416,9.774999618530273
1683009352214399700,19.921399658203125,0.7734000086784363,-0.005200000014156103,9.776100158691406
1683009352234402800,19.94140283203125,0.765999972820282,-0.029399998486042023,9.776599884033203
1683009352254401300,19.9614013671875,0.7603999972343445,-0.0551999993622303,9.776899337768555
1683009352274399700,19.981399658203124,0.7520999908447266,-0.07970000058412552,9.777400016784668
1683009352294399700,20.001399658203123,0.7373999953269958,-0.09349999576807022,9.778399467468262
1683009352314399700,20.021399658203126,0.7228999733924866,-0.08999999612569809,9.779500007629395
1683009352334399700,20.041399658203126,0.702299952507019,-0.0689999982714653,9.78119945526123
1683009352354399700,20.061399658203126,0.6843999624252319,-0.019199999049305916,9.782699584960938
1683009352374399700,20.081399658203125,0.6671000123023987,0.05559999868273735,9.783699989318848
1683009352394399700,20.101399658203125,0.6498000025749207,0.12999999523162842,9.784199714660645
1683009352414399700,20.121399658203124,0.6380999684333801,0.18459999561309814,9.784099578857422
1683009352434399700,20.141399658203124,0.6355999708175659,0.23240000009536743,9.783199310302734
1683009352454399700,20.161399658203123,0.6273999810218811,0.28599998354911804,9.782299995422363
1683009352474401300,20.1814013671875,0.6105999946594238,0.3325999975204468,9.781899452209473
1683009352494399700,20.201399658203126,0.5976999998092651,0.34549999237060547,9.782299995422363
1683009352514402800,20.22140283203125,0.6049999594688416,0.31949999928474426,9.782699584960938
1683009352534401300,20.2414013671875,0.6204000115394592,0.26649999618530273,9.783299446105957
1683009352554402800,20.26140283203125,0.6456999778747559,0.19339999556541443,9.78339958190918
1683009352574402800,20.28140283203125,0.6704999804496765,0.11669999361038208,9.782999992370605
1683009352594399700,20.301399658203124,0.6765999794006348,0.051899999380111694,9.783100128173828
1683009352614401300,20.3214013671875,0.6649999618530273,0.004100000020116568,9.7839994430542
1683009352634399700,20.341399658203127,0.6596999764442444,-0.03219999745488167,9.784299850463867
1683009352654399700,20.361399658203126,0.6699999570846558,-0.06260000169277191,9.783499717712402
1683009352674401300,20.3814013671875,0.6908999681472778,-0.09099999815225601,9.78179931640625
1683009352694399700,20.401399658203125,0.7057999968528748,-0.1136000007390976,9.780499458312988
1683009352714399700,20.421399658203125,0.696399986743927,-0.1362999975681305,9.780900001525879
1683009352734402800,20.44140283203125,0.6694999933242798,-0.16769999265670776,9.782299995422363
1683009352754402800,20.46140283203125,0.6502999663352966,-0.2134999930858612,9.782699584960938
1683009352774399700,20.481399658203124,0.640500009059906,-0.25779998302459717,9.782299995422363
1683009352794399700,20.501399658203123,0.6305999755859375,-0.29569998383522034,9.78179931640625
1683009352814399700,20.521399658203126,0.6240999698638916,-0.3294999897480011,9.78119945526123
1683009352834401300,20.5414013671875,0.6207000017166138,-0.35929998755455017,9.78030014038086
1683009352854399700,20.561399658203126,0.6305999755859375,-0.385699987411499,9.77869987487793
1683009352874399700,20.581399658203125,0.6530999541282654,-0.4089999794960022,9.776299476623535
1683009352894401300,20.6014013671875,0.6863999962806702,-0.4193999767303467,9.773499488830566
1683009352914399700,20.621399658203124,0.7193999886512756,-0.41439998149871826,9.77139949798584
1683009352934399700,20.641399658203124,0.7387999892234802,-0.39229997992515564,9.770899772644043
1683009352954402800,20.66140283203125,0.7448999881744385,-0.36719998717308044,9.77139949798584
1683009352974399700,20.681399658203127,0.7440999746322632,-0.3409999907016754,9.77239990234375
1683009352994399700,20.701399658203126,0.7411999702453613,-0.31610000133514404,9.773399353027344
1683009353014402800,20.72140283203125,0.7305999994277954,-0.2856000065803528,9.775199890136719
1683009353034401300,20.7414013671875,0.6857999563217163,-0.26739999651908875,9.778900146484375
1683009353054399700,20.761399658203125,0.6288999915122986,-0.28529998660087585,9.782299995422363
1683009353074399700,20.781399658203124,0.5959999561309814,-0.3343999981880188,9.78279972076416
1683009353094402800,20.80140283203125,0.585599958896637,-0.382099986076355,9.781599998474121
1683009353114401300,20.8214013671875,0.5918999910354614,-0.39169999957084656,9.780900001525879
1683009353134399700,20.841399658203127,0.6186999678611755,-0.36399999260902405,9.78030014038086
1683009353154399700,20.861399658203126,0.659500002861023,-0.31369999051094055,9.779399871826172
1683009353174401300,20.8814013671875,0.7116000056266785,-0.2565999925136566,9.777400016784668
1683009353194399700,20.901399658203125,0.7534999847412109,-0.19679999351501465,9.775599479675293
1683009353214399700,20.921399658203125,0.7834999561309814,-0.14559999108314514,9.774199485778809
1683009353234399700,20.941399658203125,0.8170999884605408,-0.10369999706745148,9.771900177001953
1683009353254401300,20.9614013671875,0.8501999974250793,-0.0674000009894371,9.769399642944336
1683009353274399700,20.981399658203124,0.8817999958992004,-0.0414000004529953,9.766799926757812
1683009353294399700,21.001399658203123,0.9070000052452087,-0.03280000016093254,9.76449966430664
1683009353314399700,21.021399658203126,0.91239994764328,-0.038599997758865356,9.763999938964844
1683009353334401300,21.0414013671875,0.8996999859809875,-0.06439999490976334,9.764999389648438
1683009353354399700,21.061399658203126,0.8826999664306641,-0.10579999536275864,9.766200065612793
1683009353374399700,21.081399658203125,0.873699963092804,-0.15139999985694885,9.766399383544922
1683009353394399700,21.101399658203125,0.8689000010490417,-0.19449999928474426,9.76609992980957
1683009353414399700,21.121399658203124,0.8608999848365784,-0.22829999029636383,9.76609992980957
1683009353434399700,21.141399658203124,0.848800003528595,-0.2514999806880951,9.766599655151367
1683009353454399700,21.161399658203123,0.8378999829292297,-0.2660999894142151,9.767099380493164
1683009353474401300,21.1814013671875,0.8291999697685242,-0.2750000059604645,9.767600059509277
1683009353494399700,21.201399658203126,0.8208999633789062,-0.27649998664855957,9.76830005645752
1683009353514399700,21.221399658203126,0.8032999634742737,-0.2712000012397766,9.769899368286133
1683009353534401300,21.2414013671875,0.7883999943733215,-0.25839999318122864,9.77139949798584
1683009353554401300,21.2614013671875,0.7791000008583069,-0.2467999905347824,9.772500038146973
1683009353574399700,21.281399658203124,0.7712999582290649,-0.2393999993801117,9.773300170898438
1683009353594399700,21.301399658203124,0.7622999548912048,-0.23639999330043793,9.774099349975586
1683009353614401300,21.3214013671875,0.7577999830245972,-0.24069999158382416,9.774299621582031
1683009353634399700,21.341399658203127,0.7580999732017517,-0.24729999899864197,9.774099349975586
1683009353654399700,21.361399658203126,0.758899986743927,-0.25270000100135803,9.773900032043457
1683009353674401300,21.3814013671875,0.7667999863624573,-0.2611999809741974,9.773099899291992
1683009353694399700,21.401399658203125,0.7742999792098999,-0.27469998598098755,9.772099494934082
1683009353714399700,21.421399658203125,0.7741999626159668,-0.30539998412132263,9.771200180053711
1683009353734399700,21.441399658203125,0.7670999765396118,-0.3458999991416931,9.770400047302246
1683009353754401300,21.4614013671875,0.7519999742507935,-0.3889999985694885,9.769999504089355
1683009353774399700,21.481399658203124,0.7416999936103821,-0.43230000138282776,9.768899917602539
1683009353794399700,21.501399658203123,0.7476999759674072,-0.45579999685287476,9.767399787902832
1683009353814399700,21.521399658203126,0.7754999995231628,-0.44849997758865356,9.765600204467773
1683009353834399700,21.541399658203126,0.7981999516487122,-0.4235000014305115,9.764900207519531
1683009353854399700,21.561399658203126,0.7947999835014343,-0.40779998898506165,9.765799522399902
1683009353874399700,21.581399658203125,0.8050999641418457,-0.4092999994754791,9.764900207519531
1683009353894399700,21.601399658203125,0.8610999584197998,-0.3977999985218048,9.760600090026855
1683009353914399700,21.621399658203124,0.929099977016449,-0.3685999810695648,9.755499839782715
1683009353934399700,21.641399658203124,0.9985999464988708,-0.3522999882698059,9.749300003051758
1683009353954399700,21.661399658203123,1.0496000051498413,-0.357699990272522,9.74370002746582
1683009353974401300,21.6814013671875,1.0585999488830566,-0.382099986076355,9.741799354553223
1683009353994399700,21.701399658203126,1.0296000242233276,-0.41659998893737793,9.743499755859375
1683009354014399700,21.721399658203126,0.9947999715805054,-0.46449998021125793,9.74489974975586
1683009354034401300,21.7414013671875,0.9757999777793884,-0.5220000147819519,9.743999481201172
1683009354054399700,21.761399658203125,0.9637999534606934,-0.5752999782562256,9.74209976196289
1683009354074399700,21.781399658203124,0.9498999714851379,-0.6209999918937683,9.740699768066406
1683009354094399700,21.801399658203124,0.9296000003814697,-0.6571999788284302,9.740300178527832
1683009354114401300,21.8214013671875,0.9157999753952026,-0.6848999857902527,9.739699363708496
1683009354134399700,21.841399658203127,0.9039999842643738,-0.7124999761581421,9.738800048828125
1683009354154399700,21.861399658203126,0.88919997215271,-0.7432000041007996,9.737899780273438
1683009354174401300,21.8814013671875,0.8732999563217163,-0.7770999670028687,9.736700057983398
1683009354194399700,21.901399658203125,0.859499990940094,-0.8161999583244324,9.734700202941895
1683009354214399700,21.921399658203125,0.8560999631881714,-0.8509999513626099,9.731999397277832
1683009354234399700,21.941399658203125,0.8585999608039856,-0.8768999576568604,9.729499816894531
1683009354254401300,21.9614013671875,0.864799976348877,-0.8916999697685242,9.72760009765625
1683009354274399700,21.981399658203124,0.8761000037193298,-0.9007999897003174,9.725699424743652
1683009354294399700,22.001399658203123,0.8932999968528748,-0.9055999517440796,9.723699569702148
1683009354314399700,22.021399658203126,0.9194999933242798,-0.9020999670028687,9.721599578857422
1683009354334401300,22.0414013671875,0.9452999830245972,-0.8880999684333801,9.720399856567383
1683009354354399700,22.061399658203126,0.9605000019073486,-0.8659999966621399,9.72089958190918
1683009354374399700,22.081399658203125,0.9732999801635742,-0.8380999565124512,9.722099304199219
1683009354394399700,22.101399658203125,0.9746999740600586,-0.8136000037193298,9.724100112915039
1683009354414399700,22.121399658203124,0.9619999527931213,-0.8100000023841858,9.72559928894043
1683009354434399700,22.141399658203124,0.9404000043869019,-0.8161999583244324,9.72719955444336
1683009354454399700,22.161399658203123,0.9441999793052673,-0.8039999604225159,9.727899551391602
1683009354474401300,22.1814013671875,0.9648999571800232,-0.7587999701499939,9.729499816894531
1683009354494399700,22.201399658203126,1.0025999546051025,-0.6923999786376953,9.730599403381348
1683009354514399700,22.221399658203126,1.0288000106811523,-0.6311999559402466,9.731999397277832
1683009354534401300,22.2414013671875,1.0370999574661255,-0.5812999606132507,9.734299659729004
1683009354554399700,22.261399658203125,1.0489000082015991,-0.5381999611854553,9.735499382019043
1683009354574399700,22.281399658203124,1.055299997329712,-0.48669999837875366,9.737500190734863
1683009354594399700,22.301399658203124,1.077799916267395,-0.4377000033855438,9.73740005493164
1683009354614401300,22.3214013671875,1.1165000200271606,-0.40039998292922974,9.734600067138672
1683009354634399700,22.341399658203127,1.135200023651123,-0.36959999799728394,9.733699798583984
1683009354654399700,22.361399658203126,1.1273000240325928,-0.350600004196167,9.735300064086914
1683009354674401300,22.3814013671875,1.1101999282836914,-0.35089999437332153,9.737199783325195
1683009354694399700,22.401399658203125,1.0965999364852905,-0.37950000166893005,9.737699508666992
1683009354714399700,22.421399658203125,1.084299921989441,-0.43609997630119324,9.736700057983398
1683009354734399700,22.441399658203125,1.0650999546051025,-0.500499963760376,9.735699653625488
1683009354754401300,22.4614013671875,1.0202000141143799,-0.5605999827384949,9.737299919128418
1683009354774399700,22.481399658203124,0.9650999903678894,-0.6097999811172485,9.739899635314941
1683009354794399700,22.501399658203123,0.9226999878883362,-0.6468999981880188,9.741600036621094
1683009354814399700,22.521399658203126,0.8931999802589417,-0.6685999631881714,9.742899894714355
1683009354834399700,22.541399658203126,0.875499963760376,-0.673799991607666,9.744199752807617
1683009354854399700,22.561399658203126,0.8610000014305115,-0.6647999882698059,9.746099472045898
1683009354874399700,22.581399658203125,0.8471999764442444,-0.6510999798774719,9.748199462890625
1683009354894399700,22.601399658203125,0.8308999538421631,-0.6398000121116638,9.750399589538574
1683009354914399700,22.621399658203124,0.8137999773025513,-0.6304999589920044,9.752399444580078
1683009354934399700,22.641399658203124,0.7922999858856201,-0.6316999793052673,9.75409984588623
1683009354954399700,22.661399658203123,0.7698000073432922,-0.6507999897003174,9.754599571228027
1683009354974401300,22.6814013671875,0.7511999607086182,-0.6915000081062317,9.753299713134766
1683009354994399700,22.701399658203126,0.7443000078201294,-0.741599977016449,9.750100135803223
1683009355014399700,22.721399658203126,0.751800000667572,-0.7857999801635742,9.746099472045898
1683009355034401300,22.7414013671875,0.7468000054359436,-0.8197999596595764,9.74370002746582
1683009355054399700,22.761399658203125,0.7172999978065491,-0.8527999520301819,9.7431001663208
1683009355074399700,22.781399658203124,0.6651999950408936,-0.8878999948501587,9.743599891662598
1683009355094399700,22.801399658203124,0.5931999683380127,-0.8991999626159668,9.747200012207031
1683009355114401300,22.8214013671875,0.5403000116348267,-0.8799999952316284,9.752099990844727
1683009355134399700,22.841399658203127,0.5626999735832214,-0.8402999639511108,9.754300117492676
1683009355154399700,22.861399658203126,0.6274999976158142,-0.8034999966621399,9.753499984741211
1683009355174401300,22.8814013671875,0.6577999591827393,-0.8039999604225159,9.751399993896484
1683009355194399700,22.901399658203125,0.6468999981880188,-0.8308999538421631,9.749899864196777
1683009355214399700,22.921399658203125,0.6324999928474426,-0.8673999905586243,9.747699737548828
1683009355234399700,22.941399658203125,0.6292999982833862,-0.899899959564209,9.74489974975586
1683009355254401300,22.9614013671875,0.6520999670028687,-0.9185000061988831,9.741700172424316
1683009355274399700,22.981399658203124,0.6854999661445618,-0.9333999752998352,9.73799991607666
1683009355294399700,23.001399658203123,0.7221999764442444,-0.9510999917984009,9.733599662780762
1683009355314399700,23.021399658203126,0.7384999990463257,-0.9693999886512756,9.730599403381348
1683009355334401300,23.0414013671875,0.7269999980926514,-0.9910999536514282,9.729299545288086
1683009355354399700,23.061399658203126,0.704800009727478,-1.0204999446868896,9.727899551391602
1683009355374399700,23.081399658203125,0.6789000034332275,-1.0512999296188354,9.726399421691895
1683009355394399700,23.101399658203125,0.6592999696731567,-1.0784000158309937,9.724800109863281
1683009355414399700,23.121399658203124,0.6407999992370605,-1.0916999578475952,9.724599838256836
1683009355434399700,23.141399658203124,0.6301000118255615,-1.0920000076293945,9.725199699401855
1683009355454399700,23.161399658203123,0.6269999742507935,-1.0821999311447144,9.726499557495117
1683009355474401300,23.1814013671875,0.6284999847412109,-1.0715999603271484,9.72760009765625
1683009355494399700,23.201399658203126,0.6383000016212463,-1.0672999620437622,9.727399826049805
1683009355514399700,23.221399658203126,0.6578999757766724,-1.06659996509552,9.726200103759766
1683009355534399700,23.241399658203125,0.6870999932289124,-1.0673999786376953,9.724100112915039
1683009355554399700,23.261399658203125,0.715999960899353,-1.0672999620437622,9.722000122070312
1683009355574399700,23.281399658203124,0.736299991607666,-1.0652999877929688,9.720699310302734
1683009355594399700,23.301399658203124,0.7563999891281128,-1.0608999729156494,9.71969985961914
1683009355614401300,23.3214013671875,0.7842999696731567,-1.051200032234192,9.718500137329102
1683009355634399700,23.341399658203127,0.8226000070571899,-1.0293999910354614,9.717700004577637
1683009355654399700,23.361399658203126,0.8641999959945679,-0.9950999617576599,9.717599868774414
1683009355674399700,23.381399658203126,0.9023000001907349,-0.9539999961853027,9.718299865722656
1683009355694399700,23.401399658203125,0.9301999807357788,-0.9106000065803528,9.719799995422363
1683009355714399700,23.421399658203125,0.9459999799728394,-0.882599949836731,9.72089958190918
1683009355734402800,23.44140283203125,0.9603999853134155,-0.8743999600410461,9.720199584960938
1683009355754401300,23.4614013671875,0.9684999585151672,-0.8786999583244324,9.718999862670898
1683009355774399700,23.481399658203124,0.9770999550819397,-0.8823999762535095,9.71780014038086
1683009355794399700,23.501399658203123,0.9753999710083008,-0.8833000063896179,9.717899322509766
1683009355814399700,23.521399658203126,0.963699996471405,-0.8833999633789062,9.719099998474121
1683009355834399700,23.541399658203126,0.9536999464035034,-0.8896999955177307,9.719499588012695
1683009355854399700,23.561399658203126,0.9438999891281128,-0.8940999507904053,9.719999313354492
1683009355874399700,23.581399658203125,0.9375999569892883,-0.8890999555587769,9.721099853515625
1683009355894399700,23.601399658203125,0.9381999969482422,-0.8779000043869019,9.722099304199219
1683009355914399700,23.621399658203124,0.9409999847412109,-0.8618999719619751,9.723199844360352
1683009355934399700,23.641399658203124,0.937999963760376,-0.8417999744415283,9.725299835205078
1683009355954399700,23.661399658203123,0.9328999519348145,-0.8161999583244324,9.727899551391602
1683009355974401300,23.6814013671875,0.9235000014305115,-0.788599967956543,9.731100082397461
1683009355994399700,23.701399658203126,0.914199948310852,-0.76419997215271,9.73390007019043
1683009356014399700,23.721399658203126,0.91239994764328,-0.7430999875068665,9.735699653625488
1683009356034401300,23.7414013671875,0.9139999747276306,-0.7263999581336975,9.736899375915527
1683009356054399700,23.761399658203125,0.9145999550819397,-0.7251999974250793,9.736899375915527
1683009356074399700,23.781399658203124,0.9072999954223633,-0.7548999786376953,9.735300064086914
1683009356094399700,23.801399658203124,0.8883999586105347,-0.8093999624252319,9.732699394226074
1683009356114401300,23.8214013671875,0.8538999557495117,-0.8816999793052673,9.729499816894531
1683009356134399700,23.841399658203127,0.8136999607086182,-0.9619999527931213,9.725299835205078
1683009356154399700,23.861399658203126,0.7749999761581421,-1.0356999635696411,9.72089958190918
1683009356174399700,23.881399658203126,0.7466999888420105,-1.0997999906539917,9.716099739074707
1683009356194399700,23.901399658203125,0.733299970626831,-1.1574000120162964,9.710399627685547
1683009356214399700,23.921399658203125,0.7253999710083008,-1.2098000049591064,9.704599380493164
1683009356234399700,23.941399658203125,0.7132999897003174,-1.2551000118255615,9.699799537658691
1683009356254401300,23.9614013671875,0.7033999562263489,-1.2888000011444092,9.696099281311035
1683009356274399700,23.981399658203124,0.6890999674797058,-1.313499927520752,9.69379997253418
1683009356294399700,24.001399658203123,0.6663999557495117,-1.3335999250411987,9.692599296569824
1683009356314399700,24.021399658203126,0.6376999616622925,-1.348699927330017,9.692399978637695
1683009356334401300,24.0414013671875,0.6105999946594238,-1.3607999086380005,9.692500114440918
1683009356354399700,24.061399658203126,0.5888000130653381,-1.368299961090088,9.69279956817627
1683009356374399700,24.081399658203125,0.5687999725341797,-1.358799934387207,9.695300102233887
1683009356394399700,24.101399658203125,0.555400013923645,-1.3259999752044678,9.700599670410156
1683009356414399700,24.121399658203124,0.538599967956543,-1.2740999460220337,9.708499908447266
1683009356434399700,24.141399658203124,0.5103999972343445,-1.2142999172210693,9.717700004577637
1683009356454399700,24.161399658203123,0.49539998173713684,-1.1620999574661255,9.724899291992188
1683009356474401300,24.1814013671875,0.5105999708175659,-1.1116999387741089,9.729999542236328
1683009356494399700,24.201399658203126,0.5342000126838684,-1.073799967765808,9.732999801635742
1683009356514399700,24.221399658203126,0.5525000095367432,-1.0662999153137207,9.732799530029297
1683009356534401300,24.2414013671875,0.5547999739646912,-1.0871000289916992,9.730400085449219
1683009356554401300,24.2614013671875,0.5562999844551086,-1.1069999933242798,9.727999687194824
1683009356574399700,24.281399658203124,0.5550000071525574,-1.097999930381775,9.729100227355957
1683009356594399700,24.301399658203124,0.5455999970436096,-1.0597000122070312,9.73390007019043
1683009356614401300,24.3214013671875,0.5288000106811523,-1.0144000053405762,9.73960018157959
1683009356634399700,24.341399658203127,0.5072000026702881,-0.964199960231781,9.74590015411377
1683009356654399700,24.361399658203126,0.47909998893737793,-0.8987999558448792,9.753600120544434
1683009356674399700,24.381399658203126,0.45409998297691345,-0.8259999752044678,9.761199951171875
1683009356694399700,24.401399658203125,0.44579997658729553,-0.7616999745368958,9.766799926757812
1683009356714399700,24.421399658203125,0.4544000029563904,-0.7152000069618225,9.769899368286133
1683009356734399700,24.441399658203125,0.4668999910354614,-0.684499979019165,9.771499633789062
1683009356754401300,24.4614013671875,0.4708999991416931,-0.6603999733924866,9.77299976348877
1683009356774399700,24.481399658203124,0.4693000018596649,-0.6351000070571899,9.774700164794922
1683009356794399700,24.501399658203123,0.46629998087882996,-0.6100999712944031,9.77649974822998
1683009356814399700,24.521399658203126,0.46050000190734863,-0.5935999751091003,9.777799606323242
1683009356834399700,24.541399658203126,0.44609999656677246,-0.5938000082969666,9.778399467468262
1683009356854399700,24.561399658203126,0.42319998145103455,-0.6067000031471252,9.77869987487793
1683009356874399700,24.581399658203125,0.3955000042915344,-0.630299985408783,9.778299331665039
1683009356894399700,24.601399658203125,0.375,-0.6620000004768372,9.776999473571777
1683009356914399700,24.621399658203124,0.3642999827861786,-0.6967999935150146,9.774999618530273
1683009356934399700,24.641399658203124,0.3650999963283539,-0.7337999939918518,9.772299766540527
1683009356954399700,24.661399658203123,0.36879998445510864,-0.7754999995231628,9.768899917602539
1683009356974401300,24.6814013671875,0.36479997634887695,-0.8154999613761902,9.765799522399902
1683009356994399700,24.701399658203126,0.35439997911453247,-0.8496999740600586,9.763299942016602
1683009357014399700,24.721399658203126,0.3452000021934509,-0.8800999522209167,9.760899543762207
1683009357034401300,24.7414013671875,0.34389999508857727,-0.9084999561309814,9.758399963378906
1683009357054399700,24.761399658203125,0.3449999988079071,-0.9426999688148499,9.755099296569824
1683009357074402800,24.78140283203125,0.3482999801635742,-0.9842000007629395,9.750899314880371
1683009357094399700,24.801399658203124,0.3628999888896942,-1.0175999402999878,9.746899604797363
1683009357114401300,24.8214013671875,0.40199998021125793,-1.0275999307632446,9.74429988861084
1683009357134399700,24.841399658203127,0.4562999904155731,-1.0016000270843506,9.744599342346191
1683009357154399700,24.861399658203126,0.5169999599456787,-0.9574999809265137,9.745999336242676
1683009357174399700,24.881399658203126,0.5518999695777893,-0.9301999807357788,9.74679946899414
1683009357194399700,24.901399658203125,0.6046000123023987,-0.9391999840736389,9.742799758911133
1683009357214399700,24.921399658203125,0.6815999746322632,-0.9407999515533447,9.737500190734863
1683009357234399700,24.941399658203125,0.7468000054359436,-0.9199999570846558,9.734700202941895
1683009357254401300,24.9614013671875,0.8034999966621399,-0.8970999717712402,9.732399940490723
1683009357274399700,24.981399658203124,0.8452000021934509,-0.885699987411499,9.729899406433105
1683009357294399700,25.001399658203123,0.8517999649047852,-0.8999999761581421,9.727999687194824
1683009357314402800,25.02140283203125,0.8345999717712402,-0.9333999752998352,9.726299285888672
1683009357334401300,25.0414013671875,0.802299976348877,-0.965999960899353,9.725899696350098
1683009357354399700,25.061399658203126,0.7809000015258789,-0.9799999594688416,9.726200103759766
1683009357374402800,25.08140283203125,0.7874000072479248,-0.9581999778747559,9.727799415588379
1683009357394402800,25.10140283203125,0.8199999928474426,-0.911899983882904,9.729599952697754
1683009357414402800,25.12140283203125,0.873699963092804,-0.8580999970436096,9.7298002243042
1683009357434402800,25.14140283203125,0.9232999682426453,-0.8024999499320984,9.729999542236328
1683009357454402800,25.16140283203125,0.9672999978065491,-0.7486000061035156,9.729999542236328
1683009357474402800,25.18140283203125,0.9979999661445618,-0.7109999656677246,9.729700088500977
1683009357494402800,25.20140283203125,1.0092999935150146,-0.6980999708175659,9.729499816894531
1683009357514402800,25.22140283203125,1.003999948501587,-0.7053999900817871,9.729499816894531
1683009357534402800,25.24140283203125,0.986799955368042,-0.7196999788284302,9.730199813842773
