time,seconds_elapsed,z,y,x,,z,y,x,,,t,z,y,x
1.68301E+18,0.041402832,-0.902199984,-0.0211,0.736599982,,1.09829998,-0.733900011,9.717199326,,,1,0.196099997,-0.75500001,10.45379931
1.68301E+18,0.061399658,-0.902199984,-0.0211,0.736599982,,1.09829998,-0.733900011,9.717199326,,,2,0.196099997,-0.75500001,10.45379931
1.68301E+18,0.081406006,-0.902199984,-0.0211,0.736599982,,1.09829998,-0.733900011,9.717199326,,,3,0.196099997,-0.75500001,10.45379931
1.68301E+18,0.101399658,0.050699998,-0.031199999,0.297999978,,1.635999918,-1.00819993,9.616499901,,,4,1.686699916,-1.039399929,9.914499879
1.68301E+18,0.121399658,0.166899994,-0.186099991,0.34739998,,1.637399912,-1.010200024,9.616000175,,,5,1.804299906,-1.196300015,9.963400155
1.68301E+18,0.141399658,0.158399999,0.0083,0.133000001,,1.645999908,-1.008599997,9.614699364,,,6,1.804399908,-1.000299997,9.747699365
1.68301E+18,0.161401367,-0.013599999,0.073799998,0.101499997,,1.641499996,-0.995700002,9.616799355,,,7,1.627899997,-0.921900004,9.718299352
1.68301E+18,0.181399658,-0.222899988,0.038599998,0.214099988,,1.615499973,-0.989899993,9.621799469,,,8,1.392599985,-0.951299995,9.835899457
1.68301E+18,0.201399658,-0.234099999,-0.113199994,0.378299981,,1.597199917,-0.994799972,9.624400139,,,9,1.363099918,-1.107999966,10.00270012
1.68301E+18,0.221399658,0.0308,-0.067999996,0.192599997,,1.597000003,-1.000800014,9.623799324,,,10,1.627800003,-1.06880001,9.816399321
1.68301E+18,0.241399658,0.023499999,0.0458,-0.042199999,,1.614099979,-0.977400005,9.623299599,,,11,1.637599979,-0.931600004,9.5810996
1.68301E+18,0.261399658,0.084600002,0.0999,-0.087299995,,1.53339994,-0.953099966,9.638999939,,,12,1.617999941,-0.853199966,9.551699944
1.68301E+18,0.281399658,-0.015799999,0.045199998,0.0188,,1.516199946,-0.859200001,9.650499344,,,13,1.500399947,-0.814000003,9.669299344
1.68301E+18,0.301399658,-0.080299996,0.080600001,0.189400002,,1.502299905,-0.816100001,9.656399727,,,14,1.421999909,-0.7355,9.845799729
1.68301E+18,0.321399658,0.058699999,0.028999999,0.31309998,,1.500399947,-0.774299979,9.660099983,,,15,1.559099946,-0.74529998,9.973199964
1.68301E+18,0.341399658,0.091299996,-0.060399998,0.171399996,,1.497200012,-0.724099994,9.664499283,,,16,1.588500008,-0.784499992,9.835899279
1.68301E+18,0.361399658,0.2086,0.138400003,-0.145400003,,1.507399917,-0.658100009,9.667699814,,,17,1.715999916,-0.519700006,9.522299811
1.68301E+18,0.381401367,0.061999999,0.224199995,-0.363299996,,1.526600003,-0.577199996,9.669799805,,,18,1.588600002,-0.353,9.306499809
1.68301E+18,0.401399658,-0.1391,0.255099982,-0.13499999,,1.511999965,-0.490399987,9.67689991,,,19,1.372899964,-0.235300004,9.54189992
1.68301E+18,0.421399658,0.198499992,-0.0027,0.671999991,,1.478399992,-0.458099991,9.683699608,,,20,1.676899984,-0.460799991,10.3556996
1.68301E+18,0.441399658,-0.212399989,0.066199996,0.290600002,,1.42839992,-0.42899999,9.692500114,,,21,1.215999931,-0.362799995,9.983100116
1.68301E+18,0.461399658,-0.142499998,0.136699989,-0.0132,,1.378099918,-0.371999979,9.7020998,,,22,1.23559992,-0.23529999,9.6888998
1.68301E+18,0.481399658,-0.072999999,-0.057099998,0.144899994,,1.338099957,-0.285999984,9.710700035,,,23,1.265099958,-0.343099982,9.855600029
1.68301E+18,0.501399658,0.055599999,-0.055199999,0.263399988,,1.287799954,-0.199599996,9.719599724,,,24,1.343399953,-0.254799996,9.982999712
1.68301E+18,0.521399658,0.167499989,0.117799997,0.450399995,,1.225000024,-0.137400001,9.72879982,,,25,1.392500013,-0.019600004,10.17919981
1.68301E+18,0.541399658,0.2667,0.208099991,0.443800002,,1.174799919,-0.109999999,9.7354002,,,26,1.441499919,0.098099992,10.1792002
1.68301E+18,0.561399658,0.195599988,0.502099991,0.625800014,,1.138000011,-0.109799996,9.739699364,,,27,1.3336,0.392299995,10.36549938
1.68301E+18,0.581399658,0.220299989,0.587499976,0.768000007,,1.093699932,-0.126599997,9.744599342,,,28,1.313999921,0.460899979,10.51259935
1.68301E+18,0.601399658,0.357799977,0.567900002,0.864199996,,1.073799968,-0.146200001,9.746500015,,,29,1.431599945,0.421700001,10.61070001
1.68301E+18,0.621399658,0.184399992,0.40989998,0.664599955,,1.041299939,-0.154899999,9.749899864,,,30,1.225699931,0.25499998,10.41449982
1.68301E+18,0.641399658,0.0254,0.32099998,0.612699986,,1.013999939,-0.154200003,9.752799988,,,31,1.039399939,0.166799977,10.36549997
1.68301E+18,0.661399658,-0.33829999,0.264400005,0.0126,,0.995399952,-0.156499997,9.754699707,,,32,0.657099962,0.107900009,9.767299707
1.68301E+18,0.681399658,-0.240199998,0.129799992,-0.730300009,,1.014899969,-0.169,9.75249958,,,33,0.774699971,-0.039200008,9.022199571
1.68301E+18,0.701399658,-0.429199994,0.071800001,-1.089399934,,1.046999931,-0.189499989,9.748700142,,,34,0.617799938,-0.117699988,8.659300208
1.68301E+18,0.721399658,-0.552299976,0.096099995,-0.969599962,,1.062299967,-0.213799998,9.746500015,,,35,0.50999999,-0.117700003,8.776900053
1.68301E+18,0.741399658,-0.274899989,0.077,-1.056399941,,1.06919992,-0.243699998,9.745100021,,,36,0.79429993,-0.166699998,8.68870008
1.68301E+18,0.761399658,-0.135499999,0.106299996,-0.868399978,,1.077000022,-0.273000002,9.743499756,,,37,0.941500023,-0.166700006,8.875099778
1.68301E+18,0.781399658,-0.210599989,0.357499987,-0.741899967,,1.063799977,-0.288800001,9.744400024,,,38,0.853199989,0.068699986,9.002500057
1.68301E+18,0.801399658,-1.023199916,0.573799968,-0.713099957,,1.052600026,-0.309100002,9.744999886,,,39,0.02940011,0.264699966,9.031899929
1.68301E+18,0.821399658,0.173799992,0.730399966,-0.672299981,,1.061699986,-0.328299999,9.74339962,,,40,1.235499978,0.402099967,9.071099639
1.68301E+18,0.841399658,-0.136299998,0.538599968,-0.700199962,,1.067999959,-0.352200001,9.74189949,,,41,0.931699961,0.186399966,9.041699529
1.68301E+18,0.861399658,0.157099992,0.495099992,-0.620700002,,1.068599939,-0.377399981,9.74090004,,,42,1.225699931,0.117700011,9.120200038
1.68301E+18,0.881399658,0.224099994,0.409099996,-0.568799973,,1.089900017,-0.389499992,9.737999916,,,43,1.31400001,0.019600004,9.169199944
1.68301E+18,0.901399658,-0.289900005,0.621299982,-1.109399915,,1.084200025,-0.376100004,9.739199638,,,44,0.79430002,0.245199978,8.629799724
1.68301E+18,0.921399658,-0.615099967,0.953499973,-1.886099935,,1.076099992,-0.345499992,9.741299629,,,45,0.461000025,0.60799998,7.855199695
1.68301E+18,0.941399658,-1.10439992,0.961999953,-2.485199928,,1.074999928,-0.324599981,9.742099762,,,46,-0.029399991,0.637399971,7.256899834
1.68301E+18,0.961399658,-1.07889998,0.830799997,-2.328299999,,1.07889998,-0.31099999,9.742099762,,,47,0,0.519800007,7.413799763
1.68301E+18,0.981399658,-1.192099929,0.580599964,-2.230099916,,1.084200025,-0.296200007,9.741999626,,,48,-0.107899904,0.284399956,7.51189971
1.68301E+18,1.001399658,-0.92689997,0.328599989,-1.896099925,,1.093699932,-0.279599994,9.741399765,,,49,0.166799963,0.048999995,7.84529984
1.68301E+18,1.021399658,-0.667999983,0.272599995,-1.180799961,,1.089699984,-0.272599995,9.742099762,,,50,0.421700001,0,8.561299801
1.68301E+18,1.041399658,-0.534200013,0.263699979,-0.839399993,,1.073499918,-0.273499995,9.743800163,,,51,0.539299905,-0.009800017,8.90440017
1.68301E+18,1.061399658,-0.381099999,0.412699997,-1.037199974,,1.057699919,-0.275399983,9.745499611,,,52,0.67659992,0.137300014,8.708299637
1.68301E+18,1.081399658,-0.248899996,0.473799974,-1.126899958,,1.043300033,-0.277700007,9.746999741,,,53,0.794400036,0.196099967,8.620099783
1.68301E+18,1.101399658,-0.130199999,0.286599994,-0.803200006,,1.042199969,-0.286599994,9.746799469,,,54,0.911999971,0,8.943599463
1.68301E+18,1.121399658,0.125200003,-0.093399994,0.089099996,,1.041700006,-0.288899988,9.746799469,,,55,1.166900009,-0.382299982,9.835899465
1.68301E+18,1.141399658,0.388999999,-0.556299984,1.636899948,,1.023000002,-0.296700001,9.748600006,,,56,1.412,-0.852999985,11.38549995
1.68301E+18,1.161401367,0.623899996,-0.744799972,3.174399853,,0.994099975,-0.324000001,9.750699997,,,57,1.617999971,-1.068799973,12.92509985
1.68301E+18,1.181399658,0.861399949,-0.777399957,4.270800114,,0.962499976,-0.359999985,9.752599716,,,58,1.823899925,-1.137399942,14.02339983
1.68301E+18,1.201399658,0.924799979,-0.4454,3.759199858,,0.938299954,-0.378199995,9.754300117,,,59,1.863099933,-0.823599994,13.51349998
1.68301E+18,1.221399658,1.11619997,-0.539099991,2.631700039,,0.943099976,-0.372799993,9.75399971,,,60,2.059299946,-0.911899984,12.38569975
1.68301E+18,1.241401367,1.387499928,-0.953599989,2.202199936,,0.975799978,-0.340799987,9.751999855,,,61,2.363299906,-1.294399977,11.95419979
1.68301E+18,1.261399658,1.497799993,-1.524299979,2.557699919,,1.012599945,-0.299600005,9.749599457,,,62,2.510399938,-1.823899984,12.30729938
1.68301E+18,1.281399658,1.050499916,-1.720099926,2.99000001,,1.028399944,-0.270500004,9.748799324,,,63,2.07889986,-1.99059993,12.73879933
1.68301E+18,1.301399658,1.217399955,-1.666799903,2.48059988,,1.037999988,-0.255199999,9.748199463,,,64,2.255399942,-1.921999902,12.22879934
1.68301E+18,1.321399658,1.274500012,-1.424399972,1.874599934,,1.059399962,-0.242599994,9.746199608,,,65,2.333899975,-1.666999966,11.62079954
1.68301E+18,1.341399658,0.845200002,-1.389099956,1.259699941,,1.086699963,-0.238699988,9.743299484,,,66,1.931899965,-1.627799943,11.00299942
1.68301E+18,1.361399658,0.510899961,-1.128000021,0.596199989,,1.116899967,-0.234999999,9.739999771,,,67,1.627799928,-1.36300002,10.33619976
1.68301E+18,1.381401367,0.512699962,-0.879799962,0.165699989,,1.124899983,-0.238099992,9.738900185,,,68,1.637599945,-1.117899954,9.904600173
1.68301E+18,1.401399658,0.653999984,-0.844500005,-0.342199981,,1.140599966,-0.243999988,9.736999512,,,69,1.79459995,-1.088499993,9.394799531
1.68301E+18,1.421399658,0.936399996,-0.819999993,-0.485499978,,1.171999931,-0.248899996,9.733099937,,,70,2.108399928,-1.068899989,9.247599959
1.68301E+18,1.441399658,1.028800011,-0.598899961,-0.539600015,,1.207000017,-0.263999999,9.728499413,,,71,2.235800028,-0.862899959,9.188899398
1.68301E+18,1.461401367,0.748699963,-0.465899974,-0.779999971,,1.241999984,-0.279300004,9.723599434,,,72,1.990699947,-0.745199978,8.943599463
1.68301E+18,1.481399658,0.276299983,-0.414499998,-0.806299984,,1.263199925,-0.291500002,9.720499992,,,73,1.539499909,-0.706,8.914200008
1.68301E+18,1.501399658,-0.108099997,-0.324799985,-1.205500007,,1.28489995,-0.292999983,9.717599869,,,74,1.176799953,-0.617799968,8.512099862
1.68301E+18,1.521401367,-0.297099978,-0.3495,-1.261500001,,1.307199955,-0.287799984,9.714799881,,,75,1.010099977,-0.637299985,8.45329988
1.68301E+18,1.541399658,-0.2245,-0.353799999,-1.328099966,,1.322899938,-0.283499986,9.712800026,,,76,1.098399937,-0.637299985,8.38470006
1.68301E+18,1.561399658,-0.253899992,-0.232299998,-1.474099994,,1.332599998,-0.277500004,9.711699486,,,77,1.078700006,-0.509800002,8.237599492
1.68301E+18,1.581399658,-0.240699992,-0.063599996,-1.58099997,,1.339100003,-0.279500008,9.710700035,,,78,1.098400012,-0.343100004,8.129700065
1.68301E+18,1.601399658,-0.520399988,0.073600002,-1.460999966,,1.353999972,-0.289299995,9.708399773,,,79,0.833599985,-0.215699993,8.247399807
1.68301E+18,1.621399658,-0.649699986,0.288800001,-1.663599968,,1.375399947,-0.298599988,9.70510006,,,80,0.725699961,-0.009799987,8.041500092
1.68301E+18,1.641399658,-0.714299977,0.269800007,-2.030900002,,1.41049993,-0.308999985,9.699699402,,,81,0.696199954,-0.039199978,7.6687994
1.68301E+18,1.661401367,-0.539699972,0.031199999,-1.939299941,,1.432099938,-0.315599978,9.696299553,,,82,0.892399967,-0.284399979,7.756999612
1.68301E+18,1.681399658,-0.299499989,-0.329699993,-1.802599907,,1.42719996,-0.317499995,9.69699955,,,83,1.127699971,-0.647199988,7.894399643
1.68301E+18,1.701399658,-0.23179999,-0.316899985,-1.618899941,,1.408599973,-0.3204,9.69960022,,,84,1.176799983,-0.637299985,8.080700278
1.68301E+18,1.721399658,-0.201499999,0.0056,-0.767699957,,1.388099909,-0.348800004,9.701600075,,,85,1.18659991,-0.343200004,8.933900118
1.68301E+18,1.741401367,-0.695199966,0.382099986,-0.493399978,,1.371799946,-0.40169999,9.701899529,,,86,0.676599979,-0.019600004,9.208499551
1.68301E+18,1.761399658,-0.775399983,0.451599985,-0.621699989,,1.353999972,-0.441799998,9.702599525,,,87,0.578599989,0.009799987,9.080899537
1.68301E+18,1.781399658,-0.306999981,0.408099979,-0.173099995,,1.326900005,-0.466899991,9.705200195,,,88,1.019900024,-0.058800012,9.532100201
1.68301E+18,1.801399658,0.574599981,0.226399988,0.932299972,,1.298299909,-0.4912,9.707799911,,,89,1.87289989,-0.264800012,10.64009988
1.68301E+18,1.821401367,1.16079998,-0.197399989,1.988699913,,1.271099925,-0.50849998,9.710599899,,,90,2.431899905,-0.705899969,11.69929981
1.68301E+18,1.841399658,1.061100006,-0.493699998,2.504699945,,1.243399978,-0.506500006,9.714300156,,,91,2.304499984,-1.000200003,12.2190001
1.68301E+18,1.861399658,0.659799993,-0.632499993,2.130100012,,1.23269999,-0.495199978,9.716199875,,,92,1.892499983,-1.127699971,11.84629989
1.68301E+18,1.881401367,0.243299991,-0.798199952,1.503399968,,1.247200012,-0.476599991,9.715299606,,,93,1.490500003,-1.274799943,11.21869957
1.68301E+18,1.901399658,0.35709998,-1.46420002,1.907599926,,1.270699978,-0.457800001,9.71309948,,,94,1.627799958,-1.922000021,11.62069941
1.68301E+18,1.921399658,1.305199981,-2.21329999,4.034599781,,1.264099956,-0.453999996,9.71420002,,,95,2.569299936,-2.667299986,13.7487998
1.68301E+18,1.941399658,2.221999884,-1.814099908,5.44119978,,1.210199952,-0.480499983,9.719799995,,,96,3.432199836,-2.294599891,15.16099977
1.68301E+18,1.961401367,2.361299992,-0.878999949,4.351599693,,1.178799987,-0.533100009,9.720899582,,,97,3.540099978,-1.412099957,14.07249928
1.68301E+18,1.981399658,1.225399971,-0.491999984,1.925499916,,1.216400027,-0.557200015,9.714900017,,,98,2.441799998,-1.049199998,11.64039993
1.68301E+18,2.001399658,-0.075099997,-0.558399975,0.217999995,,1.291199923,-0.539900005,9.706199646,,,99,1.216099925,-1.09829998,9.924199641
1.68301E+18,2.021401367,-0.954999983,-0.995499969,-0.225400001,,1.35710001,-0.514599979,9.698599815,,,100,0.402100027,-1.510099947,9.473199815
1.68301E+18,2.041399658,-1.184399962,-1.359799981,-0.350600004,,1.380499959,-0.493599981,9.696399689,,,101,0.196099997,-1.853399962,9.345799685
1.68301E+18,2.061399658,-0.454299986,-1.4375,-0.155100003,,1.376099944,-0.494299978,9.69699955,,,102,0.921799958,-1.931799978,9.541899547
1.68301E+18,2.081399658,0.736899972,-1.066699982,0.109499998,,1.361599922,-0.531700015,9.69699955,,,103,2.098499894,-1.598399997,9.806499548
1.68301E+18,2.101399658,1.397599936,-0.650699973,-0.0049,,1.357900023,-0.594599962,9.693900108,,,104,2.755499959,-1.245299935,9.689000108
1.68301E+18,2.121399658,1.256099939,-0.296000004,-0.186099991,,1.362200022,-0.664999962,9.688699722,,,105,2.618299961,-0.960999966,9.502599731
1.68301E+18,2.141399658,0.394999981,-0.0029,-0.533100009,,1.370100021,-0.732499957,9.682700157,,,106,1.765100002,-0.735399957,9.149600148
1.68301E+18,2.161401367,-0.447599977,0.226999998,-0.526799977,,1.379199982,-0.795799971,9.676499367,,,107,0.931600004,-0.568799973,9.14969939
1.68301E+18,2.181399658,-0.922299981,0.475400001,-0.342999995,,1.393000007,-0.857899964,9.669199944,,,108,0.470700026,-0.382499963,9.326199949
1.68301E+18,2.201399658,-1.406399965,0.591199994,-0.285400003,,1.416199923,-0.914799988,9.660599709,,,109,0.009799957,-0.323599994,9.375199705
1.68301E+18,2.221399658,-1.398899913,0.786399961,-0.570199966,,1.447899938,-0.962899983,9.651199341,,,110,0.049000025,-0.176500022,9.080999374
1.68301E+18,2.241399658,-1.225899935,0.882699966,-0.904599965,,1.48089993,-1.000399947,9.642399788,,,111,0.254999995,-0.117699981,8.737799823
1.68301E+18,2.261399658,-1.229900002,0.956200004,-1.269500017,,1.514299989,-1.02489996,9.634599686,,,112,0.284399986,-0.068699956,8.365099669
1.68301E+18,2.281399658,-1.67019999,0.977799952,-1.723099947,,1.552599907,-1.036599994,9.627299309,,,113,-0.117600083,-0.058800042,7.904199362
1.68301E+18,2.301401367,-2.348799944,0.881099999,-2.27519989,,1.593699932,-1.038100004,9.620399475,,,114,-0.755100012,-0.157000005,7.345199585
1.68301E+18,2.321399658,-2.486099958,0.628099978,-3.075299978,,1.623099923,-1.030200005,9.616299629,,,115,-0.863000035,-0.402100027,6.540999651
1.68301E+18,2.341399658,-2.362499952,0.463999987,-3.026299953,,1.626999974,-1.023000002,9.616399765,,,116,-0.735499978,-0.559000015,6.590099812
1.68301E+18,2.361399658,-1.994699955,0.372399986,-1.833400011,,1.602399945,-1.029399991,9.61989975,,,117,-0.39230001,-0.657000005,7.786499739
1.68301E+18,2.381401367,-1.132799983,0.154299989,-0.419999987,,1.544699907,-1.036899924,9.628499985,,,118,0.411899924,-0.882599935,9.208499998
1.68301E+18,2.401399658,0.610899985,-0.0033,0.607299984,,1.467999935,-1.036199927,9.640600204,,,119,2.07889992,-1.039499927,10.24790019
1.68301E+18,2.421399658,1.932500005,0.0134,0.675899982,,1.411399961,-1.023499966,9.650400162,,,120,3.343899965,-1.010099966,10.32630014
1.68301E+18,2.441399658,1.244199991,0.282299995,-0.583000004,,1.403499961,-0.998099983,9.6541996,,,121,2.647699952,-0.715799987,9.071199596
1.68301E+18,2.461401367,-0.125100002,0.49149999,-1.465499997,,1.429399967,-0.962300003,9.653999329,,,122,1.304299966,-0.470800012,8.188499331
1.68301E+18,2.481399658,-0.975999951,0.394999981,-1.11500001,,1.43690002,-0.924499989,9.656599998,,,123,0.460900068,-0.529500008,8.541599989
1.68301E+18,2.501399658,-0.638700008,0.064099997,0.057099998,,1.423200011,-0.897699952,9.66119957,,,124,0.784500003,-0.833599955,9.718299568
1.68301E+18,2.521401367,0.647099972,-0.353799999,1.358299971,,1.412099957,-0.881799996,9.664199829,,,125,2.059199929,-1.235599995,11.0224998
1.68301E+18,2.541399658,1.588999987,-0.436800003,2.825999975,,1.392099977,-0.877200007,9.667599678,,,126,2.981099963,-1.31400001,12.49359965
1.68301E+18,2.561399658,1.61559999,0.074000001,3.480199814,,1.365499973,-0.887999952,9.670399666,,,127,2.981099963,-0.813999951,13.15059948
1.68301E+18,2.581399658,1.429199934,0.358399987,3.79219985,,1.345999956,-0.897799969,9.672200203,,,128,2.77519989,-0.539399981,13.46440005
1.68301E+18,2.601399658,1.194399953,0.277999997,3.62349987,,1.345399976,-0.876199961,9.674300194,,,129,2.539799929,-0.598199964,13.29780006
1.68301E+18,2.621399658,0.8574,-0.325499982,2.982899904,,1.368600011,-0.802100003,9.677399635,,,130,2.226000011,-1.127599984,12.66029954
1.68301E+18,2.641399658,0.846099973,-1.162199974,2.49119997,,1.419199944,-0.691199958,9.678699493,,,131,2.265299916,-1.853399932,12.16989946
1.68301E+18,2.661401367,0.957899988,-1.911399961,2.07130003,,1.483899951,-0.569499969,9.67689991,,,132,2.441799939,-2.48089993,11.74819994
1.68301E+18,2.681399658,0.931699991,-2.037499905,1.799799919,,1.539499998,-0.463099986,9.673899651,,,133,2.471199989,-2.500599891,11.47369957
1.68301E+18,2.701399658,0.550799966,-1.692899942,0.988499999,,1.577099919,-0.385999978,9.671199799,,,134,2.127899885,-2.07889992,10.6596998
1.68301E+18,2.721399658,0.0037,-1.524500012,-0.14819999,,1.594699979,-0.32889998,9.670499802,,,135,1.598399979,-1.853399992,9.522299811
1.68301E+18,2.741401367,-0.191399992,-1.503299952,-0.823300004,,1.613399982,-0.281399995,9.668899536,,,136,1.421999991,-1.784699947,8.845599532
1.68301E+18,2.761399658,-0.044499997,-1.403999925,-0.214099988,,1.623399973,-0.262999982,9.667699814,,,137,1.578899976,-1.666999906,9.453599826
1.68301E+18,2.781399658,0.148000002,-1.107499957,0.303200006,,1.607299924,-0.275099993,9.670100212,,,138,1.755299926,-1.38259995,9.973300219
1.68301E+18,2.801399658,0.475599974,-0.736799955,0.143199995,,1.583699942,-0.302599996,9.673099518,,,139,2.059299916,-1.039399952,9.816299513
1.68301E+18,2.821399658,0.828700006,-0.503600001,-0.524299979,,1.573799968,-0.329899997,9.673899651,,,140,2.402499974,-0.833499998,9.149599671
1.68301E+18,2.841399658,0.919099987,-0.412599981,-0.983099997,,1.581499934,-0.352200001,9.67179966,,,141,2.500599921,-0.764799982,8.688699663
1.68301E+18,2.861399658,0.525600016,-0.390899986,-1.343299985,,1.592499971,-0.373899996,9.669199944,,,142,2.118099988,-0.764799982,8.325899959
1.68301E+18,2.881401367,0.073699996,-0.298799992,-1.352100015,,1.593299985,-0.397399992,9.668099403,,,143,1.666999981,-0.696199983,8.315999389
1.68301E+18,2.901399658,0.104699999,-0.081799999,-1.264400005,,1.582000017,-0.428000003,9.668700218,,,144,1.686700016,-0.509800002,8.404300213
1.68301E+18,2.921399658,0.381799996,0.149399996,-1.019600034,,1.569700003,-0.463200003,9.669099808,,,145,1.951499999,-0.313800007,8.649499774
1.68301E+18,2.941399658,0.501399994,0.333900005,-0.803900003,,1.557899952,-0.50059998,9.669099808,,,146,2.059299946,-0.166699976,8.865199804
1.68301E+18,2.961401367,0.631599963,0.603999972,-0.735399961,,1.545399904,-0.535299957,9.669300079,,,147,2.176999867,0.068700016,8.933900118
1.68301E+18,2.981399658,0.60589999,0.866799951,-0.961499989,,1.531799912,-0.56279999,9.669799805,,,148,2.137699902,0.30399996,8.708299816
1.68301E+18,3.001399658,0.239999995,1.027599931,-1.167699933,,1.525099993,-0.576499999,9.670100212,,,149,1.765099987,0.451099932,8.502400279
1.68301E+18,3.021401367,-0.091699995,1.226400018,-1.520900011,,1.523499966,-0.57919997,9.670199394,,,150,1.431799971,0.647200048,8.149299383
1.68301E+18,3.041399658,-0.321700007,1.306100011,-1.795300007,,1.527999997,-0.570599973,9.670000076,,,151,1.20629999,0.735500038,7.874700069
1.68301E+18,3.061399658,-0.309899986,1.279199958,-2.000999928,,1.53579998,-0.553499997,9.669799805,,,152,1.225899994,0.725699961,7.668799877
1.68301E+18,3.081399658,-0.270599991,1.132799983,-2.285399914,,1.545499921,-0.524800003,9.669799805,,,153,1.27489993,0.60799998,7.384399891
1.68301E+18,3.101399658,0.113899998,0.906599998,-2.097899914,,1.562899947,-0.494699985,9.668600082,,,154,1.676799946,0.411900014,7.570700169
1.68301E+18,3.121399658,0.55369997,0.656499982,-1.10679996,,1.574199915,-0.470200002,9.668000221,,,155,2.127899885,0.18629998,8.561200261
1.68301E+18,3.141399658,0.862999976,0.533599973,0.031199999,,1.578799963,-0.464899987,9.667499542,,,156,2.441799939,0.068699986,9.698699541
1.68301E+18,3.161401367,1.041800022,0.726099968,0.68809998,,1.576499939,-0.471100003,9.667599678,,,157,2.618299961,0.254999965,10.35569966
1.68301E+18,3.181399658,0.847799957,0.83829999,0.755099952,,1.564499974,-0.475400001,9.669300079,,,158,2.412299931,0.362899989,10.42440003
1.68301E+18,3.201399658,0.523499966,0.782700002,0.036899999,,1.555400014,-0.458999991,9.671599388,,,159,2.07889998,0.323700011,9.708499387
1.68301E+18,3.221399658,0.140699998,0.516200006,-0.062799998,,1.555699944,-0.418199986,9.673399925,,,160,1.696399942,0.09800002,9.610599928
1.68301E+18,3.241401367,-0.0163,0.181999996,0.415600002,,1.555899978,-0.368299991,9.67539978,,,161,1.539599977,-0.186299995,10.09099978
1.68301E+18,3.261399658,0.031500001,-0.232799992,2.019399881,,1.537400007,-0.326099992,9.679800034,,,162,1.568900008,-0.558899984,11.69919991
1.68301E+18,3.281399658,0.301999986,-0.641799986,3.982699871,,1.492499948,-0.299499989,9.687699318,,,163,1.794499934,-0.941299975,13.67039919
1.68301E+18,3.301399658,0.613699973,-0.880099952,4.994800091,,1.445599914,-0.27699998,9.69549942,,,164,2.059299886,-1.157099932,14.69029951
1.68301E+18,3.321401367,0.682399988,-0.724099994,4.381799698,,1.416099906,-0.256500006,9.700399399,,,165,2.098499894,-0.980599999,14.0821991
1.68301E+18,3.341399658,0.385299981,-0.614300013,2.930199862,,1.41899991,-0.2289,9.700699806,,,166,1.804299891,-0.843200013,12.63089967
1.68301E+18,3.361399658,0.1734,-1.011999965,2.403399944,,1.444599986,-0.184299991,9.697899818,,,167,1.617999986,-1.196299955,12.10129976
1.68301E+18,3.381401367,-0.205599993,-1.192700028,2.375599861,,1.460899949,-0.131099999,9.696299553,,,168,1.255299956,-1.323800027,12.07189941
1.68301E+18,3.401399658,-0.717299998,-1.165799975,1.875199914,,1.462599993,-0.079499997,9.69659996,,,169,0.745299995,-1.245299973,11.57179987
1.68301E+18,3.421399658,-0.950100005,-1.359799981,1.040899992,,1.459999919,-0.0229,9.697299957,,,170,0.509899914,-1.382699981,10.73819995
1.68301E+18,3.441399658,-0.44659999,-1.505399942,0.108799994,,1.456699967,0.034399997,9.697699547,,,171,1.010099977,-1.470999945,9.806499541
1.68301E+18,3.461401367,0.081199996,-1.497200012,0.0112,,1.458400011,0.075199999,9.697299957,,,172,1.539600007,-1.422000013,9.708499957
1.68301E+18,3.481399658,0.423999995,-1.10710001,-0.4102,,1.458699942,0.087200001,9.697099686,,,173,1.882699937,-1.019900009,9.286899686
1.68301E+18,3.501399658,0.32099998,-0.873899996,-0.245699987,,1.444100022,0.079499997,9.699399948,,,174,1.765100002,-0.794399999,9.453699961
1.68301E+18,3.521401367,0.261299998,-0.438999981,-0.161899999,,1.415499926,0.056499999,9.703700066,,,175,1.676799923,-0.382499982,9.541800067
1.68301E+18,3.541399658,0.14199999,-0.0117,-0.115599997,,1.397599936,0.021499999,9.706500053,,,176,1.539599925,0.009799999,9.590900056
1.68301E+18,3.561399658,-0.291399986,0.233099997,-0.195199996,,1.389699936,-0.0076,9.70759964,,,177,1.09829995,0.225499997,9.512399644
1.68301E+18,3.581399658,-0.677899957,0.263099998,-0.675099969,,1.39380002,-0.017899999,9.706999779,,,178,0.715900064,0.245199999,9.03189981
1.68301E+18,3.601399658,-0.6972,0.0309,-1.11500001,,1.403299928,-0.011299999,9.705699921,,,179,0.706099927,0.0196,8.590699911
1.68301E+18,3.621399658,-0.444099993,-0.182099998,-1.584100008,,1.414899945,0.0056,9.703999519,,,180,0.970799953,-0.176499998,8.119899511
1.68301E+18,3.641399658,-0.171199992,-0.454400003,-1.729499936,,1.426499963,0.0229,9.702300072,,,181,1.255299971,-0.431500003,7.972800136
1.68301E+18,3.661401367,-0.108899996,-0.500499964,-1.738299966,,1.432799935,0.0298,9.701299667,,,182,1.32389994,-0.470699964,7.962999701
1.68301E+18,3.681399658,-0.317000002,-0.344099998,-1.620299935,,1.434999943,0.020499999,9.701000214,,,183,1.117999941,-0.3236,8.080700278
1.68301E+18,3.701399658,-0.661499977,-0.147100002,-1.414199948,,1.43629992,0,9.700799942,,,184,0.774799943,-0.147100002,8.286599994
1.68301E+18,3.721399658,-0.85679996,-0.035299998,-1.129899979,,1.435400009,-0.023399999,9.700900078,,,185,0.578600049,-0.058699997,8.571000099
1.68301E+18,3.741401367,-0.889099956,0.0263,-0.9921,,1.438199997,-0.045899998,9.700399399,,,186,0.549100041,-0.019599998,8.708299398
1.68301E+18,3.761399658,-0.856599987,0.063500002,-0.873399973,,1.444999933,-0.063500002,9.699299812,,,187,0.588399947,0,8.825899839
1.68301E+18,3.781399658,-0.692999959,0.1074,-0.969399989,,1.457899928,-0.0779,9.697299957,,,188,0.764899969,0.0295,8.727899969
1.68301E+18,3.801399658,-0.7324,0.100899994,-1.289999962,,1.477699995,-0.081299998,9.694299698,,,189,0.745299995,0.019599997,8.404299736
1.68301E+18,3.821399658,-0.694399953,0.048099998,-1.58099997,,1.49849999,-0.077500001,9.691100121,,,190,0.804100037,-0.029400002,8.11010015
1.68301E+18,3.841399658,-0.657299995,-0.045399997,-1.51880002,,1.520299911,-0.072099999,9.687799454,,,191,0.862999916,-0.117499996,8.168999434
1.68301E+18,3.861402832,-0.679399967,0.020499999,-1.301199913,,1.532599926,-0.069600001,9.685799599,,,192,0.853199959,-0.049100002,8.384599686
1.68301E+18,3.881402832,-0.676499963,0.13939999,-1.103899956,,1.539499998,-0.070699997,9.684700012,,,193,0.863000035,0.068699993,8.580800056
1.68301E+18,3.901399658,-0.667800009,0.189499989,-0.701699972,,1.540599942,-0.071800001,9.684599876,,,194,0.872799933,0.117699988,8.982899904
1.68301E+18,3.921399658,-0.3838,0.060599998,-0.152400002,,1.540899992,-0.0704,9.684499741,,,195,1.157099992,-0.009800002,9.532099739
1.68301E+18,3.941399658,0.144299999,-0.374599993,1.173099995,,1.55219996,-0.066599995,9.682700157,,,196,1.696499959,-0.441199988,10.85580015
1.68301E+18,3.961401367,0.509199977,-0.656199992,3.01639986,,1.550099969,-0.069399998,9.683099747,,,197,2.059299946,-0.725599989,12.69949961
1.68301E+18,3.981399658,0.428599983,-0.425599992,3.719899893,,1.532599926,-0.084299996,9.685699463,,,198,1.961199909,-0.509899989,13.40559936
1.68301E+18,4.001399658,0.19219999,-0.107799999,2.981599808,,1.513999939,-0.097999997,9.688499451,,,199,1.706199929,-0.205799997,12.67009926
1.68301E+18,4.021401367,0.354699999,-0.424400002,1.913199902,,1.518199921,-0.085499994,9.687999725,,,200,1.87289992,-0.509899996,11.60119963
1.68301E+18,4.041399658,0.895099998,-0.845699966,1.015200019,,1.546599984,-0.046599999,9.683799744,,,201,2.441699982,-0.892299965,10.69899976
1.68301E+18,4.061399658,1.011299968,-1.470499992,0.8926,,1.577600002,-0.010199999,9.678899765,,,202,2.58889997,-1.480699992,10.57149976
1.68301E+18,4.081399658,0.867699981,-1.883299947,1.786000013,,1.583799958,0.0103,9.677800179,,,203,2.451499939,-1.872999947,11.46380019
1.68301E+18,4.101399658,0.732199967,-1.611099958,3.359799862,,1.552599907,-0.0069,9.682899475,,,204,2.284799874,-1.617999958,13.04269934
1.68301E+18,4.121399658,0.718100011,-0.936499953,3.970799923,,1.5079,-0.063699998,9.689799309,,,205,2.226000011,-1.000199951,13.66059923
1.68301E+18,4.141399658,0.629399955,-0.338,2.90929985,,1.488699913,-0.1228,9.692199707,,,206,2.118099868,-0.4608,12.60149956
1.68301E+18,4.161401367,0.510899961,-0.292999983,1.106899977,,1.49940002,-0.14819999,9.690199852,,,207,2.010299981,-0.441199973,10.79709983
1.68301E+18,4.181399658,0.519599974,-0.552299976,0.355100006,,1.520099998,-0.153699994,9.686800003,,,208,2.039699972,-0.70599997,10.04190001
1.68301E+18,4.201399658,0.384599984,-0.677299976,0.395699978,,1.527599931,-0.165899992,9.685500145,,,209,1.912199914,-0.843199968,10.08120012
1.68301E+18,4.221399658,0.1875,-0.343199998,0.228099987,,1.518700004,-0.196099997,9.686299324,,,210,1.706200004,-0.539299995,9.914399311
1.68301E+18,4.241401367,0.179899991,0.069699995,-0.066699997,,1.50669992,-0.246199995,9.686999321,,,211,1.68659991,-0.1765,9.620299324
1.68301E+18,4.261399658,0.377099991,0.429699987,-0.751699984,,1.505699992,-0.302300006,9.685599327,,,212,1.882799983,0.127399981,8.933899343
1.68301E+18,4.281399658,0.423399985,0.723699987,-1.434599996,,1.518199921,-0.351099998,9.68200016,,,213,1.941599905,0.372599989,8.247400165
1.68301E+18,4.301401367,0.153399989,0.832300007,-1.90139997,,1.533299923,-0.391000003,9.678099632,,,214,1.686699912,0.441300005,7.776699662
1.68301E+18,4.321401367,-0.397499979,0.870799959,-1.949000001,,1.535099983,-0.419699997,9.676599503,,,215,1.137600005,0.451099962,7.727599502
1.68301E+18,4.341399658,-0.780200005,0.899800003,-1.627499938,,1.515699983,-0.438899994,9.678799629,,,216,0.735499978,0.460900009,8.051299691
1.68301E+18,4.361399658,-0.85649997,0.930199981,-1.102399945,,1.484099984,-0.449599981,9.683199883,,,217,0.627600014,0.480599999,8.580799937
1.68301E+18,4.381401367,-0.744899988,0.872599959,-0.616999984,,1.450999975,-0.450899988,9.688199997,,,218,0.706099987,0.421699971,9.071200013
1.68301E+18,4.401399658,-0.281800002,0.780299962,-0.514499962,,1.419399977,-0.437099993,9.693499565,,,219,1.137599975,0.343199968,9.178999603
1.68301E+18,4.421399658,0.319999993,0.641099989,-0.921299994,,1.395999908,-0.405699998,9.698200226,,,220,1.715999901,0.235399991,8.776900232
1.68301E+18,4.441399658,0.7324,0.570499957,-1.463799953,,1.385699987,-0.364499986,9.701299667,,,221,2.118099988,0.20599997,8.237499714
1.68301E+18,4.461401367,0.943499982,0.537299991,-1.799399972,,1.380599976,-0.321500003,9.70359993,,,222,2.324099958,0.215799987,7.904199958
1.68301E+18,4.481399658,0.849099994,0.47389999,-2.026900053,,1.376899958,-0.277799994,9.705499649,,,223,2.225999951,0.196099997,7.678599596
1.68301E+18,4.501399658,0.505800009,0.351999998,-1.823399901,,1.367200017,-0.234399989,9.708000183,,,224,1.873000026,0.117600009,7.884600282
1.68301E+18,4.521401367,0.277399987,0.30399999,-1.395200014,,1.350399971,-0.196199998,9.71119976,,,225,1.627799958,0.107799992,8.315999746
1.68301E+18,4.541399658,0.161899999,0.184900001,-0.779599965,,1.338400006,-0.165299997,9.713399887,,,226,1.500300005,0.019600004,8.933799922
1.68301E+18,4.561399658,0.287900001,-0.031399999,0.140499994,,1.33009994,-0.135299996,9.715000153,,,227,1.617999941,-0.166699994,9.855500147
1.68301E+18,4.581399658,0.567399979,-0.165399998,1.382300019,,1.305499911,-0.109099999,9.718699455,,,228,1.87289989,-0.274499997,11.10099947
1.68301E+18,4.601401367,0.861299992,-0.243099988,2.183699846,,1.286199927,-0.090300001,9.721499443,,,229,2.147499919,-0.333399989,11.90519929
1.68301E+18,4.621399658,0.97359997,-0.414099991,2.751699924,,1.281899929,-0.066299997,9.72219944,,,230,2.255499899,-0.480399989,12.47389936
1.68301E+18,4.641399658,0.979399979,-0.358199984,2.889400005,,1.28579998,-0.0438,9.72179985,,,231,2.265199959,-0.401999984,12.61119986
1.68301E+18,4.661401367,0.583899975,-0.410599977,2.626299858,,1.298900008,-0.0208,9.720199585,,,232,1.882799983,-0.431399977,12.34649944
1.68301E+18,4.681399658,0.108799994,-0.578999996,2.235899925,,1.312999964,0.010199999,9.718299866,,,233,1.421799958,-0.568799997,11.95419979
1.68301E+18,4.701399658,-0.118199997,-0.820299983,2.06099987,,1.324399948,0.045599997,9.716599464,,,234,1.206199951,-0.774699986,11.77759933
1.68301E+18,4.721399658,-0.190099999,-0.888899982,1.894999981,,1.327700019,0.074999996,9.715999603,,,235,1.13760002,-0.813899986,11.61099958
1.68301E+18,4.741401367,-0.390100002,-0.604099989,1.169999957,,1.331599951,0.094099998,9.715299606,,,236,0.941499949,-0.50999999,10.88529956
1.68301E+18,4.761399658,-0.610799968,-0.563199997,0.191499993,,1.346300006,0.112099998,9.71309948,,,237,0.735500038,-0.451099999,9.904599473
1.68301E+18,4.781399658,-0.531499982,-1.077399969,0.341499984,,1.365099907,0.135899991,9.710199356,,,238,0.833599925,-0.941499978,10.05169934
1.68301E+18,4.801399658,-0.325399995,-1.27639997,1.075799942,,1.355000019,0.148699999,9.711400032,,,239,1.029600024,-1.127699971,10.78719997
1.68301E+18,4.821399658,-0.197699994,-0.908599973,1.581499934,,1.325399995,0.133900002,9.71570015,,,240,1.127700001,-0.774699971,11.29720008
1.68301E+18,4.841399658,-0.0942,-0.483799994,1.312899947,,1.300400019,0.101300001,9.719499588,,,241,1.206200019,-0.382499993,11.03239954
1.68301E+18,4.861399658,0.210099995,-0.1611,0.557500005,,1.299999952,0.072799996,9.719799995,,,242,1.510099947,-0.088300005,10.2773
1.68301E+18,4.881401367,0.327299982,-0.052699998,-0.234200001,,1.32009995,0.052699998,9.717199326,,,243,1.647399932,0,9.482999325
1.68301E+18,4.901399658,-0.087099999,0.0118,-0.799999952,,1.342399955,0.037099998,9.71420002,,,244,1.255299956,0.048899998,8.914200068
1.68301E+18,4.921399658,-0.568499982,0.032899998,-1.102499962,,1.352999926,0.025799999,9.712800026,,,245,0.784499943,0.058699997,8.610300064
1.68301E+18,4.941399658,-0.854099989,0.0059,-1.112200022,,1.354200006,0.013599999,9.712599754,,,246,0.500100017,0.019499999,8.600399733
1.68301E+18,4.961401367,-0.81979996,0.070699997,-1.083500028,,1.349399924,-0.002,9.713299751,,,247,0.529599965,0.068699997,8.629799724
1.68301E+18,4.981399658,-0.541000009,0.228,-0.967700005,,1.335299969,-0.022,9.715199471,,,248,0.79429996,0.206,8.747499466
1.68301E+18,5.001399658,-0.057299998,0.168499991,-0.823599994,,1.312600017,-0.040999997,9.718299866,,,249,1.255300019,0.127499994,8.894699872
1.68301E+18,5.021401367,0.214000002,0.244299993,-0.660399973,,1.286299944,-0.057999998,9.721699715,,,250,1.500299945,0.186299995,9.061299741
1.68301E+18,5.041399658,0.295699984,0.349299997,-0.584800005,,1.263399959,-0.074699998,9.724599838,,,251,1.559099942,0.274599999,9.139799833
1.68301E+18,5.061399658,0.122599997,0.482499987,-0.908699989,,1.25999999,-0.0902,9.724899292,,,252,1.382599987,0.392299987,8.816199303
1.68301E+18,5.081399658,-0.242299989,0.564399958,-1.367900014,,1.271999955,-0.103499994,9.723199844,,,253,1.029699966,0.460899964,8.35529983
1.68301E+18,5.101399658,-0.599799991,0.496699989,-1.639199972,,1.296000004,-0.114199996,9.719900131,,,254,0.696200013,0.382499993,8.080700159
1.68301E+18,5.121399658,-1.09589994,0.487299979,-1.763199925,,1.321499944,-0.124399997,9.716400146,,,255,0.225600004,0.362899981,7.953200221
1.68301E+18,5.141399658,-1.393199921,0.683399975,-2.220700026,,1.344200015,-0.144099995,9.712999344,,,256,-0.048999906,0.53929998,7.492299318
1.68301E+18,5.161401367,-1.493499994,0.771099985,-2.392299891,,1.375800014,-0.172899991,9.708099365,,,257,-0.117699981,0.598199993,7.315799475
1.68301E+18,5.181399658,-1.108999968,0.724799991,-1.781099916,,1.393399954,-0.2051,9.704899788,,,258,0.284399986,0.519699991,7.923799872
1.68301E+18,5.201399658,-0.646600008,0.814700007,-0.906199992,,1.40170002,-0.24589999,9.702799797,,,259,0.755100012,0.568800017,8.796599805
1.68301E+18,5.221399658,-0.475099981,0.935299993,-0.100199997,,1.406799912,-0.288100004,9.700900078,,,260,0.931699932,0.647199988,9.60070008
1.68301E+18,5.241401367,-0.419999987,0.856599987,0.263999999,,1.410399914,-0.317200005,9.699399948,,,261,0.990399927,0.539399981,9.963399947
1.68301E+18,5.261399658,-0.334299982,0.469599992,0.581299961,,1.432699919,-0.32249999,9.696000099,,,262,1.098399937,0.147100002,10.27730006
1.68301E+18,5.281399658,-0.131799996,-0.050799999,1.085600019,,1.465499997,-0.302100003,9.691800117,,,263,1.333700001,-0.352900002,10.77740014
1.68301E+18,5.301401367,0.1778,-0.537999988,1.833799958,,1.489199996,-0.27579999,9.688899994,,,264,1.666999996,-0.813799977,11.52269995
1.68301E+18,5.321401367,0.301999986,-0.83769995,2.217599869,,1.502299905,-0.250699997,9.687600136,,,265,1.804299891,-1.088399947,11.9052
1.68301E+18,5.341399658,0.287900001,-0.890699983,2.245599985,,1.496799946,-0.227200001,9.68900013,,,266,1.784699947,-1.117899984,11.93460011
1.68301E+18,5.361399658,0.276499987,-0.772599995,1.70449996,,1.488600016,-0.207999989,9.690699577,,,267,1.765100002,-0.980599985,11.39519954
1.68301E+18,5.381401367,0.212399989,-0.932099998,1.467999935,,1.484099984,-0.185800001,9.6918993,,,268,1.696499974,-1.117899999,11.15989923
1.68301E+18,5.401399658,0.224099994,-1.300199986,1.769799948,,1.47239995,-0.160899997,9.694099426,,,269,1.696499944,-1.461099982,11.46389937
1.68301E+18,5.421399658,0.366099983,-1.543200016,2.462100029,,1.448099971,-0.143399999,9.697999954,,,270,1.814199954,-1.686600015,12.16009998
1.68301E+18,5.441399658,0.510299981,-1.503299952,3.162799835,,1.41170001,-0.144199997,9.703399658,,,271,1.921999991,-1.647499949,12.86619949
1.68301E+18,5.461401367,0.609099984,-1.022499919,2.971099854,,1.371699929,-0.16399999,9.708799362,,,272,1.980799913,-1.186499909,12.67989922
1.68301E+18,5.481399658,0.496699989,-0.61589998,2.055999994,,1.346899986,-0.188099995,9.711799622,,,273,1.843599975,-0.803999975,11.76779962
1.68301E+18,5.501399658,0.369699985,-0.557900012,1.005499959,,1.336599946,-0.197099999,9.71309948,,,274,1.706299931,-0.75500001,10.71859944
1.68301E+18,5.521401367,0.478100002,-0.68779999,0.514999986,,1.335999966,-0.194699988,9.713199615,,,275,1.814099967,-0.882499978,10.2281996
1.68301E+18,5.541399658,0.548900008,-0.664099991,0.503699958,,1.324100018,-0.198799998,9.714799881,,,276,1.873000026,-0.862899989,10.21849984
1.68301E+18,5.561399658,0.590200007,-0.419499993,0.432499975,,1.302299976,-0.217799991,9.717299461,,,277,1.892499983,-0.637299985,10.14979944
1.68301E+18,5.581399658,0.839299977,-0.045599997,0.145699993,,1.278800011,-0.24849999,9.71969986,,,278,2.118099988,-0.294099987,9.865399852
1.68301E+18,5.601399658,0.859600008,0.3213,-0.599900007,,1.268399954,-0.282099992,9.720099449,,,279,2.127999961,0.039200008,9.120199442
1.68301E+18,5.621399658,0.705899954,0.573499978,-1.364499927,,1.265200019,-0.308699995,9.71969986,,,280,1.971099973,0.264799982,8.355199933
1.68301E+18,5.641399658,0.531799972,0.66170001,-1.903499961,,1.262799978,-0.328299999,9.719399452,,,281,1.79459995,0.333400011,7.815899491
1.68301E+18,5.661401367,0.354999989,0.734600008,-2.355399847,,1.253199935,-0.342299998,9.720199585,,,282,1.608199924,0.39230001,7.364799738
1.68301E+18,5.681399658,0.294099987,0.843699992,-2.278800011,,1.235700011,-0.353399992,9.722000122,,,283,1.529799998,0.4903,7.443200111
1.68301E+18,5.701399658,0.315499991,0.972199976,-2.016299963,,1.21420002,-0.364199996,9.724299431,,,284,1.529700011,0.60799998,7.707999468
1.68301E+18,5.721399658,0.310799986,1.044700027,-1.763000011,,1.199299932,-0.368099988,9.725999832,,,285,1.510099918,0.676600039,7.962999821
1.68301E+18,5.741399658,0.315899998,0.995299995,-1.529899955,,1.184499979,-0.357899994,9.728199959,,,286,1.500399977,0.637400001,8.198300004
1.68301E+18,5.761399658,0.363799989,0.826799989,-1.610499978,,1.175799966,-0.326599985,9.730400085,,,287,1.539599955,0.500200003,8.119900107
1.68301E+18,5.781399658,0.50879997,0.550899982,-1.905999899,,1.177899957,-0.276299983,9.731699944,,,288,1.686699927,0.274599999,7.825700045
1.68301E+18,5.801399658,0.664900005,0.2245,-2.092599869,,1.188399911,-0.214699998,9.731900215,,,289,1.853299916,0.009800002,7.639300346
1.68301E+18,5.821401367,0.685199976,-0.0383,-2.171099901,,1.197600007,-0.1479,9.732099533,,,290,1.882799983,-0.1862,7.560999632
1.68301E+18,5.841399658,0.468099982,-0.238399997,-2.121500015,,1.208799958,-0.085099995,9.731399536,,,291,1.67689994,-0.323499992,7.609899521
1.68301E+18,5.861399658,0.102299996,-0.428799987,-1.512199998,,1.22149992,-0.031999998,9.730199814,,,292,1.323799916,-0.460799985,8.217999816
1.68301E+18,5.881401367,-0.203599989,-0.676800013,0.057,,1.223500013,0.0099,9.729999542,,,293,1.019900024,-0.666900013,9.786999542
1.68301E+18,5.901399658,-0.174499989,-0.832300007,2.017199993,,1.213999987,0.037900001,9.731100082,,,294,1.039499998,-0.794400007,11.74830008
1.68301E+18,5.921399658,0.127199993,-1.11589992,3.712899923,,1.206399918,0.0568,9.731900215,,,295,1.33359991,-1.05909992,13.44480014
1.68301E+18,5.941399658,0.532199979,-1.314099908,4.506999969,,1.203400016,0.078400001,9.732199669,,,296,1.735599995,-1.235699907,14.23919964
1.68301E+18,5.961401367,0.84859997,-1.209200025,3.803299904,,1.220499992,0.100999996,9.729800224,,,297,2.069099963,-1.108200029,13.53310013
1.68301E+18,5.981399658,0.602999985,-1.055199981,2.415999889,,1.260100007,0.123599999,9.724499702,,,298,1.863099992,-0.931599982,12.14049959
1.68301E+18,6.001399658,0.205499992,-1.236500025,2.010400057,,1.3046,0.1479,9.718299866,,,299,1.510099992,-1.088600025,11.72869992
1.68301E+18,6.021401367,-0.272799999,-1.648099899,2.797600031,,1.322099924,0.167300001,9.715600014,,,300,1.049299926,-1.480799899,12.51320004
1.68301E+18,6.041399658,-0.63409996,-1.777199984,3.932299852,,1.300899982,0.168899998,9.718500137,,,301,0.666800022,-1.608299986,13.65079999
1.68301E+18,6.061399658,-0.753299952,-1.380699992,4.172100067,,1.263199925,0.144999996,9.723799706,,,302,0.509899974,-1.235699996,13.89589977
1.68301E+18,6.081399658,-0.735399961,-0.670799971,3.217999935,,1.245399952,0.1021,9.726699829,,,303,0.50999999,-0.568699971,12.94469976
1.68301E+18,6.101399658,-0.53579998,-0.212399989,1.209399939,,1.261500001,0.065299995,9.724899292,,,304,0.725700021,-0.147099994,10.93429923
1.68301E+18,6.121399658,-0.558399975,-0.139300004,-0.422699988,,1.30369997,0.050999999,9.719399452,,,305,0.745299995,-0.088300005,9.296699464
1.68301E+18,6.141399658,-0.820299983,-0.199299991,-1.339599967,,1.340099931,0.042399999,9.714499474,,,306,0.519799948,-0.156899992,8.374899507
1.68301E+18,6.161399658,-1.262699962,-0.323499978,-1.573499918,,1.350899935,0.029299999,9.71309948,,,307,0.088199973,-0.294199979,8.139599562
1.68301E+18,6.181399658,-1.340099931,-0.215700001,-1.174399972,,1.330299973,0,9.715899467,,,308,-0.009799957,-0.215700001,8.541499496
1.68301E+18,6.201399658,-0.9296,0.071899995,-0.630199969,,1.292400002,-0.052299999,9.720899582,,,309,0.362800002,0.019599997,9.090699613
1.68301E+18,6.221399658,-0.392099977,0.381499976,-0.2324,,1.254999995,-0.116799995,9.725299835,,,310,0.862900019,0.264699981,9.492899835
1.68301E+18,6.241399658,0.135099992,0.629599988,-0.225099996,,1.227900028,-0.178399995,9.727799416,,,311,1.36300002,0.451199993,9.50269942
1.68301E+18,6.261399658,0.60619998,0.809499979,-0.499899983,,1.217700005,-0.23089999,9.727999687,,,312,1.823899984,0.578599989,9.228099704
1.68301E+18,6.281399658,0.910299957,0.849199951,-0.763700008,,1.217700005,-0.270599991,9.726900101,,,313,2.127999961,0.57859996,8.963200092
1.68301E+18,6.301399658,0.875199974,0.844299972,-1.085899949,,1.22329998,-0.295100003,9.725500107,,,314,2.098499954,0.549199969,8.639600158
1.68301E+18,6.321399658,0.3125,0.691299975,-1.202600002,,1.226999998,-0.308799982,9.724599838,,,315,1.539499998,0.382499993,8.521999836
1.68301E+18,6.341399658,-0.366899997,0.722299993,-1.241099954,,1.229900002,-0.320199996,9.723899841,,,316,0.863000005,0.402099997,8.482799888
1.68301E+18,6.361399658,-0.8046,0.805299997,-1.260699987,,1.226300001,-0.334600002,9.723899841,,,317,0.421700001,0.470699996,8.463199854
1.68301E+18,6.381399658,-0.843400002,0.870299995,-1.387699962,,1.225799918,-0.350600004,9.723400116,,,318,0.382399917,0.519699991,8.335700154
1.68301E+18,6.401399658,-0.72209996,0.943799973,-1.602100015,,1.231999993,-0.365199983,9.722000122,,,319,0.509900033,0.578599989,8.119900107
1.68301E+18,6.421399658,-0.592799962,1.015399933,-1.708499908,,1.24000001,-0.377999991,9.720499992,,,320,0.647200048,0.637399942,8.012000084
1.68301E+18,6.441399658,-0.512699962,1.135299921,-1.736400008,,1.24819994,-0.389999986,9.718999863,,,321,0.735499978,0.745299935,7.982599854
1.68301E+18,6.461399658,-0.644899964,1.153900027,-1.79429996,,1.252900004,-0.398799986,9.717999458,,,322,0.60800004,0.755100042,7.923699498
1.68301E+18,6.481399658,-0.826799989,1.146999955,-1.735899925,,1.24849999,-0.40169999,9.718500137,,,323,0.421700001,0.745299965,7.982600212
1.68301E+18,6.501399658,-0.988799989,1.008999944,-1.296499968,,1.233999968,-0.400999993,9.720399857,,,324,0.245199978,0.607999951,8.423899889
1.68301E+18,6.521399658,-0.907000005,1.022699952,-0.691599965,,1.211099982,-0.395099998,9.723499298,,,325,0.304099977,0.627599955,9.031899333
1.68301E+18,6.541399658,-0.734899998,0.883699954,-0.0381,,1.18599999,-0.383599997,9.726999283,,,326,0.451099992,0.500099957,9.688899282
1.68301E+18,6.561399658,-0.559099972,0.457099974,0.537199974,,1.167099953,-0.358999997,9.73029995,,,327,0.60799998,0.098099977,10.26749992
1.68301E+18,6.581399658,0.0018,-0.040899999,1.289600015,,1.155300021,-0.321799994,9.732999802,,,328,1.157100021,-0.362699993,11.02259982
1.68301E+18,6.601399658,0.513999999,-0.416299999,2.052099943,,1.143299937,-0.289700001,9.7354002,,,329,1.657299936,-0.706,11.78750014
1.68301E+18,6.621399658,0.849399984,-0.351500005,2.491600037,,1.131399989,-0.275999993,9.737199783,,,330,1.980799973,-0.627499998,12.22879982
1.68301E+18,6.641399658,0.813499987,-0.126599997,2.421399832,,1.118299961,-0.275399983,9.738699913,,,331,1.931799948,-0.40199998,12.16009974
1.68301E+18,6.661399658,0.637399971,-0.119799994,1.959299922,,1.108099937,-0.272300005,9.739999771,,,332,1.745499909,-0.392099999,11.69929969
1.68301E+18,6.681399658,0.749300003,-0.491699994,1.928900003,,1.104099989,-0.253499985,9.74090004,,,333,1.853399992,-0.745199978,11.66980004
1.68301E+18,6.701399658,0.940599978,-0.907199979,2.720999956,,1.089299917,-0.230199993,9.743199348,,,334,2.029899895,-1.137399971,12.4641993
1.68301E+18,6.721399658,0.788199961,-0.852400005,3.198499918,,1.065199971,-0.216399997,9.746199608,,,335,1.853399932,-1.068800002,12.94469953
1.68301E+18,6.741399658,0.673699975,-0.760199964,3.146899939,,1.042299986,-0.210599989,9.748799324,,,336,1.715999961,-0.970799953,12.89569926
1.68301E+18,6.761399658,0.95449996,-0.918899953,3.370499849,,1.02639997,-0.199000001,9.750699997,,,337,1.98089993,-1.117899954,13.12119985
1.68301E+18,6.781399658,1.209499955,-0.870399952,3.211099863,,1.00669992,-0.178800002,9.753099442,,,338,2.216199875,-1.049199954,12.9641993
1.68301E+18,6.801399658,1.076900005,-0.66869998,1.877599955,,1.011799932,-0.155000001,9.752999306,,,339,2.088699937,-0.823699981,11.63059926
1.68301E+18,6.821399658,0.766299963,-0.707300007,0.418599993,,1.037999988,-0.116299994,9.750800133,,,340,1.804299951,-0.823600002,10.16940013
1.68301E+18,6.841399658,0.471699983,-1.019199967,-0.500400007,,1.067899942,-0.069200002,9.748000145,,,341,1.539599925,-1.088399969,9.247600138
1.68301E+18,6.861399658,0.32009998,-1.238099933,-1.096099973,,1.092000008,-0.026899999,9.745599747,,,342,1.412099987,-1.264999932,8.649499774
1.68301E+18,6.881399658,0.150899991,-1.197899938,-1.21239996,,1.104300022,-0.0082,9.744199753,,,343,1.255200014,-1.206099938,8.531799793
1.68301E+18,6.901399658,0.077299997,-0.878699958,-1.12469995,,1.099399924,-0.023399999,9.744799614,,,344,1.176699921,-0.902099958,8.620099664
1.68301E+18,6.921399658,0.259499997,-0.582899988,-1.076099992,,1.093699932,-0.064199999,9.745200157,,,345,1.353199929,-0.647099987,8.669100165
1.68301E+18,6.941399658,0.494499981,-0.336199999,-1.271799922,,1.093999982,-0.114799999,9.744699478,,,346,1.588499963,-0.450999998,8.472899556
1.68301E+18,6.961399658,0.549499989,-0.140499994,-1.662899971,,1.097899914,-0.163399994,9.743599892,,,347,1.647399902,-0.303899989,8.080699921
1.68301E+18,6.981399658,0.454299986,0.063099995,-1.847499967,,1.104900002,-0.210199997,9.74189949,,,348,1.559199989,-0.147100002,7.894399524
1.68301E+18,7.001399658,0.216699988,0.196499988,-1.767699957,,1.10710001,-0.255400002,9.740499496,,,349,1.323799998,-0.058900014,7.97279954
1.68301E+18,7.021399658,-0.066799998,0.335500002,-1.483399987,,1.09649992,-0.296200007,9.740599632,,,350,1.029699922,0.039299995,8.257199645
1.68301E+18,7.041399658,-0.300399989,0.497099996,-1.414999962,,1.084900022,-0.33039999,9.740799904,,,351,0.784500033,0.166700006,8.325799942
1.68301E+18,7.061399658,-0.352499992,0.527499974,-1.709199905,,1.078199983,-0.350899994,9.740799904,,,352,0.725699991,0.176599979,8.031599998
1.68301E+18,7.081399658,-0.115399994,0.407299995,-1.905200005,,1.076499939,-0.3583,9.740699768,,,353,0.961099945,0.048999995,7.835499763
1.68301E+18,7.101399658,0.1778,0.380699992,-2.081599951,,1.077399969,-0.361099988,9.740499496,,,354,1.255199969,0.019600004,7.658899546
1.68301E+18,7.121399658,0.228,0.368699998,-1.924499989,,1.076099992,-0.368699998,9.740399361,,,355,1.304099992,0,7.815899372
1.68301E+18,7.141399658,0.293799996,0.557500005,-1.875799894,,1.06919992,-0.380999982,9.740699768,,,356,1.362999916,0.176500022,7.864899874
1.68301E+18,7.161399658,0.204799995,0.717000008,-1.915499926,,1.060199976,-0.393399984,9.741199493,,,357,1.264999971,0.323600024,7.825699568
1.68301E+18,7.181399658,0.216600001,0.648599982,-1.689700007,,1.058200002,-0.403400004,9.741000175,,,358,1.274800003,0.245199978,8.051300168
1.68301E+18,7.201399658,0.272199988,0.458799988,-0.58099997,,1.061399937,-0.409699976,9.740399361,,,359,1.333599925,0.049100012,9.15939939
1.68301E+18,7.221399658,0.167199999,0.231199995,1.115499973,,1.058599949,-0.417599976,9.740300179,,,360,1.225799948,-0.186399981,10.85580015
1.68301E+18,7.241399658,-0.175699994,0.095100001,2.704599857,,1.058300018,-0.428499997,9.739899635,,,361,0.882600024,-0.333399996,12.44449949
1.68301E+18,7.261399658,-0.292400002,-0.157600001,3.960999966,,1.067099929,-0.430699974,9.738800049,,,362,0.774699926,-0.588299975,13.69980001
1.68301E+18,7.281399658,-0.0046,-0.31129998,5.039700031,,1.073599935,-0.414299995,9.738800049,,,363,1.068999934,-0.725599974,14.77850008
1.68301E+18,7.301399658,0.405799985,-0.243199989,4.854499817,,1.094499946,-0.384299994,9.737699509,,,364,1.500299931,-0.627499983,14.59219933
1.68301E+18,7.321399658,0.687099993,-0.448399991,4.339299679,,1.146700025,-0.345899999,9.733200073,,,365,1.833800018,-0.79429999,14.07249975
1.68301E+18,7.341399658,0.812399983,-0.689700007,4.50909996,,1.187999964,-0.290800005,9.729999542,,,366,2.000399947,-0.980500013,14.2390995
1.68301E+18,7.361399658,0.569299996,-0.638399959,4.096699715,,1.195799947,-0.234299988,9.730599403,,,367,1.765099943,-0.872699946,13.82729912
1.68301E+18,7.381399658,-0.2456,-0.400899976,2.508100033,,1.206599951,-0.177599996,9.730500221,,,368,0.960999951,-0.578499973,12.23860025
1.68301E+18,7.401399658,-1.125,-0.595200002,0.480499983,,1.232800007,-0.110799998,9.728199959,,,369,0.107800007,-0.706,10.20869994
1.68301E+18,7.421399658,-1.434899926,-1.048900008,-0.760899961,,1.268199921,-0.0298,9.724199295,,,370,-0.166700006,-1.078700008,8.963299334
1.68301E+18,7.441399658,-1.217299938,-1.298900008,-0.915499985,,1.286000013,0.033799998,9.721899986,,,371,0.068700075,-1.26510001,8.806400001
1.68301E+18,7.461399658,-0.661899984,-1.177399993,-0.436999977,,1.269899964,0.049599998,9.723899841,,,372,0.60799998,-1.127799995,9.286899865
1.68301E+18,7.481399658,-0.113699995,-0.83769995,0.439199984,,1.22179997,0.023799999,9.730199814,,,373,1.108099975,-0.813899951,10.1693998
1.68301E+18,7.501399658,0.573000014,-0.306299984,0.883099973,,1.162699938,-0.026999999,9.737400055,,,374,1.735699952,-0.333299983,10.62050003
1.68301E+18,7.521399658,0.834100008,0.144299999,0.575199962,,1.127099991,-0.0757,9.741299629,,,375,1.961199999,0.068599999,10.31649959
1.68301E+18,7.541399658,0.704999983,0.370299995,-0.052999999,,1.118899941,-0.105499998,9.741999626,,,376,1.823899925,0.264799997,9.688999627
1.68301E+18,7.561399658,0.365699977,0.330899984,-0.699499965,,1.124799967,-0.115199998,9.741199493,,,377,1.490499943,0.215699986,9.041699529
1.68301E+18,7.581399658,-0.160999998,0.155699998,-1.345999956,,1.131899953,-0.106599994,9.740499496,,,378,0.970899954,0.049100004,8.39449954
1.68301E+18,7.601399658,-0.640299976,-0.0003,-1.75819993,,1.130599976,-0.087799996,9.740799904,,,379,0.4903,-0.088099996,7.982599974
1.68301E+18,7.621399658,-0.888300002,-0.274800003,-2.200399876,,1.123700023,-0.068399996,9.741799355,,,380,0.235400021,-0.343199998,7.541399479
1.68301E+18,7.641399658,-0.796000004,-0.409699976,-2.701200008,,1.119599938,-0.051099997,9.742300034,,,381,0.323599935,-0.460799973,7.041100025
1.68301E+18,7.661399658,-0.570899963,-0.451399982,-2.721899986,,1.110299945,-0.048599999,9.74339962,,,382,0.539399981,-0.499999981,7.021499634
1.68301E+18,7.681399658,-0.299299985,-0.196400002,-2.459899902,,1.083799958,-0.068300001,9.746299744,,,383,0.784499973,-0.264700003,7.286399841
1.68301E+18,7.701399658,-0.105899997,0.094499998,-2.081199884,,1.047299981,-0.1043,9.75,,,384,0.941399984,-0.009800002,7.668800116
1.68301E+18,7.721399658,0.019299999,0.284399986,-1.888399959,,1.010299921,-0.147100002,9.753299713,,,385,1.02959992,0.137299985,7.864899755
1.68301E+18,7.741399658,-0.0504,0.474699974,-1.918899894,,0.991899967,-0.190299988,9.7543993,,,386,0.941499967,0.284399986,7.835499406
1.68301E+18,7.761399658,-0.269800007,0.541299999,-1.791299939,,0.985699952,-0.227499992,9.754300117,,,387,0.715899944,0.313800007,7.963000178
1.68301E+18,7.781399658,-0.44689998,0.541599989,-1.653199911,,0.986299992,-0.257200003,9.753499985,,,388,0.539400011,0.284399986,8.100300074
1.68301E+18,7.801399658,-0.578999996,0.496199995,-1.55400002,,0.99089998,-0.280499995,9.752399445,,,389,0.411899984,0.215700001,8.198399425
1.68301E+18,7.821399658,-0.54339999,0.337399989,-1.169700027,,1.004299998,-0.298199981,9.750499725,,,390,0.460900009,0.039200008,8.580799699
1.68301E+18,7.841399658,-0.443999976,0.252000004,-0.922199965,,1.022599936,-0.310799986,9.748199463,,,391,0.57859996,-0.058799982,8.825999498
1.68301E+18,7.861399658,-0.359799981,0.204300001,-0.831099987,,1.046299934,-0.32189998,9.745299339,,,392,0.686499953,-0.117599979,8.914199352
1.68301E+18,7.881399658,-0.210799992,0.074699998,-0.621899962,,1.073799968,-0.329699993,9.742099762,,,393,0.862999976,-0.254999995,9.1201998
1.68301E+18,7.901399658,0.152500004,-0.140599996,0.421099991,,1.102699995,-0.3398,9.738499641,,,394,1.255199999,-0.480399996,10.15959963
1.68301E+18,7.921399658,0.500800014,-0.367300004,1.904199958,,1.117200017,-0.358199984,9.736199379,,,395,1.618000031,-0.725499988,11.64039934
1.68301E+18,7.941399658,0.647899985,-0.3028,2.934899807,,1.117200017,-0.38349998,9.735199928,,,396,1.765100002,-0.68629998,12.67009974
1.68301E+18,7.961399658,0.601000011,-0.214999989,3.484999895,,1.115100026,-0.412499994,9.73429966,,,397,1.716100037,-0.627499983,13.21929955
1.68301E+18,7.981399658,0.482599974,-0.307999998,3.564199924,,1.115800023,-0.427399993,9.733499527,,,398,1.598399997,-0.735399991,13.29769945
1.68301E+18,8.001399658,0.619899988,-0.564700007,3.270999908,,1.125499964,-0.425699979,9.732500076,,,399,1.745399952,-0.990399987,13.00349998
1.68301E+18,8.021399658,0.954899967,-1.173399925,4.008199692,,1.143700004,-0.415199995,9.730799675,,,400,2.09859997,-1.58859992,13.73899937
1.68301E+18,8.041399658,0.787199974,-1.107499957,4.821000099,,1.134799957,-0.412399977,9.731999397,,,401,1.921999931,-1.519899935,14.5529995
1.68301E+18,8.061399658,0.109399997,-0.547299981,4.064199924,,1.116400003,-0.423500001,9.733599663,,,402,1.2258,-0.970799983,13.79779959
1.68301E+18,8.081399658,-0.400299996,-0.103999995,2.387799978,,1.11619997,-0.435199976,9.733099937,,,403,0.715899974,-0.539199971,12.12089992
1.68301E+18,8.101399658,-0.254900008,-0.244899988,0.937099993,,1.127699971,-0.421799988,9.73239994,,,404,0.872799963,-0.666699976,10.66949993
1.68301E+18,8.121399658,0.238299996,-0.598100007,0.321199983,,1.154199958,-0.392199993,9.730500221,,,405,1.392499954,-0.9903,10.0517002
1.68301E+18,8.141399658,0.505999982,-0.819499969,-0.059,,1.180599928,-0.366999984,9.728300095,,,406,1.68659991,-1.186499953,9.669300094
1.68301E+18,8.161399658,0.406599998,-0.686199963,-0.193899989,,1.201599956,-0.363099992,9.725899696,,,407,1.608199954,-1.049299955,9.531999707
1.68301E+18,8.181399658,-0.0173,-0.354299992,-0.0372,,1.194100022,-0.381099999,9.726200104,,,408,1.176800022,-0.735399991,9.689000104
1.68301E+18,8.201399658,-0.216600001,0.0016,-0.088100001,,1.167899966,-0.413499981,9.727999687,,,409,0.951299965,-0.411899981,9.639899686
1.68301E+18,8.221399658,-0.1303,0.130400002,-0.335199982,,1.140399933,-0.444199979,9.729899406,,,410,1.010099933,-0.313799977,9.394699425
1.68301E+18,8.241399658,0.199299991,0.052899998,-0.7773,,1.124499917,-0.4648,9.730799675,,,411,1.323799908,-0.411900003,8.953499675
1.68301E+18,8.261399658,0.484599978,-0.040599998,-1.072099924,,1.11379993,-0.479000002,9.731399536,,,412,1.598399907,-0.5196,8.659299612
1.68301E+18,8.281399658,0.56189996,-0.0028,-1.004599929,,1.095299959,-0.497199982,9.732500076,,,413,1.657199919,-0.499999982,8.727900147
1.68301E+18,8.301399658,0.535899997,0.209999993,-0.976399958,,1.072299957,-0.523800015,9.733699799,,,414,1.608199954,-0.313800022,8.75729984
1.68301E+18,8.321399658,0.430299997,0.353799999,-0.947899997,,1.050400019,-0.549899995,9.734700203,,,415,1.480700016,-0.196099997,8.786800206
1.68301E+18,8.341399658,0.330799997,0.49969998,-1.135100007,,1.032299995,-0.568300009,9.735499382,,,416,1.363099992,-0.068600029,8.600399375
1.68301E+18,8.361399658,0.203099996,0.455799997,-1.380999923,,1.022599936,-0.573499978,9.736199379,,,417,1.225699931,-0.117699981,8.355199456
1.68301E+18,8.381399658,0.228199989,0.377900004,-1.637099981,,1.017199993,-0.564199984,9.737400055,,,418,1.245399982,-0.18629998,8.100300074
1.68301E+18,8.401399658,0.246399999,0.352200001,-1.913399935,,1.008700013,-0.548299968,9.739199638,,,419,1.255100012,-0.196099967,7.825799704
1.68301E+18,8.421399658,0.255099982,0.442000002,-2.219300032,,1.000100017,-0.530299962,9.741000175,,,420,1.255199999,-0.08829996,7.521700144
1.68301E+18,8.441399658,0.233599991,0.511799991,-2.466300011,,0.992199957,-0.511799991,9.742799759,,,421,1.225799948,0,7.276499748
1.68301E+18,8.461399658,0.222899988,0.562599957,-2.389699936,,0.983199954,-0.493999988,9.744699478,,,422,1.206099942,0.068599969,7.354999542
1.68301E+18,8.481399658,0.074599996,0.513999999,-2.263999939,,0.974599957,-0.474799991,9.746500015,,,423,1.049199954,0.039200008,7.482500076
1.68301E+18,8.501399658,0.205299988,0.520599961,-2.069299936,,0.971399963,-0.451899976,9.747900009,,,424,1.176699951,0.068699986,7.678600073
1.68301E+18,8.521399658,0.619799972,0.44569999,-1.637799978,,0.978499949,-0.435900003,9.747900009,,,425,1.598299921,0.009799987,8.110100031
1.68301E+18,8.541399658,0.893000007,0.256199986,-0.509499967,,0.989799976,-0.422899991,9.74739933,,,426,1.882799983,-0.166700006,9.237899363
1.68301E+18,8.561399658,0.895199955,0.0089,0.89199996,,0.987599969,-0.410999984,9.748099327,,,427,1.882799923,-0.402099984,10.64009929
1.68301E+18,8.581399658,1.049299955,-0.325899988,2.166699886,,0.990399957,-0.399699986,9.748299599,,,428,2.039699912,-0.725599974,11.91499949
1.68301E+18,8.601399658,1.217599988,-0.719399989,3.648899794,,1.008399963,-0.388699979,9.746899605,,,429,2.225999951,-1.108099967,13.3957994
1.68301E+18,8.621399658,1.243799925,-0.587799966,4.249300003,,1.031199932,-0.3829,9.744699478,,,430,2.274999857,-0.970699966,13.99399948
1.68301E+18,8.641399658,0.944000006,-0.277500004,3.733199835,,1.066200018,-0.379399985,9.741099358,,,431,2.010200024,-0.656899989,13.47429919
1.68301E+18,8.661399658,0.773400009,-0.413399994,3.208899975,,1.119199991,-0.361200005,9.735799789,,,432,1.8926,-0.774599999,12.94469976
1.68301E+18,8.681399658,0.703599989,-0.61680001,2.959699869,,1.179199934,-0.324599981,9.729999542,,,433,1.882799923,-0.941399992,12.68969941
1.68301E+18,8.701399658,0.32889998,-0.874899983,3.052899837,,1.23029995,-0.282199979,9.724999428,,,434,1.559199929,-1.157099962,12.77789927
1.68301E+18,8.721399658,-0.29549998,-1.185599923,2.919099808,,1.266299963,-0.236299992,9.721599579,,,435,0.970799983,-1.421899915,12.64069939
1.68301E+18,8.741399658,-0.782599986,-1.290799975,2.205600023,,1.292599916,-0.189899996,9.719200134,,,436,0.509999931,-1.480699971,11.92480016
1.68301E+18,8.761399658,-1.237599969,-1.030399919,1.178499937,,1.315999985,-0.15609999,9.716599464,,,437,0.078400016,-1.186499909,10.8950994
1.68301E+18,8.781399658,-1.442999959,-0.702199996,0.358399987,,1.344900012,-0.141099989,9.712900162,,,438,-0.098099947,-0.843299985,10.07130015
1.68301E+18,8.801399658,-1.561800003,-0.484699994,-0.0308,,1.365700006,-0.14289999,9.710000038,,,439,-0.196099997,-0.627599984,9.679200038
1.68301E+18,8.821402832,-1.513199925,-0.344300002,-0.069799997,,1.366099954,-0.155699998,9.709699631,,,440,-0.147099972,-0.5,9.639899634
1.68301E+18,8.841399658,-1.279699922,-0.064300001,-0.111099996,,1.348399997,-0.180799991,9.711799622,,,441,0.068700075,-0.245099992,9.600699626
1.68301E+18,8.861399658,-1.078999996,0.215700001,-0.221499994,,1.324199915,-0.215700001,9.714399338,,,442,0.245199919,0,9.492899343
1.68301E+18,8.881401367,-0.804499984,0.3213,-0.488099992,,1.304700017,-0.252700001,9.716099739,,,443,0.500200033,0.068599999,9.227999747
1.68301E+18,8.901399658,-0.500499964,0.372299999,-0.959199965,,1.294799924,-0.283999979,9.716599464,,,444,0.79429996,0.08830002,8.757399499
1.68301E+18,8.921399658,-0.283199996,0.312700003,-1.272400022,,1.293299913,-0.312700003,9.715899467,,,445,1.010099918,0,8.443499446
1.68301E+18,8.941399658,-0.331200004,0.342099994,-1.457899928,,1.292199969,-0.342099994,9.715099335,,,446,0.960999966,0,8.257199407
1.68301E+18,8.961401367,-0.456399977,0.416199982,-1.467999935,,1.280099988,-0.377000004,9.715399742,,,447,0.823700011,0.039199978,8.247399807
1.68301E+18,8.981399658,-0.482299984,0.587099969,-1.320799947,,1.266799927,-0.420399994,9.715299606,,,448,0.784499943,0.166699976,8.39449966
1.68301E+18,9.001399658,-0.452099979,0.792099953,-1.192499995,,1.256199956,-0.468499988,9.714499474,,,449,0.804099977,0.323599964,8.521999478
1.68301E+18,9.021401367,-0.555499971,0.977799952,-1.121999979,,1.251799941,-0.516799986,9.712599754,,,450,0.69629997,0.460999966,8.590599775
1.68301E+18,9.041399658,-0.748299956,1.157500029,-1.129899979,,1.248399973,-0.559300005,9.710700035,,,451,0.500100017,0.598200023,8.580800056
1.68301E+18,9.061399658,-0.897099972,1.208899975,-1.166999936,,1.250199914,-0.590999961,9.708600044,,,452,0.353099942,0.617900014,8.541600108
1.68301E+18,9.081399658,-0.970399976,1.176499963,-1.381099939,,1.254699945,-0.607800007,9.706999779,,,453,0.28429997,0.568699956,8.325899839
1.68301E+18,9.101399658,-0.907799959,1.073699951,-1.556599975,,1.260800004,-0.612800002,9.705900192,,,454,0.353000045,0.460899949,8.149300218
1.68301E+18,9.121399658,-0.832399964,0.982299984,-1.889799953,,1.263899922,-0.609699965,9.705699921,,,455,0.431499958,0.372600019,7.815899968
1.68301E+18,9.141399658,-0.667699993,0.845399976,-2.056799889,,1.265900016,-0.600300014,9.705999374,,,456,0.598200023,0.245099962,7.649199486
1.68301E+18,9.161401367,-0.45569998,0.757499993,-1.920899987,,1.259899974,-0.590799987,9.707399368,,,457,0.804199994,0.166700006,7.786499381
1.68301E+18,9.181401367,-0.344899982,0.719699979,-1.648499966,,1.247099996,-0.582399964,9.709499359,,,458,0.902200013,0.137300014,8.060999393
1.68301E+18,9.201399658,-0.123999998,0.75150001,-1.405599952,,1.23210001,-0.574999988,9.711899757,,,459,1.108100012,0.176500022,8.306299806
1.68301E+18,9.221399658,-0.155900002,0.603999972,-0.848199964,,1.224799991,-0.564799964,9.713399887,,,460,1.068899989,0.039200008,8.865199924
1.68301E+18,9.241399658,-0.0491,0.188899994,0.15259999,,1.235700011,-0.551800013,9.712800026,,,461,1.186600011,-0.362900019,9.865400016
1.68301E+18,9.261399658,0.416399986,-0.252999991,1.771999955,,1.25059998,-0.541199982,9.711400032,,,462,1.666999966,-0.794199973,11.48339999
1.68301E+18,9.281399658,0.654399991,-0.308499992,3.17419982,,1.248000026,-0.544499993,9.71159935,,,463,1.902400017,-0.852999985,12.88579917
1.68301E+18,9.301399658,0.59799999,-0.078999996,4.036399841,,1.235800028,-0.558399975,9.712399483,,,464,1.833800018,-0.637399971,13.74879932
1.68301E+18,9.321401367,0.48179999,-0.0121,4.192399979,,1.224499941,-0.566399992,9.713399887,,,465,1.706299931,-0.578499991,13.90579987
1.68301E+18,9.341399658,0.616699994,-0.0801,3.927399874,,1.226899981,-0.557299972,9.713600159,,,466,1.843599975,-0.637399971,13.64100003
1.68301E+18,9.361399658,0.755199969,-0.554399967,3.98669982,,1.245199919,-0.524199963,9.71309948,,,467,2.000399888,-1.07859993,13.6997993
1.68301E+18,9.381401367,0.782499969,-0.907299995,4.16230011,,1.257200003,-0.475299984,9.713999748,,,468,2.039699972,-1.38259998,13.87629986
1.68301E+18,9.401399658,0.428299993,-0.905499995,3.581599951,,1.258399963,-0.42809999,9.716099739,,,469,1.686699957,-1.333599985,13.29769969
1.68301E+18,9.421401367,0.082199998,-0.84009999,2.393599987,,1.261199951,-0.385600001,9.717499733,,,470,1.343399949,-1.225699991,12.11109972
1.68301E+18,9.441399658,0.187099993,-0.807099998,1.539499998,,1.264099956,-0.349999994,9.718500137,,,471,1.451199949,-1.157099992,11.25800014
1.68301E+18,9.461401367,0.425999999,-0.649599969,0.998999953,,1.260599971,-0.331,9.719599724,,,472,1.68659997,-0.98059997,10.71859968
1.68301E+18,9.481399658,0.3926,-0.436800003,0.692900002,,1.245100021,-0.327999979,9.721699715,,,473,1.637700021,-0.764799982,10.41459972
1.68301E+18,9.501399658,0.294699997,-0.175899997,0.404899985,,1.215399981,-0.333999991,9.725199699,,,474,1.510099977,-0.509899989,10.13009968
1.68301E+18,9.521401367,0.208099991,0.046299998,-0.109699994,,1.174600005,-0.340499997,9.729999542,,,475,1.382699996,-0.294199999,9.620299548
1.68301E+18,9.541401367,0.262999982,0.166299999,-0.62379998,,1.139199972,-0.342799991,9.734199524,,,476,1.402199954,-0.176499993,9.110399544
1.68301E+18,9.561399658,0.467500001,0.2509,-1.175199986,,1.121099949,-0.339100003,9.736399651,,,477,1.58859995,-0.088200003,8.561199665
1.68301E+18,9.581399658,0.583599985,0.310599983,-1.686399937,,1.112900019,-0.330199987,9.737599373,,,478,1.696500003,-0.019600004,8.051199436
1.68301E+18,9.601399658,0.532899976,0.335999995,-2.227099895,,1.104699969,-0.316399992,9.738999367,,,479,1.637599945,0.019600004,7.511899471
1.68301E+18,9.621399658,0.268599987,0.314899981,-2.572199821,,1.094499946,-0.295300007,9.74090004,,,480,1.363099933,0.019599974,7.168700218
1.68301E+18,9.641399658,-0.049899999,0.2685,-2.535399914,,1.079599977,-0.2685,9.743299484,,,481,1.029699977,0,7.20789957
1.68301E+18,9.661401367,-0.265599996,0.189099997,-2.253999949,,1.059999943,-0.238099992,9.746199608,,,482,0.794399947,-0.048999995,7.492199659
1.68301E+18,9.681401367,-0.331099987,-0.051099997,-1.856099963,,1.027400017,-0.203799993,9.750499725,,,483,0.69630003,-0.25489999,7.894399762
1.68301E+18,9.701399658,-0.145300001,-0.212299988,-1.41079998,,0.978899956,-0.160300002,9.756299973,,,484,0.833599955,-0.372599989,8.345499992
1.68301E+18,9.721399658,0.184799999,-0.261399984,-0.995099962,,0.923199952,-0.120899998,9.762299538,,,485,1.107999951,-0.382299982,8.767199576
1.68301E+18,9.741401367,0.346799999,-0.240499988,-0.783800006,,0.878899992,-0.092799999,9.766699791,,,486,1.225699991,-0.333299987,8.982899785
1.68301E+18,9.761399658,0.619199991,-0.229899988,-0.814099967,,0.871299982,-0.074000001,9.767499924,,,487,1.490499973,-0.303899989,8.953399956
1.68301E+18,9.781399658,0.695800006,-0.252099991,-0.969999969,,0.882999957,-0.061699998,9.766599655,,,488,1.578799963,-0.313799988,8.796599686
1.68301E+18,9.801399658,0.236299992,-0.157899991,-0.880099952,,0.901199996,-0.057799999,9.764900208,,,489,1.137499988,-0.215699989,8.884800255
1.68301E+18,9.821401367,-0.0766,0.032199997,-1.209800005,,0.939599991,-0.071400002,9.761199951,,,490,0.862999991,-0.039200004,8.551399946
1.68301E+18,9.841399658,0.215399995,0.268000007,-1.606599927,,0.990699947,-0.101199999,9.755899429,,,491,1.206099942,0.166800007,8.149299502
1.68301E+18,9.861399658,0.281699985,0.579299986,-1.427299976,,1.012699962,-0.137999997,9.753199577,,,492,1.294399947,0.44129999,8.325899601
1.68301E+18,9.881401367,0.089899994,0.797699988,-1.103699923,,1.008299947,-0.170099989,9.753099442,,,493,1.098199941,0.627599999,8.649399519
1.68301E+18,9.901399658,-0.225400001,0.639999986,-0.485299975,,1.00999999,-0.188899994,9.752599716,,,494,0.78459999,0.451099992,9.267299742
1.68301E+18,9.921399658,-0.224199995,0.280599982,0.848399997,,1.008700013,-0.202199996,9.75249958,,,495,0.784500018,0.078399986,10.60089958
1.68301E+18,9.941399658,0.296499997,-0.207999989,2.876499891,,0.988099992,-0.213599995,9.754300117,,,496,1.28459999,-0.421599984,12.63080001
1.68301E+18,9.961401367,0.964899957,-0.391799986,4.472199917,,0.957099974,-0.225999996,9.757199287,,,497,1.921999931,-0.617799982,14.2293992
1.68301E+18,9.981399658,1.126299977,-0.346199989,4.872299671,,0.932999969,-0.2421,9.75909996,,,498,2.059299946,-0.58829999,14.63139963
1.68301E+18,10.00139966,0.983699977,-0.027099999,3.335199833,,0.957899988,-0.247400001,9.756599426,,,499,1.941599965,-0.274499999,13.09179926
1.68301E+18,10.02140137,0.334199995,-0.0252,1.9102,,1.028800011,-0.229699999,9.749799728,,,500,1.363000005,-0.254899999,11.65999973
1.68301E+18,10.04139966,-0.297800004,-0.602999985,2.026599884,,1.111799955,-0.201099992,9.741299629,,,501,0.813999951,-0.804099977,11.76789951
1.68301E+18,10.06139966,-0.961499989,-1.097499967,2.804899931,,1.147799969,-0.167499989,9.737699509,,,502,0.18629998,-1.264999956,12.54259944
1.68301E+18,10.08139966,-1.118700027,-1.080299973,3.480199814,,1.138299942,-0.15519999,9.739099503,,,503,0.019599915,-1.235499963,13.21929932
1.68301E+18,10.10140283,-1.210199952,-0.791899979,3.291999817,,1.121899962,-0.159299999,9.74090004,,,504,-0.08829999,-0.951199979,13.03289986
1.68301E+18,10.12139966,-0.980699956,-0.605599999,2.06799984,,1.137599945,-0.159299999,9.739099503,,,505,0.156899989,-0.764899999,11.80709934
1.68301E+18,10.14139966,-0.833499968,-0.729200006,1.024299979,,1.186499953,-0.1435,9.733499527,,,506,0.352999985,-0.872700006,10.75779951
1.68301E+18,10.16140137,-0.819000006,-0.886399984,0.567399979,,1.221099973,-0.123599999,9.729499817,,,507,0.402099967,-1.009999983,10.2968998
1.68301E+18,10.18140137,-0.961799979,-0.976099968,0.460099995,,1.226599932,-0.112299994,9.728899956,,,508,0.264799953,-1.088399962,10.18899995
1.68301E+18,10.20139966,-1.240100026,-0.897499979,0.633399963,,1.200899959,-0.112499997,9.732099533,,,509,-0.039200068,-1.009999976,10.3654995
1.68301E+18,10.22139966,-1.452099919,-0.691299975,0.433299989,,1.167699933,-0.122599997,9.736000061,,,510,-0.284399986,-0.813899972,10.16930005
1.68301E+18,10.24140137,-1.497999907,-0.601199985,-0.078999996,,1.144999981,-0.134199992,9.738599777,,,511,-0.352999926,-0.735399976,9.659599781
1.68301E+18,10.26139966,-1.536799908,-0.551499963,-0.47239998,,1.134799957,-0.144699991,9.739600182,,,512,-0.40199995,-0.696199954,9.267200202
1.68301E+18,10.28139966,-1.437099934,-0.468699992,-0.727299988,,1.133099914,-0.158899993,9.739600182,,,513,-0.30400002,-0.627599984,9.012300193
1.68301E+18,10.30139966,-1.295400023,-0.39289999,-0.864799976,,1.128700018,-0.175799996,9.7397995,,,514,-0.166700006,-0.568699986,8.874999523
1.68301E+18,10.32140137,-1.075099945,-0.207800001,-1.15049994,,1.114400029,-0.194199994,9.741099358,,,515,0.039300084,-0.401999995,8.590599418
1.68301E+18,10.34139966,-0.881899953,-0.058399998,-1.446099997,,1.0977,-0.216099992,9.742599487,,,516,0.215800047,-0.27449999,8.296499491
1.68301E+18,10.36139966,-0.789699972,0.043399997,-1.515799999,,1.083899975,-0.239500001,9.743599892,,,517,0.294200003,-0.196100004,8.227799892
1.68301E+18,10.38140137,-0.862800002,-0.037,-1.467999935,,1.068699956,-0.257099986,9.744799614,,,518,0.205899954,-0.294099987,8.276799679
1.68301E+18,10.40139966,-1.051100016,-0.143099993,-1.400900006,,1.051100016,-0.268599987,9.746399879,,,519,0,-0.41169998,8.345499873
1.68301E+18,10.42139966,-1.109599948,-0.25059998,-1.118399978,,1.031199932,-0.278899997,9.748199463,,,520,-0.078400016,-0.529499978,8.629799485
1.68301E+18,10.44139966,-1.225700021,-0.346399993,-0.453399986,,1.00999999,-0.290999979,9.750100136,,,521,-0.21570003,-0.637399971,9.29670015
1.68301E+18,10.46140137,-1.315999985,-0.238299996,0.407299995,,0.982599974,-0.310699999,9.752299309,,,522,-0.333400011,-0.548999995,10.1595993
1.68301E+18,10.48139966,-1.138599992,-0.100099996,1.112299919,,0.961999953,-0.341099977,9.753299713,,,523,-0.176600039,-0.441199973,10.86559963
1.68301E+18,10.50139966,-0.863099992,-0.0339,1.211300015,,0.961199999,-0.368099988,9.752399445,,,524,0.098100007,-0.401999988,10.96369946
1.68301E+18,10.52140137,-0.471799999,0.064800002,1.173900008,,0.972000003,-0.388399988,9.750599861,,,525,0.500200003,-0.323599987,10.92449987
1.68301E+18,10.54139966,-0.106399998,0.0222,1.284199953,,0.988999963,-0.404699981,9.748199463,,,526,0.882599965,-0.382499982,11.03239942
1.68301E+18,10.56139966,0.168499991,-0.041200001,1.747699976,,1.00819993,-0.41959998,9.745599747,,,527,1.176699921,-0.460799981,11.49329972
1.68301E+18,10.58139966,0.245199993,0.009699999,2.279000044,,1.019699931,-0.431400001,9.743899345,,,528,1.264899924,-0.421700002,12.02289939
1.68301E+18,10.60139966,0.081599995,0.0167,2.103499889,,1.026499987,-0.4384,9.742899895,,,529,1.108099982,-0.421700001,11.84639978
1.68301E+18,10.62139966,0.072499998,0.111699998,1.350199938,,1.045400023,-0.435299993,9.741000175,,,530,1.117900021,-0.323599994,11.09120011
1.68301E+18,10.64139966,0.0164,0.056499999,0.626699984,,1.072099924,-0.419399977,9.738800049,,,531,1.088499924,-0.362899978,10.36550003
1.68301E+18,10.66140137,0.0074,0.0043,-0.037799999,,1.100600004,-0.396599978,9.736599922,,,532,1.108000004,-0.392299979,9.698799923
1.68301E+18,10.68140137,0.037299998,-0.0416,-0.642399967,,1.139299989,-0.370199978,9.733099937,,,533,1.176599987,-0.411799978,9.090699971
1.68301E+18,10.70139966,-0.054299999,-0.038799997,-1.207000017,,1.182099938,-0.343499988,9.729000092,,,534,1.127799939,-0.382299986,8.522000074
1.68301E+18,10.72139966,-0.197899997,-0.152699992,-1.447399974,,1.227599978,-0.317900002,9.724299431,,,535,1.029699981,-0.470599994,8.276899457
1.68301E+18,10.74140137,-0.310599983,-0.414299995,-0.855499983,,1.261799932,-0.291700006,9.72069931,,,536,0.951199949,-0.706,8.865199327
1.68301E+18,10.76139966,-0.317900002,-0.911599994,0.380199999,,1.269199967,-0.265100002,9.720499992,,,537,0.951299965,-1.176699996,10.10069999
1.68301E+18,10.78139966,-0.138300002,-1.219399929,1.348799944,,1.256299973,-0.241699994,9.722799301,,,538,1.117999971,-1.461099923,11.07159925
1.68301E+18,10.80139966,0.033500001,-1.478399992,1.747200012,,1.23149991,-0.217999995,9.726499557,,,539,1.264999911,-1.696399987,11.47369957
1.68301E+18,10.82140137,0.609699965,-1.769799948,1.353399992,,1.224099994,-0.191399992,9.727999687,,,540,1.833799958,-1.961199939,11.08139968
1.68301E+18,10.84139966,0.941699982,-2.054899931,0.953499973,,1.245100021,-0.161299989,9.725899696,,,541,2.186800003,-2.21619992,10.67939967
1.68301E+18,10.86140283,1.175099969,-1.914099932,0.898399949,,1.27639997,-0.145199999,9.722099304,,,542,2.451499939,-2.059299931,10.62049925
1.68301E+18,10.88140137,1.047399998,-1.480499983,0.8829,,1.306100011,-0.157099992,9.717999458,,,543,2.353500009,-1.637599975,10.60089946
1.68301E+18,10.90139966,0.775599957,-0.947799981,0.5255,,1.342599988,-0.179899991,9.712599754,,,544,2.118199944,-1.127699971,10.23809975
1.68301E+18,10.92139966,0.358799994,-0.844699979,-0.29429999,,1.3671,-0.20449999,9.70870018,,,545,1.725899994,-1.049199969,9.41440019
1.68301E+18,10.94139966,-0.0188,-0.711199999,-0.955899954,,1.401499987,-0.220299989,9.703399658,,,546,1.382699987,-0.931499988,8.747499704
1.68301E+18,10.96140137,-0.294,-0.683600008,-1.36439991,,1.421800017,-0.238199994,9.700099945,,,547,1.127800018,-0.921800002,8.335700035
1.68301E+18,10.98139966,-0.194199994,-0.546099961,-1.459100008,,1.439700007,-0.267699987,9.69659996,,,548,1.245500013,-0.813799948,8.237499952
1.68301E+18,11.00139966,-0.0964,-0.24589999,-1.163100004,,1.439899921,-0.322799981,9.694899559,,,549,1.343499921,-0.568699971,8.531799555
1.68301E+18,11.02140137,-0.114599995,0.057099998,-0.82889998,,1.42869997,-0.390599996,9.694099426,,,550,1.314099975,-0.333499998,8.865199447
1.68301E+18,11.04140137,-0.247899994,0.355199993,-0.562900007,,1.414899945,-0.463099986,9.692899704,,,551,1.166999951,-0.107899994,9.129999697
1.68301E+18,11.06139966,-0.540300012,0.534099996,-0.364799976,,1.403299928,-0.534099996,9.690999985,,,552,0.862999916,0,9.326200008
1.68301E+18,11.08139966,-0.598800004,0.643899977,-0.203799993,,1.402999997,-0.604699969,9.686900139,,,553,0.804199994,0.039200008,9.483100146
1.68301E+18,11.10139966,-0.552699983,0.739899993,-0.138799995,,1.415599942,-0.671199977,9.680600166,,,554,0.862899959,0.068700016,9.541800171
1.68301E+18,11.12139966,-0.240899995,0.889599979,0.191,,1.42750001,-0.73269999,9.674399376,,,555,1.186600015,0.156899989,9.865399376
1.68301E+18,11.14139966,0.148599997,1.028399944,0.343199998,,1.430199981,-0.792999983,9.669300079,,,556,1.578799978,0.235399961,10.01250008
1.68301E+18,11.16140137,0.64410001,1.237599969,0.367399991,,1.424999952,-0.855099976,9.664699554,,,557,2.069099963,0.382499993,10.03209955
1.68301E+18,11.18140137,0.894699991,1.364799976,0.362100005,,1.41960001,-0.913699985,9.660200119,,,558,2.314300001,0.451099992,10.02230012
1.68301E+18,11.20139966,0.921099961,1.366699934,0.611199975,,1.412699938,-0.964699984,9.656199455,,,559,2.333799899,0.40199995,10.26739943
1.68301E+18,11.22139966,0.662099957,1.451399922,0.73269999,,1.406999946,-1.010100007,9.652400017,,,560,2.069099903,0.441299915,10.38510001
1.68301E+18,11.24139966,0.299999982,1.568599939,0.423299998,,1.416099906,-1.039099932,9.647999763,,,561,1.716099888,0.529500008,10.07129976
1.68301E+18,11.26139966,-0.265100002,1.499499917,0.053999998,,1.432099938,-1.048399925,9.644599915,,,562,1.166999936,0.451099992,9.698599912
1.68301E+18,11.28139966,-0.568099976,1.394400001,-0.218400002,,1.450699925,-1.041299939,9.64260006,,,563,0.88259995,0.353100061,9.424200058
1.68301E+18,11.30139966,-0.869099975,1.028100014,-0.2086,,1.467399955,-1.018299937,9.64260006,,,564,0.59829998,0.009800076,9.43400006
1.68301E+18,11.32140137,-0.788399994,0.36679998,0.544099987,,1.474799991,-0.984699965,9.644899368,,,565,0.686399996,-0.617899984,10.18899935
1.68301E+18,11.34139966,-0.298799992,-0.449499995,2.303200006,,1.45599997,-0.952699959,9.651000023,,,566,1.157199979,-1.402199954,11.95420003
1.68301E+18,11.36139966,0.1461,-0.492199987,3.735699892,,1.403299928,-0.939499974,9.660099983,,,567,1.549399927,-1.431699961,13.39579988
1.68301E+18,11.38140137,0.310299993,-0.266299993,3.610999823,,1.346899986,-0.949599981,9.667099953,,,568,1.657199979,-1.215899974,13.27809978
1.68301E+18,11.40139966,0.684599996,-0.090499997,1.690899968,,1.355099916,-0.958700001,9.665100098,,,569,2.039699912,-1.049199998,11.35600007
1.68301E+18,11.42139966,0.465399981,-0.228099987,0.077399999,,1.407599926,-0.92899996,9.660499573,,,570,1.872999907,-1.157099947,9.737899572
1.68301E+18,11.44139966,0.34829998,-0.264400005,-0.476199985,,1.465899944,-0.892699957,9.655200005,,,571,1.814199924,-1.157099962,9.17900002
1.68301E+18,11.46140137,-0.389699996,-0.38409999,-0.57069999,,1.50759995,-0.861299992,9.65170002,,,572,1.117899954,-1.245399982,9.08100003
1.68301E+18,11.48139966,-1.125199914,-0.718800008,-0.580900013,,1.527199984,-0.820800006,9.652099609,,,573,0.40200007,-1.539600015,9.071199596
1.68301E+18,11.50139966,-1.514699936,-0.997699976,-0.400999993,,1.514699936,-0.767399967,9.658499718,,,574,0,-1.765099943,9.257499725
1.68301E+18,11.52140137,-1.496099949,-1.286499977,0.128999993,,1.476499915,-0.723800004,9.667699814,,,575,-0.019600034,-2.010299981,9.796699807
1.68301E+18,11.54139966,-0.997699976,-1.288499951,0.31099999,,1.458599925,-0.702199996,9.672100067,,,576,0.460899949,-1.990699947,9.983100057
1.68301E+18,11.56139966,-0.759000003,-1.333699942,0.447399974,,1.455299973,-0.696099997,9.672999382,,,577,0.69629997,-2.029799938,10.12039936
1.68301E+18,11.58139966,-0.570599973,-1.263999939,0.417699993,,1.453199983,-0.6972,9.673199654,,,578,0.882600009,-1.961199939,10.09089965
1.68301E+18,11.60139966,-0.480399996,-1.185799956,0.398499995,,1.451299906,-0.706699967,9.672800064,,,579,0.97089991,-1.892499924,10.07130006
1.68301E+18,11.62139966,-0.371199995,-0.878799975,0.409799993,,1.449899912,-0.729399979,9.671299934,,,580,1.078699917,-1.608199954,10.08109993
1.68301E+18,11.64139966,-0.514499962,-0.492899984,0.5,,1.446099997,-0.762199998,9.669400215,,,581,0.931600034,-1.255099982,10.16940022
1.68301E+18,11.66139966,-0.918899953,-0.121699996,0.472499996,,1.438599944,-0.799999952,9.667399406,,,582,0.519699991,-0.921699949,10.1398994
1.68301E+18,11.68140137,-1.258999944,0.135600001,0.278600007,,1.435599923,-0.831900001,9.66519928,,,583,0.176599979,-0.6963,9.943799287
1.68301E+18,11.70139966,-1.492799997,0.237599999,0.152999997,,1.433899999,-0.855399966,9.663399696,,,584,-0.058899999,-0.617799968,9.816399693
1.68301E+18,11.72139966,-1.609099984,0.260600001,-0.110699996,,1.432600021,-0.868599951,9.662399292,,,585,-0.176499963,-0.607999951,9.551699296
1.68301E+18,11.74140137,-1.718899965,0.206199989,-0.26699999,,1.434499979,-0.873099983,9.661699295,,,586,-0.284399986,-0.666899994,9.394699305
1.68301E+18,11.76139966,-1.728799939,0.116499998,-0.355299979,,1.434599996,-0.871699989,9.661799431,,,587,-0.294199944,-0.755199991,9.306499451
1.68301E+18,11.78139966,-1.723500013,0.075300001,-0.689700007,,1.429299951,-0.869599998,9.662799835,,,588,-0.294200063,-0.794299997,8.973099828
1.68301E+18,11.80139966,-1.433599949,0.158999994,-1.012199998,,1.433599949,-0.874899983,9.661699295,,,589,0,-0.715899989,8.649499297
1.68301E+18,11.82139966,-1.182999969,0.221299991,-1.128099918,,1.437999964,-0.888099968,9.659799576,,,590,0.254999995,-0.666799977,8.531699657
1.68301E+18,11.84139966,-0.801400006,0.3398,-1.047600031,,1.438799977,-0.908599973,9.657799721,,,591,0.637399971,-0.568799973,8.61019969
1.68301E+18,11.86139966,-0.599699974,0.501599967,-0.947999954,,1.433200002,-0.933099985,9.656299591,,,592,0.833500028,-0.431500018,8.708299637
1.68301E+18,11.88140137,-0.501999974,0.462499976,-0.681699991,,1.423799992,-0.96269995,9.654799461,,,593,0.921800017,-0.500199974,8.97309947
1.68301E+18,11.90139966,-0.36649999,0.514899969,-0.248099998,,1.415899992,-0.995499969,9.652599335,,,594,1.049400002,-0.480599999,9.404499337
1.68301E+18,11.92139966,-0.175300002,0.542199969,0.351799995,,1.401199937,-1.032500029,9.650899887,,,595,1.225899935,-0.490300059,10.00269988
1.68301E+18,11.94139966,-0.0068,0.618399978,0.892099977,,1.379699945,-1.069499969,9.649999619,,,596,1.372899946,-0.451099992,10.5420996
1.68301E+18,11.96140137,-0.060699999,0.695499957,1.38319993,,1.355199933,-1.10739994,9.649199486,,,597,1.294499934,-0.411899984,11.03239942
1.68301E+18,11.98139966,-0.22649999,0.906399965,1.580500007,,1.334699988,-1.141700029,9.647999763,,,598,1.108199999,-0.235300064,11.22849977
1.68301E+18,12.00139966,-0.373099983,0.964399993,1.385200024,,1.324299932,-1.16049993,9.647199631,,,599,0.951199949,-0.196099937,11.03239965
1.68301E+18,12.02140137,-0.489299983,0.875499964,0.894799948,,1.332700014,-1.150099993,9.647299767,,,600,0.843400031,-0.274600029,10.54209971
1.68301E+18,12.04139966,-0.409099996,0.207999989,1.305799961,,1.360299945,-1.110199928,9.648099899,,,601,0.951199949,-0.902199939,10.95389986
1.68301E+18,12.06139966,-0.418499976,-0.49089998,2.342599869,,1.389299989,-1.048699975,9.650899887,,,602,0.970800012,-1.539599955,11.99349976
1.68301E+18,12.08139966,-0.599999964,-0.75999999,2.710700035,,1.404099941,-0.985399961,9.655399323,,,603,0.804099977,-1.745399952,12.36609936
1.68301E+18,12.10139966,-0.794200003,-0.858599961,2.100800037,,1.431599975,-0.926099956,9.65719986,,,604,0.637399971,-1.784699917,11.7579999
1.68301E+18,12.12139966,-0.98089999,-1.03610003,1.000499964,,1.461399913,-0.85649997,9.659199715,,,605,0.480499923,-1.8926,10.65969968
1.68301E+18,12.14139966,-0.756199956,-1.218400002,-0.089599997,,1.491699934,-0.782099962,9.660900116,,,606,0.735499978,-2.000499964,9.571300119
1.68301E+18,12.16139966,-0.431199998,-1.318199992,-1.293799996,,1.539299965,-0.711600006,9.658800125,,,607,1.108099967,-2.029799998,8.365000129
1.68301E+18,12.18140137,-0.273499995,-1.485599995,-1.876899958,,1.59739995,-0.652199984,9.653599739,,,608,1.323899955,-2.137799978,7.776699781
1.68301E+18,12.20139966,-0.394699991,-1.412599921,-1.402999997,,1.630399942,-0.617299974,9.650400162,,,609,1.235699952,-2.029899895,8.247400165
1.68301E+18,12.22139966,-0.531399965,-1.194800019,-0.227799997,,1.620000005,-0.619399965,9.651999474,,,610,1.088600039,-1.814199984,9.424199477
1.68301E+18,12.24140137,-0.469599992,-0.861399949,0.64139998,,1.587499976,-0.648699999,9.655499458,,,611,1.117899984,-1.510099947,10.29689944
1.68301E+18,12.26139966,-0.640999973,-0.651499987,1.038599968,,1.543200016,-0.682099998,9.660299301,,,612,0.902200043,-1.333599985,10.69889927
1.68301E+18,12.28139966,-0.639099956,-0.523299992,1.062999964,,1.501999974,-0.702399969,9.665399551,,,613,0.862900019,-1.225699961,10.72839952
1.68301E+18,12.30139966,-0.577099979,-0.586399972,1.146700025,,1.469499946,-0.708000004,9.670000076,,,614,0.892399967,-1.294399977,10.8167001
1.68301E+18,12.32140137,-0.349599987,-0.67899996,1.152899981,,1.447999954,-0.703599989,9.673500061,,,615,1.098399967,-1.38259995,10.82640004
1.68301E+18,12.34139966,-0.249899998,-0.622299969,0.669799984,,1.436499953,-0.691699982,9.676099777,,,616,1.186599955,-1.313999951,10.34589976
1.68301E+18,12.36139966,-0.189699993,-0.519199967,0.060599998,,1.435199976,-0.677100003,9.6772995,,,617,1.245499983,-1.19629997,9.737899497
1.68301E+18,12.38140137,-0.221699998,-0.416699976,-0.371499985,,1.437799931,-0.661899984,9.677999496,,,618,1.216099933,-1.07859996,9.306499511
1.68301E+18,12.40139966,-0.171700001,-0.272899985,-0.715799987,,1.436699986,-0.648799956,9.679100037,,,619,1.264999986,-0.921699941,8.963300049
1.68301E+18,12.42139966,-0.115999997,-0.144599989,-0.862999976,,1.439899921,-0.639800012,9.679200172,,,620,1.323899925,-0.784400001,8.816200197
1.68301E+18,12.44139966,-0.167999998,0.030199999,-0.754799962,,1.442799926,-0.638199985,9.678899765,,,621,1.274799928,-0.607999986,8.924099803
1.68301E+18,12.46140137,-0.212399989,0.192599997,-0.627599955,,1.438300014,-0.643700004,9.679200172,,,622,1.225900024,-0.451100007,9.051600218
1.68301E+18,12.48139966,-0.274399996,0.346199989,-0.570800006,,1.421700001,-0.650200009,9.681200027,,,623,1.147300005,-0.30400002,9.110400021
1.68301E+18,12.50139966,-0.303799987,0.451799989,-0.553499997,,1.402099967,-0.657700002,9.683499336,,,624,1.09829998,-0.205900013,9.12999934
1.68301E+18,12.52140137,-0.188799992,0.523099959,-0.368799984,,1.385200024,-0.67019999,9.685099602,,,625,1.196400031,-0.147100031,9.316299617
1.68301E+18,12.54140137,-0.011,0.580500007,-0.418099999,,1.37409997,-0.688399971,9.685400009,,,626,1.36309997,-0.107899964,9.26730001
1.68301E+18,12.56139966,0.2491,0.708899975,-0.554699957,,1.368899941,-0.708899975,9.684700012,,,627,1.617999941,0,9.130000055
1.68301E+18,12.58139966,0.433999985,0.764199972,-0.495099992,,1.360499978,-0.734799981,9.683899879,,,628,1.794499964,0.029399991,9.188799888
1.68301E+18,12.60139966,0.581200004,0.846399963,-0.46449998,,1.350600004,-0.768000007,9.682700157,,,629,1.931800008,0.078399956,9.218200177
1.68301E+18,12.62139966,0.698499978,0.904499948,-0.256699979,,1.341199994,-0.806400001,9.68089962,,,630,2.039699972,0.098099947,9.424199641
1.68301E+18,12.64139966,0.739600003,1.046999931,0.0003,,1.32949996,-0.850899994,9.678699493,,,631,2.069099963,0.196099937,9.678999493
1.68301E+18,12.66139966,0.61500001,1.243700027,0.258100003,,1.316799998,-0.9005,9.675999641,,,632,1.931800008,0.343200028,9.934099644
1.68301E+18,12.68140137,0.321799994,1.431199908,0.555599988,,1.305999994,-0.950599968,9.672599792,,,633,1.627799988,0.48059994,10.22819978
1.68301E+18,12.70139966,0.024599999,1.515200019,0.745499969,,1.299199939,-0.995499969,9.668999672,,,634,1.323799938,0.51970005,10.41449964
1.68301E+18,12.72139966,-0.317000002,1.535599947,0.904100001,,1.287899971,-1.025599957,9.667399406,,,635,0.970899969,0.50999999,10.57149941
1.68301E+18,12.74139966,-0.557699978,1.472899914,0.825399995,,1.273599982,-1.041399956,9.667599678,,,636,0.715900004,0.431499958,10.49299967
1.68301E+18,12.76139966,-0.616599977,1.318799973,0.824400008,,1.263899922,-1.044199944,9.668600082,,,637,0.647299945,0.274600029,10.49300009
1.68301E+18,12.78139966,-0.599299967,1.055099964,0.938899994,,1.246500015,-1.03549993,9.67179966,,,638,0.647200048,0.019600034,10.61069965
1.68301E+18,12.80139966,-0.406599998,0.613900006,1.276799917,,1.220600009,-1.016000032,9.677100182,,,639,0.81400001,-0.402100027,10.9539001
1.68301E+18,12.82140137,-0.16579999,0.174699992,1.465699911,,1.18569994,-0.988599956,9.684299469,,,640,1.019899949,-0.813899964,11.14999938
1.68301E+18,12.84139966,0.058499999,-0.214599997,1.546800017,,1.147599936,-0.962099969,9.691599846,,,641,1.206099935,-1.176699966,11.23839986
1.68301E+18,12.86139966,0.323899984,-0.550099969,1.707799911,,1.117599964,-0.940499961,9.697199821,,,642,1.441499949,-1.49059993,11.40499973
1.68301E+18,12.88140137,0.559099972,-0.650599957,2.0072999,,1.08829999,-0.928199947,9.701700211,,,643,1.647399962,-1.578799903,11.70900011
1.68301E+18,12.90139966,0.488999993,-0.600300014,2.05340004,,1.060400009,-0.929499984,9.704699516,,,644,1.549400002,-1.529799998,11.75809956
1.68301E+18,12.92139966,0.196999997,-0.343099982,1.668799996,,1.038499951,-0.931699991,9.706799507,,,645,1.235499948,-1.274799973,11.3755995
1.68301E+18,12.94139966,-0.258100003,-0.178899989,0.90199995,,1.023100019,-0.929099977,9.70870018,,,646,0.765000015,-1.107999966,10.61070013
1.68301E+18,12.96139966,-0.749899983,-0.087499999,-0.138799995,,1.024500012,-0.912699997,9.710100174,,,647,0.274600029,-1.000199996,9.571300179
1.68301E+18,12.98139966,-1.141600013,-0.34889999,-0.924600005,,1.043499947,-0.876899958,9.711400032,,,648,-0.098100066,-1.225799948,8.786800027
1.68301E+18,13.00139966,-1.160099983,-0.734499991,-1.405599952,,1.081599951,-0.824699998,9.711799622,,,649,-0.078500032,-1.559199989,8.30619967
1.68301E+18,13.02140137,-1.08859992,-0.909999967,-1.268100023,,1.118099928,-0.776600003,9.71159935,,,650,0.029500008,-1.68659997,8.443499327
1.68301E+18,13.04140137,-1.056100011,-0.845299959,-0.718899965,,1.134500027,-0.753099978,9.71159935,,,651,0.078400016,-1.598399937,8.992699385
1.68301E+18,13.06139966,-1.158900023,-0.770799994,-0.0137,,1.129499912,-0.74909997,9.712499619,,,652,-0.02940011,-1.519899964,9.698799619
1.68301E+18,13.08139966,-0.946999967,-0.643599987,0.464899987,,1.113699913,-0.748899996,9.714300156,,,653,0.166699946,-1.392499983,10.17920014
1.68301E+18,13.10139966,-0.715799987,-0.58160001,0.834899962,,1.088400006,-0.751999974,9.716899872,,,654,0.372600019,-1.333599985,10.55179983
1.68301E+18,13.12139966,-0.485299975,-0.358500004,0.804399967,,1.073599935,-0.759299994,9.717999458,,,655,0.58829996,-1.117799997,10.52239943
1.68301E+18,13.14139966,-0.67899996,-0.244599998,0.343699992,,1.071200013,-0.765399992,9.71780014,,,656,0.392200053,-1.00999999,10.06150013
1.68301E+18,13.16139966,-0.682799995,-0.19309999,-0.537899971,,1.084900022,-0.757999957,9.716899872,,,657,0.402100027,-0.951099947,9.178999901
1.68301E+18,13.18140137,-0.609399974,-0.129299998,-1.135499954,,1.099799991,-0.743399978,9.716300011,,,658,0.490400016,-0.872699976,8.580800056
1.68301E+18,13.20139966,-0.416799992,0.0118,-1.477699995,,1.113099933,-0.737499952,9.715299606,,,659,0.69629994,-0.725699953,8.237599611
1.68301E+18,13.22139966,-0.293199986,0.243299991,-1.534500003,,1.126799941,-0.743499994,9.713199615,,,660,0.833599955,-0.500200003,8.178699613
1.68301E+18,13.24140137,-0.38439998,0.503300011,-1.532999992,,1.129699945,-0.758300006,9.711699486,,,661,0.745299965,-0.254999995,8.178699493
1.68301E+18,13.26140283,-0.569599986,0.809399962,-1.639299989,,1.128499985,-0.779899955,9.710199356,,,662,0.558899999,0.029500008,8.070899367
1.68301E+18,13.28139966,-0.698799968,1.109799981,-1.744799972,,1.130299926,-0.805799961,9.707799911,,,663,0.431499958,0.30400002,7.96299994
1.68301E+18,13.30139966,-0.848399997,1.389400005,-1.958199978,,1.132799983,-0.830500007,9.705499649,,,664,0.284399986,0.558899999,7.747299671
1.68301E+18,13.32140137,-0.975600004,1.525900006,-2.406599998,,1.14230001,-0.849299967,9.702699661,,,665,0.166700006,0.676600039,7.296099663
1.68301E+18,13.34139966,-1.127099991,1.696299911,-2.893999815,,1.156499982,-0.862800002,9.699899673,,,666,0.029399991,0.833499908,6.805899858
1.68301E+18,13.36139966,-1.243099928,1.816499949,-3.137099981,,1.164600015,-0.875099957,9.697799683,,,667,-0.078499913,0.941399992,6.560699701
1.68301E+18,13.38140137,-1.263499975,1.768000007,-3.27339983,,1.165400028,-0.885399997,9.696799278,,,668,-0.098099947,0.882600009,6.423399448
1.68301E+18,13.40139966,-1.120899916,1.689700007,-2.733799934,,1.160099983,-0.895299971,9.696499825,,,669,0.039200068,0.794400036,6.96269989
1.68301E+18,13.42139966,-0.916399956,1.56190002,-1.567099929,,1.14199996,-0.914599955,9.696799278,,,670,0.225600004,0.647300065,8.129699349
1.68301E+18,13.44139966,-0.913100004,1.621399999,-0.291999996,,1.118999958,-0.944700003,9.69659996,,,671,0.205899954,0.676699996,9.404599965
1.68301E+18,13.46140137,-0.925999999,1.702799916,0.602699995,,1.112299919,-0.977099955,9.694199562,,,672,0.18629992,0.725699961,10.29689956
1.68301E+18,13.48139966,-0.938999951,1.738299966,0.529699981,,1.144999981,-0.992999971,9.688799858,,,673,0.20600003,0.745299995,10.21849984
1.68301E+18,13.50139966,-0.413499981,1.453699946,-0.0008,,1.217599988,-0.992799997,9.679900169,,,674,0.804100007,0.460899949,9.679100169
1.68301E+18,13.52140137,0.5273,0.61649996,0.187600002,,1.326099992,-0.969599962,9.668000221,,,675,1.853399992,-0.353100002,9.855600223
1.68301E+18,13.54139966,1.434199929,-0.2509,1.828299999,,1.43900001,-0.935599983,9.655200005,,,676,2.87319994,-1.186499983,11.4835
1.68301E+18,13.56139966,1.370100021,-0.691100001,3.720699787,,1.513000011,-0.917099953,9.645699501,,,677,2.883100033,-1.608199954,13.36639929
1.68301E+18,13.58139966,0.66899997,-1.093699932,4.892099857,,1.547199965,-0.906699955,9.641200066,,,678,2.216199934,-2.000399888,14.53329992
1.68301E+18,13.60139966,0.073600002,-1.117399931,4.604199886,,1.544399977,-0.873199999,9.644800186,,,679,1.617999978,-1.99059993,14.24900007
1.68301E+18,13.62140137,-0.444099993,-1.728899956,3.8197999,,1.522899985,-0.801099956,9.654399872,,,680,1.078799993,-2.529999912,13.47419977
1.68301E+18,13.64139966,0.135600001,-2.568300009,3.794199944,,1.531499982,-0.707099974,9.660399437,,,681,1.667099983,-3.275399983,13.45459938
1.68301E+18,13.66139966,0.702399969,-2.913800001,3.90749979,,1.543200016,-0.61649996,9.66479969,,,682,2.245599985,-3.530299962,13.57229948
1.68301E+18,13.68140137,0.864899993,-2.472800016,3.051499844,,1.547500014,-0.557399988,9.667699814,,,683,2.412400007,-3.030200005,12.71919966
1.68301E+18,13.70139966,0.627799988,-2.236299992,2.049299955,,1.549199939,-0.519299984,9.669499397,,,684,2.176999927,-2.755599976,11.71879935
1.68301E+18,13.72139966,0.35709998,-1.806299925,1.045300007,,1.53549993,-0.488299996,9.673299789,,,685,1.89259991,-2.294599921,10.7185998
1.68301E+18,13.74140137,0.128999993,-1.701900005,0.23529999,,1.508599997,-0.455499977,9.679100037,,,686,1.63759999,-2.157399982,9.914400026
1.68301E+18,13.76139966,0.035599999,-1.366299987,-0.230099991,,1.484300017,-0.437999994,9.683699608,,,687,1.519900016,-1.80429998,9.453599617
1.68301E+18,13.78139966,-0.239599988,-0.934099972,-0.418799996,,1.465399981,-0.448599994,9.686100006,,,688,1.225799993,-1.382699966,9.26730001
1.68301E+18,13.80139966,-0.403899997,-0.469799995,-0.665699959,,1.443399906,-0.481399983,9.687799454,,,689,1.039499909,-0.951199979,9.022099495
1.68301E+18,13.82139966,-0.46419999,-0.088599995,-0.775699973,,1.415499926,-0.519299984,9.68999958,,,690,0.951299936,-0.607899979,8.914299607
1.68301E+18,13.84139966,-0.461400002,0.120699994,-0.817799985,,1.38319993,-0.55219996,9.692799568,,,691,0.921799928,-0.431499965,8.874999583
1.68301E+18,13.86139966,-0.389799982,0.2333,-0.997500002,,1.350799918,-0.576600015,9.696000099,,,692,0.960999936,-0.343300015,8.698500097
1.68301E+18,13.88140137,-0.338799983,0.290199995,-1.128199935,,1.319499969,-0.594199955,9.699199677,,,693,0.980699986,-0.30399996,8.570999742
1.68301E+18,13.90139966,-0.265300006,0.361999989,-1.218999982,,1.294999957,-0.607199967,9.701700211,,,694,1.029699951,-0.245199978,8.482700229
1.68301E+18,13.92139966,-0.282199979,0.379899979,-1.190699935,,1.282499909,-0.6153,9.702899933,,,695,1.000299931,-0.235400021,8.512199998
1.68301E+18,13.94139966,-0.312700003,0.431799978,-1.14259994,,1.273800015,-0.618200004,9.703800201,,,696,0.961100012,-0.186400026,8.561200261
1.68301E+18,13.96140137,-0.328999996,0.449599981,-1.10529995,,1.260599971,-0.616299987,9.705699921,,,697,0.931599975,-0.166700006,8.600399971
1.68301E+18,13.98139966,-0.277700007,0.619699955,-1.196699977,,1.23879993,-0.609799981,9.708899498,,,698,0.961099923,0.009899974,8.512199521
1.68301E+18,14.00139966,-0.254799992,0.753199995,-1.690799952,,1.215899944,-0.596300006,9.712599754,,,699,0.961099952,0.156899989,8.021799803
1.68301E+18,14.02140137,-0.127499998,0.587799966,-2.164399862,,1.206200004,-0.568199992,9.715499878,,,700,1.078700006,0.019599974,7.551100016
1.68301E+18,14.04140137,0.055499997,0.459899992,-2.226300001,,1.199699998,-0.528499961,9.718599319,,,701,1.255199995,-0.068599969,7.492299318
1.68301E+18,14.06139966,0.152099997,0.380999982,-2.200000048,,1.191299915,-0.488899976,9.721699715,,,702,1.343399912,-0.107899994,7.521699667
1.68301E+18,14.08139966,0.1875,0.208399996,-1.917999983,,1.185400009,-0.453599989,9.724100113,,,703,1.372900009,-0.245199993,7.80610013
1.68301E+18,14.10139966,0.352400005,0.215799987,-1.645799994,,1.177299976,-0.421799988,9.726499557,,,704,1.529699981,-0.206,8.080699563
1.68301E+18,14.12139966,0.539200008,0.180099994,-1.353999972,,1.166999936,-0.395899981,9.728899956,,,705,1.706199944,-0.215799987,8.374899983
1.68301E+18,14.14139966,0.691899955,0.204099998,-1.326200008,,1.161499977,-0.370799989,9.730500221,,,706,1.853399932,-0.166699991,8.404300213
1.68301E+18,14.16139966,0.881699979,0.199000001,-1.239300013,,1.157999992,-0.346100003,9.731800079,,,707,2.039699972,-0.147100002,8.492500067
1.68301E+18,14.18140137,0.936800003,-0.059699997,-0.749300003,,1.161800027,-0.322699994,9.732199669,,,708,2.09860003,-0.382399991,8.982899666
1.68301E+18,14.20139966,0.466299981,-0.299199998,0.573700011,,1.161499977,-0.298899978,9.732999802,,,709,1.627799958,-0.598099977,10.30669981
1.68301E+18,14.22139966,0.122099996,-0.601700008,1.894899964,,1.14289999,-0.280799985,9.735699654,,,710,1.264999986,-0.882499993,11.63059962
1.68301E+18,14.24140137,0.205200002,-0.913100004,2.980099916,,1.118600011,-0.263599992,9.738999367,,,711,1.323800012,-1.176699996,12.71909928
1.68301E+18,14.26140137,0.903199971,-1.124300003,3.935899973,,1.077700019,-0.238699988,9.744299889,,,712,1.98089999,-1.362999991,13.68019986
1.68301E+18,14.28139966,0.501599967,-0.825800002,3.403599977,,1.057500005,-0.213699996,9.747099876,,,713,1.559099972,-1.039499998,13.15069985
1.68301E+18,14.30139966,0.185599998,-0.685799956,2.545899868,,1.108799934,-0.196699992,9.741700172,,,714,1.294399932,-0.882499948,12.28760004
1.68301E+18,14.32140137,0.309300005,-1.205699921,3.358199835,,1.181200027,-0.176899999,9.733599663,,,715,1.490500033,-1.38259992,13.0917995
1.68301E+18,14.34139966,0.356099993,-1.369099975,4.582699776,,1.173599958,-0.15079999,9.734899521,,,716,1.529699951,-1.519899964,14.3175993
1.68301E+18,14.36139966,0.086199999,-0.978899956,4.215600014,,1.139500022,-0.138899997,9.739199638,,,717,1.225700021,-1.117799953,13.95479965
1.68301E+18,14.38140137,-0.466199994,-0.709599972,2.792699814,,1.133000016,-0.123899996,9.740099907,,,718,0.666800022,-0.833499968,12.53279972
1.68301E+18,14.40139966,-0.749300003,-0.586699963,1.245100021,,1.15139997,-0.099699996,9.73829937,,,719,0.402099967,-0.686399959,10.98339939
1.68301E+18,14.42139966,-0.779199958,-0.631399989,0.1219,,1.191100001,-0.074599996,9.733699799,,,720,0.411900043,-0.705999985,9.855599798
1.68301E+18,14.44139966,-0.979599953,-0.583700001,-0.296799988,,1.214999914,-0.0634,9.730799675,,,721,0.235399961,-0.647100002,9.433999687
1.68301E+18,14.46140137,-1.127200007,-0.384799987,-0.0037,,1.205699921,-0.076099999,9.731900215,,,722,0.078499913,-0.460899986,9.728200215
1.68301E+18,14.48139966,-0.934300005,-0.036800001,0.394199997,,1.169700027,-0.110199995,9.736000061,,,723,0.235400021,-0.146999996,10.13020006
1.68301E+18,14.50139966,-0.820199966,0.257099986,0.457999974,,1.124199986,-0.149199992,9.740799904,,,724,0.30400002,0.107899994,10.19879988
1.68301E+18,14.52140137,-0.588400006,0.407799989,0.238799989,,1.08859992,-0.1822,9.744299889,,,725,0.500199914,0.225599989,9.983099878
1.68301E+18,14.54140137,-0.335299999,0.426799983,-0.31189999,,1.070799947,-0.201299995,9.745900154,,,726,0.735499948,0.225499988,9.434000164
1.68301E+18,14.56139966,-0.200399995,0.233899996,-0.793199956,,1.06340003,-0.204399988,9.746600151,,,727,0.863000035,0.029500008,8.953400195
1.68301E+18,14.58140283,-0.020499999,0.044799998,-1.028900027,,1.059999943,-0.201700002,9.746999741,,,728,1.039499944,-0.156900004,8.718099713
1.68301E+18,14.60139966,0.0023,-0.048699997,-1.138100028,,1.046899915,-0.206199989,9.748399734,,,729,1.049199915,-0.254899986,8.610299706
1.68301E+18,14.62139966,0.0079,0.178499997,-1.207899928,,1.031499982,-0.227599993,9.749499321,,,730,1.039399981,-0.049099997,8.541599393
1.68301E+18,14.64139966,-0.077,0.467199981,-1.05129993,,1.018399954,-0.270999998,9.749799728,,,731,0.941399954,0.196199983,8.698499799
1.68301E+18,14.66139966,-0.236399993,0.826999962,-1.17779994,,1.011099935,-0.326799989,9.74889946,,,732,0.774699941,0.500199974,8.57109952
1.68301E+18,14.68139966,-0.272499979,1.157999992,-1.352599978,,1.008000016,-0.383299977,9.747099876,,,733,0.735500038,0.774700016,8.394499898
1.68301E+18,14.70139966,-0.373299986,1.314800024,-1.497399926,,1.010699987,-0.432199985,9.744799614,,,734,0.637400001,0.882600039,8.247399688
1.68301E+18,14.72139966,-0.478899986,1.28549993,-1.592899919,,1.018199921,-0.471599996,9.742199898,,,735,0.539299935,0.813899934,8.149299979
1.68301E+18,14.74139966,-0.608999968,1.208400011,-1.678299904,,1.030699968,-0.502299964,9.739299774,,,736,0.421700001,0.706100047,8.06099987
1.68301E+18,14.76139966,-0.659799993,1.1523,-1.606699944,,1.042299986,-0.534500003,9.736399651,,,737,0.382499993,0.617799997,8.129699707
1.68301E+18,14.78139966,-0.966199994,1.21239996,-1.622699976,,1.054499984,-0.574999988,9.73279953,,,738,0.08829999,0.637399971,8.110099554
1.68301E+18,14.80139966,-0.845299959,1.48210001,-1.469399929,,1.080699921,-0.628899992,9.726599693,,,739,0.235399961,0.853200018,8.257199764
1.68301E+18,14.82140137,-0.713,1.671099901,-1.175799966,,1.124899983,-0.690400004,9.717399597,,,740,0.411899984,0.980699897,8.541599631
1.68301E+18,14.84139966,-0.629799962,1.722799897,-1.301599979,,1.188799977,-0.7421,9.705900192,,,741,0.559000015,0.980699897,8.404300213
1.68301E+18,14.86139966,-0.461400002,1.683399916,-1.406499982,,1.265499949,-0.781199992,9.693200111,,,742,0.804099947,0.902199924,8.28670013
1.68301E+18,14.88140137,-0.384900004,1.38169992,-1.180899978,,1.326399922,-0.80309999,9.683199883,,,743,0.941499919,0.57859993,8.502299905
1.68301E+18,14.90139966,-0.342799991,1.037599921,-1.056800008,,1.372499943,-0.80219996,9.67689991,,,744,1.029699951,0.235399961,8.620099902
1.68301E+18,14.92139966,-0.220199987,0.630400002,-0.670699954,,1.406799912,-0.787299991,9.673199654,,,745,1.186599925,-0.156899989,9.0024997
1.68301E+18,14.94139966,0.174699992,-0.2421,0.888599992,,1.423699975,-0.757999957,9.672999382,,,746,1.598399967,-1.000099957,10.56159937
1.68301E+18,14.96140137,0.959800005,-0.832599998,3.219399929,,1.413299918,-0.736299992,9.676199913,,,747,2.373099923,-1.568899989,12.89559984
1.68301E+18,14.98139966,1.458199978,-1.026199937,5.127899647,,1.385599971,-0.738900006,9.679999352,,,748,2.843799949,-1.765099943,14.807899
1.68301E+18,15.00139966,1.377699971,-0.56129998,5.557300091,,1.358199954,-0.762499988,9.682099342,,,749,2.735899925,-1.323799968,15.23939943
1.68301E+18,15.02140137,1.189100027,-0.343899995,4.292699814,,1.360499978,-0.764099956,9.681599617,,,750,2.549600005,-1.107999951,13.97429943
1.68301E+18,15.04140137,1.046599984,-0.48999998,2.92869997,,1.385299921,-0.706299961,9.682499886,,,751,2.431899905,-1.19629994,12.61119986
1.68301E+18,15.06139966,0.973499954,-1.012699962,2.525300026,,1.41929996,-0.615099967,9.683799744,,,752,2.392799914,-1.627799928,12.20909977
1.68301E+18,15.08139966,0.506500006,-1.496999979,2.03579998,,1.46449995,-0.513300002,9.682999611,,,753,1.970999956,-2.010299981,11.71879959
1.68301E+18,15.10139966,0.0177,-1.952299953,1.938699961,,1.502299905,-0.410999984,9.682099342,,,754,1.519999905,-2.363299936,11.6207993
1.68301E+18,15.12139966,-0.173500001,-2.092399836,1.898599982,,1.51699996,-0.329699993,9.682899475,,,755,1.343499959,-2.422099829,11.58149946
1.68301E+18,15.14139966,-0.245299995,-1.885100007,1.201099992,,1.520200014,-0.272300005,9.684199333,,,756,1.274900019,-2.157400012,10.88529932
1.68301E+18,15.16139966,-0.252200007,-1.433200002,0.19129999,,1.527099967,-0.243599996,9.683899879,,,757,1.27489996,-1.676799998,9.875199869
1.68301E+18,15.18140137,-0.294699997,-1.095499992,-0.563300014,,1.530399919,-0.238099992,9.683499336,,,758,1.235699922,-1.333599985,9.120199323
1.68301E+18,15.20139966,-0.348499984,-0.958799958,-0.779599965,,1.525299907,-0.247299999,9.684100151,,,759,1.176799923,-1.206099957,8.904500186
1.68301E+18,15.22139966,-0.364199996,-0.805599988,-0.674799979,,1.501799941,-0.273000002,9.687099457,,,760,1.137599945,-1.078599989,9.012299478
1.68301E+18,15.24139966,-0.409500003,-0.483599991,-0.444799989,,1.458799958,-0.310699999,9.692500114,,,761,1.049299955,-0.79429999,9.247700125
1.68301E+18,15.26139966,-0.422299981,-0.214599997,-0.324099988,,1.402999997,-0.354099989,9.699299812,,,762,0.980700016,-0.568699986,9.375199825
1.68301E+18,15.28139966,-0.159699991,0.020499999,-0.507099986,,1.346300006,-0.39319998,9.705800056,,,763,1.186600015,-0.372699982,9.19870007
1.68301E+18,15.30139966,0.18599999,0.092099994,-0.795899987,,1.304499984,-0.425599992,9.710100174,,,764,1.490499973,-0.333499998,8.914200187
1.68301E+18,15.32140137,0.294099987,0.124499999,-1.200899959,,1.274799943,-0.448100001,9.712999344,,,765,1.56889993,-0.323600002,8.512099385
1.68301E+18,15.34139966,0.234399989,0.090799995,-1.272499919,,1.246299982,-0.463399976,9.715999603,,,766,1.480699971,-0.372599982,8.443499684
1.68301E+18,15.36139966,0.0788,0.061199997,-1.002599955,,1.205699921,-0.47299999,9.72069931,,,767,1.284499921,-0.411799993,8.718099356
1.68301E+18,15.38140137,0.126399994,0.119099997,-0.733299971,,1.158200026,-0.481899977,9.725999832,,,768,1.284600019,-0.36279998,8.992699862
1.68301E+18,15.40139966,0.251399994,0.249699995,-0.689099967,,1.111599922,-0.494899988,9.730799675,,,769,1.362999916,-0.245199993,9.041699708
1.68301E+18,15.42139966,0.390199989,0.41959998,-0.966499984,,1.080699921,-0.5079,9.733599663,,,770,1.47089991,-0.08830002,8.767099679
1.68301E+18,15.44139966,0.515900016,0.485899985,-1.368999958,,1.072700024,-0.515299976,9.734099388,,,771,1.588600039,-0.029399991,8.36509943
1.68301E+18,15.46140137,0.60619998,0.423999995,-1.613499999,,1.080500007,-0.512300014,9.733399391,,,772,1.686699986,-0.08830002,8.119899392
1.68301E+18,15.48139966,0.649800003,0.327800006,-1.621999979,,1.095700026,-0.504400015,9.732099533,,,773,1.745500028,-0.176600009,8.110099554
1.68301E+18,15.50139966,0.563300014,0.340799987,-1.639999986,,1.113499999,-0.497699976,9.730500221,,,774,1.676800013,-0.156899989,8.090500236
1.68301E+18,15.52140137,0.42839998,0.363899976,-1.746199965,,1.130800009,-0.491299987,9.72879982,,,775,1.559199989,-0.127400011,7.982599854
1.68301E+18,15.54139966,0.316599995,0.329999983,-1.902199984,,1.144500017,-0.477099985,9.727899551,,,776,1.461100012,-0.147100002,7.825699568
1.68301E+18,15.56139966,0.319700003,0.231899992,-1.921899915,,1.151199937,-0.457399994,9.727999687,,,777,1.47089994,-0.225500003,7.806099772
1.68301E+18,15.58139966,0.365999997,-0.053799998,-1.667599916,,1.153900027,-0.436399996,9.728699684,,,778,1.519900024,-0.490199994,8.061099768
1.68301E+18,15.60139966,0.441799998,-0.244799986,-1.393399954,,1.156599998,-0.421900004,9.729000092,,,779,1.598399997,-0.666699991,8.335600138
1.68301E+18,15.62139966,0.330599993,-0.253399998,-1.157500029,,1.15989995,-0.423099995,9.728599548,,,780,1.490499943,-0.676499993,8.57109952
1.68301E+18,15.64139966,0.122199997,-0.375799984,-0.401499987,,1.162400007,-0.437999994,9.727600098,,,781,1.284600005,-0.813799977,9.326100111
1.68301E+18,15.66139966,0.031199999,-0.730799973,1.138499975,,1.155300021,-0.465499997,9.727199554,,,782,1.18650002,-1.19629997,10.86569953
1.68301E+18,15.68140137,-0.145400003,-0.918099999,2.755100012,,1.126099944,-0.503799975,9.728699684,,,783,0.980699942,-1.421899974,12.4837997
1.68301E+18,15.70139966,-0.061199997,-1.261199951,4.08739996,,1.090899944,-0.552899957,9.729999542,,,784,1.029699948,-1.814099908,13.8173995
1.68301E+18,15.72139966,0.080499999,-1.079999924,4.498799801,,1.056999922,-0.606599987,9.730599403,,,785,1.137499921,-1.68659991,14.2293992
1.68301E+18,15.74139966,0.437099993,-0.705899954,3.637199879,,1.033800006,-0.666899979,9.729100227,,,786,1.470899999,-1.372799933,13.36630011
1.68301E+18,15.76139966,0.638300002,-0.392099977,2.642699957,,1.048300028,-0.725799978,9.723400116,,,787,1.686600029,-1.117899954,12.36610007
1.68301E+18,15.78139966,0.620899975,-0.213100001,2.384899855,,1.075500011,-0.777199984,9.716400146,,,788,1.696399987,-0.990299985,12.1013
1.68301E+18,15.80139966,0.259299994,-0.109099999,2.478899956,,1.093899965,-0.822399974,9.710599899,,,789,1.353199959,-0.931499973,12.18949986
1.68301E+18,15.82140137,-0.513799965,0.0044,2.39470005,,1.102200031,-0.857599974,9.706600189,,,790,0.588400066,-0.853199974,12.10130024
1.68301E+18,15.84139966,-1.279999971,0.2227,2.073199987,,1.103500009,-0.879700005,9.704500198,,,791,-0.176499963,-0.657000005,11.77770019
1.68301E+18,15.86139966,-1.592999935,0.329899997,1.583599925,,1.102699995,-0.888899982,9.703800201,,,792,-0.49029994,-0.558999985,11.28740013
1.68301E+18,15.88140137,-1.330199957,0.296299994,1.112699986,,1.104599953,-0.8847,9.703899384,,,793,-0.225600004,-0.588400006,10.81659937
1.68301E+18,15.90139966,-0.930499971,0.224299997,0.915699959,,1.106999993,-0.871599972,9.704899788,,,794,0.176500022,-0.647299975,10.62059975
1.68301E+18,15.92139966,-0.630599976,0.249699995,0.571699977,,1.111099958,-0.857800007,9.705599785,,,795,0.480499983,-0.608100012,10.27729976
1.68301E+18,15.94139966,-0.559399962,0.294400007,0.198599994,,1.118399978,-0.843599975,9.705999374,,,796,0.559000015,-0.549199969,9.904599369
1.68301E+18,15.96139966,-0.585799992,0.408099979,-0.0273,,1.125199914,-0.829699993,9.706399918,,,797,0.539399922,-0.421600014,9.679099917
1.68301E+18,15.98139966,-0.573300004,0.535399973,-0.233199999,,1.132300019,-0.81979996,9.706500053,,,798,0.559000015,-0.284399986,9.473300055
1.68301E+18,16.00139966,-0.620700002,0.610399961,-0.547199965,,1.140499949,-0.806599975,9.706600189,,,799,0.519799948,-0.196200013,9.159400225
1.68301E+18,16.02140137,-0.676400006,0.582099974,-0.773499966,,1.147099972,-0.788100004,9.707300186,,,800,0.470699966,-0.20600003,8.93380022
1.68301E+18,16.04140137,-0.711799979,0.509499967,-0.922899961,,1.143299937,-0.764499962,9.709699631,,,801,0.431499958,-0.254999995,8.786799669
1.68301E+18,16.06139966,-0.657799959,0.393700004,-1.073899984,,1.128600001,-0.736999989,9.713500023,,,802,0.470800042,-0.343299985,8.639600039
1.68301E+18,16.08139966,-0.649699986,0.353599995,-1.235099912,,1.110599995,-0.706699967,9.71780014,,,803,0.460900009,-0.353099972,8.482700229
1.68301E+18,16.10139966,-0.529500008,0.398399979,-1.208799958,,1.09829998,-0.682799995,9.720899582,,,804,0.568799973,-0.284400016,8.512099624
1.68301E+18,16.12139966,-0.362100005,0.572399974,-0.985300004,,1.087800026,-0.67049998,9.722999573,,,805,0.725700021,-0.098100007,8.737699568
1.68301E+18,16.14139966,-0.271099985,0.684499979,-0.839899957,,1.075199962,-0.664900005,9.72480011,,,806,0.804099977,0.019599974,8.884900153
1.68301E+18,16.16139966,-0.316499978,0.827199996,-0.977899969,,1.07159996,-0.66049999,9.725500107,,,807,0.755099982,0.166700006,8.747600138
1.68301E+18,16.18139966,-0.433200002,0.8046,-1.273100019,,1.070599914,-0.647700012,9.726399422,,,808,0.637399912,0.156899989,8.453299403
1.68301E+18,16.20139966,-0.528199971,0.809599996,-1.570299983,,1.057699919,-0.623199999,9.729399681,,,809,0.529499948,0.186399996,8.159099698
1.68301E+18,16.22139966,-0.652999997,0.7949,-1.956699967,,1.03549993,-0.598699987,9.733399391,,,810,0.382499933,0.196200013,7.776699424
1.68301E+18,16.24139966,-0.665699959,0.889199972,-2.093899965,,1.038399935,-0.594999969,9.733300209,,,811,0.372699976,0.294200003,7.639400244
1.68301E+18,16.26139966,-0.9454,1.045499921,-1.885800004,,1.053200006,-0.604200006,9.731100082,,,812,0.107800007,0.441299915,7.845300078
1.68301E+18,16.28139966,-1.049999952,0.997199953,-1.395200014,,1.049999952,-0.614799976,9.730799675,,,813,0,0.382399976,8.335599661
1.68301E+18,16.30139966,-1.020499945,1.140399933,-0.85649997,,1.040199995,-0.620599985,9.731499672,,,814,0.01970005,0.519799948,8.874999702
1.68301E+18,16.32139966,-1.074900031,1.138700008,-0.446199983,,1.02579999,-0.618999958,9.733099937,,,815,-0.049100041,0.51970005,9.286899954
1.68301E+18,16.34139966,-1.031299949,1.036999941,-0.408299983,,1.021499991,-0.605499983,9.734399796,,,816,-0.009799957,0.431499958,9.326099813
1.68301E+18,16.36139966,-0.841600001,0.553200006,-0.448799998,,1.027899981,-0.572799981,9.735699654,,,817,0.18629998,-0.019599974,9.286899656
1.68301E+18,16.38139966,-0.177100003,-0.242799997,0.0295,,1.040099978,-0.512199998,9.737799644,,,818,0.862999976,-0.754999995,9.767299645
1.68301E+18,16.40139966,0.569400012,-0.914699972,0.880400002,,1.048599958,-0.448299974,9.740099907,,,819,1.617999971,-1.362999946,10.62049991
1.68301E+18,16.42139966,1.140900016,-1.412500024,2.182399988,,1.045899987,-0.40169999,9.742400169,,,820,2.186800003,-1.814200014,11.92480016
1.68301E+18,16.44139966,1.256600022,-1.380800009,3.384599924,,1.01849997,-0.374499977,9.746399879,,,821,2.275099993,-1.755299985,13.1309998
1.68301E+18,16.46139966,1.060599923,-1.045799971,3.33130002,,0.979099989,-0.366299987,9.750699997,,,822,2.039699912,-1.412099957,13.08200002
1.68301E+18,16.48139966,1.061499953,-1.176199913,2.379400015,,0.978100002,-0.353599995,9.751299858,,,823,2.039599955,-1.529799908,12.13069987
1.68301E+18,16.50139966,1.082000017,-1.724699974,2.507499933,,0.996899962,-0.314999998,9.750699997,,,824,2.07889998,-2.039699972,12.25819993
1.68301E+18,16.52139966,1.238499999,-2.0546,3.10469985,,0.997299969,-0.279300004,9.751699448,,,825,2.235799968,-2.333900005,12.8563993
1.68301E+18,16.54139966,0.71239996,-1.635199904,3.142199993,,0.984099984,-0.267199993,9.753399849,,,826,1.696499944,-1.902399898,12.89559984
1.68301E+18,16.56139966,0.227299988,-1.072799921,2.985100031,,0.978799999,-0.280399978,9.753600121,,,827,1.206099987,-1.353199899,12.73870015
1.68301E+18,16.58139966,-0.203799993,-0.466699988,2.386499882,,0.968699992,-0.298099995,9.754099846,,,828,0.764899999,-0.764799982,12.14059973
1.68301E+18,16.60139966,-0.358199984,-0.307599992,1.474299908,,0.966199994,-0.300399989,9.754300117,,,829,0.60800001,-0.60799998,11.22860003
1.68301E+18,16.62139966,-0.24499999,-0.356399983,0.415999979,,0.980499983,-0.280999988,9.753399849,,,830,0.735499993,-0.637399971,10.16939983
1.68301E+18,16.64139966,-0.020199999,-0.463,-0.357299984,,1.00090003,-0.252700001,9.752099991,,,831,0.980700031,-0.715700001,9.394800007
1.68301E+18,16.66139966,0.118599996,-0.485299975,-0.76789999,,1.018899918,-0.230499998,9.750800133,,,832,1.137499914,-0.715799972,8.982900143
1.68301E+18,16.68139966,0.051899999,-0.292699993,-0.77700001,,1.026799917,-0.226999998,9.750100136,,,833,1.078699917,-0.519699991,8.973100126
1.68301E+18,16.70139966,-0.0084,-0.0317,-0.756799996,,1.028299928,-0.242799997,9.749499321,,,834,1.019899928,-0.274499997,8.992699325
1.68301E+18,16.72139966,0.049799997,0.1426,-0.6972,,1.028800011,-0.270099998,9.748700142,,,835,1.078600008,-0.127499998,9.051500142
1.68301E+18,16.74139966,-0.047899999,0.298700005,-0.766099989,,1.01880002,-0.298700005,9.748999596,,,836,0.970900021,0,8.982899606
1.68301E+18,16.76139966,-0.119799994,0.389299989,-0.874899983,,1.002399921,-0.320600003,9.75,,,837,0.882599927,0.068699986,8.875100017
1.68301E+18,16.78139966,-0.319299996,0.455300003,-0.73969996,,0.976399958,-0.33769998,9.751999855,,,838,0.657099962,0.117600024,9.012299895
1.68301E+18,16.80139966,-0.511299968,0.566999972,-0.654299974,,0.942799985,-0.351199985,9.754799843,,,839,0.431500018,0.215799987,9.100499868
1.68301E+18,16.82139966,-0.585599959,0.563499987,-0.510100007,,0.909199953,-0.357499987,9.757800102,,,840,0.323599994,0.206,9.247700095
1.68301E+18,16.84139966,-0.466099977,0.59009999,-0.366899997,,0.868200004,-0.354799986,9.761599541,,,841,0.402100027,0.235300004,9.394699544
1.68301E+18,16.86139966,-0.199599996,0.627799988,-0.674799979,,0.827299953,-0.343400002,9.765600204,,,842,0.627699956,0.284399986,9.090800226
1.68301E+18,16.88140283,0.111699998,0.715799987,-1.295599937,,0.800199986,-0.323599994,9.768499374,,,843,0.911899984,0.392199993,8.472899437
1.68301E+18,16.90139966,0.177900001,0.631599963,-1.681299925,,0.773299992,-0.288399994,9.771800041,,,844,0.951199993,0.343199968,8.090500116
1.68301E+18,16.92139966,0.074000001,0.498199999,-1.79369998,,0.729999959,-0.243199989,9.776399612,,,845,0.80399996,0.25500001,7.982699633
1.68301E+18,16.94139966,-0.011899999,0.343199998,-1.719999909,,0.678799987,-0.196099997,9.781099319,,,846,0.666899987,0.147100002,8.06109941
1.68301E+18,16.96140137,0.040100001,0.371999979,-1.822299957,,0.626699984,-0.156299993,9.785299301,,,847,0.666799985,0.215699986,7.962999344
1.68301E+18,16.98139966,0.299899995,0.392099977,-1.727399945,,0.582599998,-0.127399996,9.788399696,,,848,0.882499993,0.264699981,8.060999751
1.68301E+18,17.00139966,0.572899997,0.402699977,-1.572899938,,0.5449,-0.108499996,9.790800095,,,849,1.117799997,0.294199981,8.217900157
1.68301E+18,17.02140137,0.716300011,0.408899993,-1.192499995,,0.50940001,-0.095100001,9.792900085,,,850,1.225700021,0.313799992,8.60040009
1.68301E+18,17.04140137,0.628899992,0.494099975,-0.929199994,,0.479099989,-0.092099994,9.794499397,,,851,1.10799998,0.40199998,8.865299404
1.68301E+18,17.06139966,0.553900003,0.457599998,-0.459600002,,0.456099987,-0.094799995,9.795499802,,,852,1.00999999,0.362800002,9.3358998
1.68301E+18,17.08139966,0.457999974,0.176399991,0.68629998,,0.424499989,-0.097999997,9.796899796,,,853,0.882499963,0.078399993,10.48319978
1.68301E+18,17.10139966,0.595099986,-0.194399998,2.067399979,,0.385499984,-0.099699996,9.798500061,,,854,0.98059997,-0.294099994,11.86590004
1.68301E+18,17.12139966,0.833000004,-0.672100008,3.350899935,,0.353499979,-0.102499999,9.799699783,,,855,1.186499983,-0.774600007,13.15059972
1.68301E+18,17.14139966,0.956399977,-0.609699965,3.673699856,,0.328099996,-0.1061,9.800499916,,,856,1.284499973,-0.715799965,13.47419977
1.68301E+18,17.16139966,1.129099965,-0.525099993,2.830499887,,0.331999987,-0.112299994,9.800299644,,,857,1.461099952,-0.637399986,12.63079953
