time,seconds_elapsed,z,y,x
1683015719442730500,0.04073046875,0.1508999913930893,0.010799999348819256,0.09119999408721924
1683015719462729000,0.06072900390625,0.1508999913930893,0.010799999348819256,0.09119999408721924
1683015719482729000,0.08072900390625,0.1508999913930893,0.010799999348819256,0.09119999408721924
1683015719502729000,0.10072900390625,0.08949999511241913,-0.156700000166893,0.1631999909877777
1683015719522727200,0.12072705078125,0.06929999589920044,-0.21119999885559082,-0.0284000001847744
1683015719542727200,0.14072705078125,-0.1720999926328659,-0.48569998145103455,-0.07569999992847443
1683015719562727200,0.16072705078125,-0.4900999963283539,-0.7554000020027161,-0.23119999468326569
1683015719582727200,0.18072705078125,-0.9810999631881714,-1.129599928855896,-0.7847999930381775
1683015719602727200,0.20072705078125,-1.1417999267578125,-1.355799913406372,-1.202799916267395
1683015719622727200,0.22072705078125,-0.8842999935150146,-1.5674999952316284,-1.0899999141693115
1683015719642727200,0.24072705078125,-0.8549999594688416,-1.4112999439239502,-0.6255999803543091
1683015719662727200,0.26072705078125,-0.5764999985694885,-0.9735999703407288,-0.15869998931884766
1683015719682727200,0.28072705078125,-0.2791999876499176,-0.7935000061988831,0.42260000109672546
1683015719702727200,0.30072705078125,0.2483999878168106,-0.7423999905586243,0.8626999855041504
1683015719722727200,0.32072705078125,0.799299955368042,-0.6663999557495117,1.0621999502182007
1683015719742727200,0.34072705078125,1.0235999822616577,-0.7300999760627747,1.1841999292373657
1683015719762727200,0.36072705078125,0.8080999851226807,-0.8445000052452087,1.2668999433517456
1683015719782727200,0.38072705078125,0.6965000033378601,-0.9715999960899353,1.3523999452590942
1683015719802730500,0.40073046875,1.0082999467849731,-0.8395999670028687,1.4289000034332275
1683015719822729000,0.42072900390625,1.233799934387207,-0.767799973487854,1.8248999118804932
1683015719842729000,0.44072900390625,1.2072999477386475,-0.519599974155426,2.3485000133514404
1683015719862729000,0.46072900390625,1.237399935722351,-0.02719999849796295,2.757200002670288
1683015719882729000,0.48072900390625,1.6962000131607056,0.3546999990940094,3.0901999473571777
1683015719902729000,0.50072900390625,2.496000051498413,0.4493999779224396,3.1992998123168945
1683015719922729000,0.52072900390625,2.860499858856201,0.18519999086856842,3.1267998218536377
1683015719942729000,0.54072900390625,2.665599822998047,0.05329999700188637,2.8299999237060547
1683015719962729000,0.56072900390625,1.8715999126434326,-0.2199999988079071,2.390899896621704
1683015719982729000,0.58072900390625,0.8052999973297119,-0.43129998445510864,2.243000030517578
1683015720002729000,0.60072900390625,-0.27549999952316284,-0.630299985408783,2.4323999881744385
1683015720022729000,0.62072900390625,-1.7206999063491821,-0.9672999978065491,2.379199981689453
1683015720042729000,0.64072900390625,-3.5857999324798584,-0.8425999879837036,2.526399850845337
1683015720062729000,0.66072900390625,-4.8979997634887695,-0.5526999831199646,3.085599899291992
1683015720082729000,0.68072900390625,-4.6066999435424805,-0.140299990773201,4.024600028991699
1683015720102729000,0.70072900390625,-3.120299816131592,0.1266999989748001,5.070499897003174
1683015720122729000,0.72072900390625,-1.7197999954223633,-0.09929999709129333,5.526400089263916
1683015720142729000,0.74072900390625,0.5755000114440918,0.10849999636411667,5.399099826812744
1683015720162729000,0.76072900390625,2.6145999431610107,0.4499000012874603,4.935199737548828
1683015720182729000,0.78072900390625,3.3664000034332275,0.47519999742507935,4.5055999755859375
1683015720202729000,0.80072900390625,3.91159987449646,0.7005999684333801,4.0559000968933105
1683015720222729000,0.82072900390625,7.246199607849121,5.302999973297119,2.69350004196167
1683015720242729000,0.84072900390625,5.912399768829346,5.602999687194824,4.842199802398682
1683015720262729000,0.86072900390625,1.6275999546051025,1.6054999828338623,4.978499889373779
1683015720282727200,0.88072705078125,-1.0866999626159668,0.28450000286102295,0.8671000003814697
1683015720302729000,0.90072900390625,-1.9775999784469604,0.18239998817443848,-1.3562999963760376
1683015720322729000,0.92072900390625,-1.3984999656677246,-0.31369999051094055,-0.573199987411499
1683015720342729000,0.94072900390625,-1.3492999076843262,-0.6272000074386597,1.5374000072479248
1683015720362729000,0.96072900390625,-1.4957000017166138,-0.037299998104572296,2.7467000484466553
1683015720382729000,0.98072900390625,-1.9560999870300293,1.4569000005722046,3.982999801635742
1683015720402729000,1.00072900390625,-4.42579984664917,3.026899814605713,3.5947999954223633
1683015720422729000,1.02072900390625,-4.248799800872803,4.768899917602539,3.6108999252319336
1683015720442729000,1.04072900390625,-1.4453999996185303,7.046199798583984,3.736299991607666
1683015720462729000,1.06072900390625,1.2389999628067017,8.077099800109863,2.95169997215271
1683015720482729000,1.08072900390625,3.302500009536743,3.767699956893921,2.5401999950408936
1683015720502729000,1.10072900390625,4.884399890899658,-0.7980999946594238,0.31379997730255127
1683015720522729000,1.12072900390625,3.6646997928619385,-2.8143999576568604,-1.9088000059127808
1683015720542729000,1.14072900390625,2.4293999671936035,-2.9544999599456787,-2.180799961090088
1683015720562729000,1.16072900390625,0.9692999720573425,-1.4268999099731445,-0.7148000001907349
1683015720582729000,1.18072900390625,-0.3043999969959259,0.5659999847412109,0.5633999705314636
1683015720602729000,1.20072900390625,-0.8139999508857727,1.8341999053955078,1.1431000232696533
1683015720622729000,1.22072900390625,-1.0296000242233276,1.1140999794006348,1.584299921989441
1683015720642729000,1.24072900390625,-1.1847000122070312,-0.008899999782443047,0.7489999532699585
1683015720662729000,1.26072900390625,-0.8944000005722046,-0.3885999917984009,-0.3012000024318695
1683015720682729000,1.28072900390625,-0.4388999938964844,-0.47999998927116394,-0.49309998750686646
1683015720702729000,1.30072900390625,0.029899999499320984,0.1599999964237213,-0.5189999938011169
1683015720722729000,1.32072900390625,0.7077999711036682,0.1816999912261963,-0.2712000012397766
1683015720742729000,1.34072900390625,1.345099925994873,-0.03929999843239784,0.053700000047683716
1683015720762729000,1.36072900390625,1.5339999198913574,-0.10729999840259552,0.18019999563694
1683015720782729000,1.38072900390625,1.251099944114685,-0.08919999748468399,0.4490000009536743
1683015720802729000,1.40072900390625,0.625,-0.03480000048875809,0.50409996509552
1683015720822729000,1.42072900390625,-0.2011999934911728,-0.0843999981880188,0.42089998722076416
1683015720842729000,1.44072900390625,-0.7515999674797058,-0.14319999516010284,0.29919999837875366
1683015720862729000,1.46072900390625,-0.9656999707221985,-0.16659998893737793,0.28610000014305115
1683015720882729000,1.48072900390625,-1.0013999938964844,-0.03889999911189079,0.16349999606609344
1683015720902729000,1.50072900390625,-0.7651999592781067,0.03359999880194664,0.31919997930526733
1683015720922729000,1.52072900390625,-0.2741999924182892,0.06129999831318855,0.36089998483657837
1683015720942729000,1.54072900390625,0.23919999599456787,-0.11159999668598175,-0.1574999988079071
1683015720962727200,1.56072705078125,0.14710000157356262,0.08590000122785568,0.10399999469518661
1683015720982727200,1.58072705078125,0.43459999561309814,-0.11389999836683273,0.21969999372959137
1683015721002727200,1.60072705078125,0.29409998655319214,-0.010199999436736107,0.16359999775886536
1683015721022727200,1.62072705078125,0.42669999599456787,0.025299999862909317,0.014099999330937862
1683015721042727200,1.64072705078125,0.2768000066280365,-0.015699999406933784,-0.16489998996257782
1683015721062727200,1.66072705078125,0.10649999976158142,0.06300000101327896,-0.17139999568462372
1683015721082727200,1.68072705078125,-0.13769999146461487,0.016999999061226845,-0.021699998527765274
1683015721102727200,1.70072705078125,-0.04360000044107437,0.0681999996304512,0.002899999963119626
1683015721122727200,1.72072705078125,0.18709999322891235,-0.027699999511241913,0.2854999899864197
1683015721142727200,1.74072705078125,0.3337000012397766,-0.06430000066757202,0.4899999797344208
1683015721162727200,1.76072705078125,0.2078000009059906,-0.003499999875202775,0.22659999132156372
1683015721182727200,1.78072705078125,0.17289999127388,0.006000000052154064,-0.06300000101327896
1683015721202727200,1.80072705078125,0.12600000202655792,0.03460000082850456,-0.25360000133514404
1683015721222727200,1.82072705078125,0.014699999243021011,0.07509999722242355,-0.15699999034404755
1683015721242727200,1.84072705078125,-0.03969999775290489,0.040300000458955765,0.13599999248981476
1683015721262727200,1.86072705078125,-0.15760000050067902,-0.041999999433755875,0.23929999768733978
1683015721282727200,1.88072705078125,-0.12049999833106995,-0.04699999839067459,0.24929998815059662
1683015721302727200,1.90072705078125,-0.0982000008225441,-0.024799998849630356,0.14810000360012054
1683015721322727200,1.92072705078125,-0.09789999574422836,-0.08240000158548355,0.09139999747276306
1683015721342727200,1.94072705078125,-0.15619999170303345,-0.09149999916553497,-0.06069999933242798
1683015721362727200,1.96072705078125,-0.15609999001026154,-0.0421999990940094,-0.16200000047683716
1683015721382727200,1.98072705078125,-0.16679999232292175,0.03689999878406525,-0.1973000019788742
1683015721402727200,2.00072705078125,-0.07159999758005142,0.01860000006854534,-0.08060000091791153
1683015721422727200,2.02072705078125,0.004299999680370092,-0.018199998885393143,-0.007599999662488699
1683015721442727200,2.04072705078125,-0.02369999885559082,-0.044599998742341995,-0.05269999802112579
1683015721462727200,2.06072705078125,-0.11699999868869781,-0.05999999865889549,0.03689999878406525
1683015721482727200,2.08072705078125,-0.09160000085830688,-0.06520000100135803,0.12559999525547028
1683015721502727200,2.10072705078125,-0.056599996984004974,0.007199999876320362,0.10019999742507935
1683015721522727200,2.12072705078125,0.0364999994635582,0.019899999722838402,-0.048499997705221176
1683015721542727200,2.14072705078125,0.10579999536275864,-0.02499999850988388,-0.15860000252723694
1683015721562727200,2.16072705078125,0.07490000128746033,-0.06769999861717224,-0.1551000028848648
1683015721582727200,2.18072705078125,0.03280000016093254,0.03909999877214432,-0.038100000470876694
1683015721602727200,2.20072705078125,-0.17880000174045563,0.010900000110268593,-0.002899999963119626
1683015721622727200,2.22072705078125,-0.2890999913215637,-0.0940999984741211,-0.05929999798536301
1683015721642727200,2.24072705078125,-0.344899982213974,-0.21799999475479126,-0.014099999330937862
1683015721662727200,2.26072705078125,-0.5072999596595764,-0.009099999442696571,0.04659999907016754
1683015721682727200,2.28072705078125,-0.3953000009059906,-0.11669999361038208,0.16049998998641968
1683015721702727200,2.30072705078125,-0.12269999831914902,-0.09929999709129333,0.41819998621940613
1683015721722727200,2.32072705078125,-0.20069999992847443,0.06039999797940254,0.3165999948978424
1683015721742727200,2.34072705078125,-0.26639997959136963,0.06889999657869339,0.07970000058412552
1683015721762727200,2.36072705078125,-0.814799964427948,0.06529999524354935,-0.5016999840736389
1683015721782727200,2.38072705078125,-0.5320999622344971,-0.19529999792575836,-0.2798999845981598
1683015721802727200,2.40072705078125,0.23169998824596405,0.06039999797940254,-0.2264999896287918
1683015721822727200,2.42072705078125,0.2906999886035919,0.19859999418258667,0.05609999969601631
1683015721842727200,2.44072705078125,0.4788999855518341,0.16210000216960907,0.19629999995231628
1683015721862727200,2.46072705078125,0.5390999913215637,0.07759999483823776,0.18400000035762787
1683015721882727200,2.48072705078125,0.5442999601364136,0.02410000003874302,0.30399999022483826
1683015721902727200,2.50072705078125,0.38979998230934143,0.05040000006556511,0.0005999999702908099
1683015721922727200,2.52072705078125,0.1906999945640564,-0.02969999983906746,-0.05299999937415123
1683015721942727200,2.54072705078125,-0.037699997425079346,-0.029399998486042023,-0.10759999603033066
1683015721962727200,2.56072705078125,-0.17479999363422394,-0.00839999970048666,0.05079999938607216
1683015721982727200,2.58072705078125,-0.20709998905658722,0.03150000050663948,0.023499999195337296
1683015722002727200,2.60072705078125,-0.13689999282360077,0.011599999852478504,0.08469999581575394
1683015722022727200,2.62072705078125,-0.09259999543428421,0.019600000232458115,0.04010000079870224
1683015722042727200,2.64072705078125,-0.0031999999191612005,0.016599999740719795,0.18359999358654022
1683015722062727200,2.66072705078125,0.005499999970197678,0.05169999971985817,0.10529999434947968
1683015722082727200,2.68072705078125,-0.01489999983459711,-0.01249999925494194,-0.006099999882280827
1683015722102727200,2.70072705078125,-0.04639999940991402,-0.04779999703168869,0.06030000001192093
1683015722122727200,2.72072705078125,-0.11939999461174011,0.053199999034404755,0.07999999821186066
1683015722142727200,2.74072705078125,-0.17749999463558197,0.11379999667406082,0.1314999908208847
1683015722162727200,2.76072705078125,-0.1152999997138977,0.07449999451637268,0.03959999978542328
1683015722182727200,2.78072705078125,-0.07829999923706055,-0.08370000123977661,-0.02019999921321869
1683015722202727200,2.80072705078125,-0.06390000134706497,-0.056199997663497925,-0.12809999287128448
1683015722222727200,2.82072705078125,-0.15029999613761902,-0.008299999870359898,-0.04439999908208847
1683015722242727200,2.84072705078125,-0.07459999620914459,0.010400000028312206,0.08389999717473984
1683015722262727200,2.86072705078125,-0.011699999682605267,0.08760000020265579,0.008200000040233135
1683015722282727200,2.88072705078125,0.07769999653100967,0.007699999958276749,-0.07719999551773071
1683015722302727200,2.90072705078125,0.027300000190734863,-0.050999999046325684,-0.10199999809265137
1683015722322727200,2.92072705078125,0.07169999927282333,-0.09860000014305115,-0.15469999611377716
1683015722342727200,2.94072705078125,0.1720999926328659,-0.17409999668598175,-0.2149999886751175
1683015722362727200,2.96072705078125,0.2635999917984009,-0.23919999599456787,-0.4171999990940094
1683015722382727200,2.98072705078125,0.24769999086856842,-0.1160999983549118,-0.5864999890327454
1683015722402727200,3.00072705078125,0.06879999488592148,-0.03830000013113022,-0.2020999938249588
1683015722422727200,3.02072705078125,0.1119999960064888,-0.025999998673796654,0.18940000236034393
1683015722442727200,3.04072705078125,0.09160000085830688,0.01589999906718731,0.1508999913930893
1683015722462727200,3.06072705078125,-0.0030999998562037945,-0.031099999323487282,0.0016999999061226845
1683015722482727200,3.08072705078125,-0.07419999688863754,-0.04859999939799309,-0.008299999870359898
1683015722502727200,3.10072705078125,-0.18310000002384186,-0.016599999740719795,-0.02969999983906746
1683015722522727200,3.12072705078125,-0.2263999879360199,-0.014099999330937862,-0.0421999990940094
1683015722542727200,3.14072705078125,-0.17909999191761017,-0.022299999371170998,0.023099999874830246
1683015722562727200,3.16072705078125,-0.042399998754262924,0.007699999958276749,-0.009800000116229057
1683015722582727200,3.18072705078125,0.0892999991774559,0.02719999849796295,0.03579999879002571
1683015722602727200,3.20072705078125,0.2199999988079071,0.027300000190734863,0.0802999958395958
1683015722622727200,3.22072705078125,0.25529998540878296,0.07660000026226044,0.05700000002980232
1683015722642727200,3.24072705078125,0.21529999375343323,0.06719999760389328,0.07369999587535858
1683015722662727200,3.26072705078125,0.1516999900341034,0.019500000402331352,0.08980000019073486
1683015722682727200,3.28072705078125,0.08150000125169754,-0.008299999870359898,0.0478999987244606
1683015722702727200,3.30072705078125,0.021399999037384987,0.00279999990016222,-0.0023999998811632395
1683015722722727200,3.32072705078125,0.01899999938905239,0.023499999195337296,0.006399999838322401
1683015722742727200,3.34072705078125,0.043800000101327896,0.044199999421834946,0.03370000049471855
1683015722762727200,3.36072705078125,0.05739999935030937,0.044999998062849045,0.01249999925494194
1683015722782727200,3.38072705078125,0.07959999889135361,0.035499997437000275,-0.07569999992847443
1683015722802727200,3.40072705078125,0.09299999475479126,-0.012799999676644802,-0.027400000020861626
1683015722822727200,3.42072705078125,0.07739999890327454,0.007599999662488699,-0.02929999865591526
1683015722842727200,3.44072705078125,0.034699998795986176,-0.04010000079870224,-0.002099999925121665
1683015722862727200,3.46072705078125,0.04230000078678131,-0.018799999728798866,0.0044999998062849045
1683015722882727200,3.48072705078125,-0.007400000002235174,0.012299999594688416,0.011099999770522118
1683015722902727200,3.50072705078125,-0.055799998342990875,0.004600000102072954,0.07599999755620956
1683015722922727200,3.52072705078125,-0.10349999368190765,0.006399999838322401,-0.033399999141693115
1683015722942727200,3.54072705078125,-0.13210000097751617,-0.07029999792575836,-0.014999999664723873
1683015722962727200,3.56072705078125,-0.13279999792575836,-0.05889999866485596,0.05169999971985817
1683015722982727200,3.58072705078125,-0.14589999616146088,-0.008700000122189522,0.0210999995470047
1683015723002727200,3.60072705078125,-0.10279999673366547,-0.017999999225139618,0.0015999999595806003
1683015723022727200,3.62072705078125,-0.0810999944806099,-0.04739999771118164,-0.02669999934732914
1683015723042727200,3.64072705078125,-0.06989999860525131,-0.037699997425079346,-0.09399999678134918
1683015723062727200,3.66072705078125,-0.06849999725818634,-0.03759999945759773,-0.03460000082850456
1683015723082727200,3.68072705078125,-0.07679999619722366,-0.03720000013709068,-0.025499999523162842
1683015723102727200,3.70072705078125,-0.0754999965429306,-0.05649999901652336,-0.07559999823570251
1683015723122727200,3.72072705078125,-0.05549999698996544,-0.02669999934732914,-0.047599997371435165
1683015723142727200,3.74072705078125,-0.04600000008940697,-0.04580000042915344,-0.040300000458955765
1683015723162727200,3.76072705078125,-0.03669999912381172,-0.015799999237060547,-0.014399999752640724
1683015723182727200,3.78072705078125,-0.018400000408291817,-0.03480000048875809,-0.008599999360740185
1683015723202727200,3.80072705078125,-0.00029999998514540493,0.014800000004470348,-0.012600000016391277
1683015723222727200,3.82072705078125,-0.0023999998811632395,-0.0139999995008111,0.002699999837204814
1683015723242727200,3.84072705078125,0.03399999812245369,0.006099999882280827,0.07660000026226044
1683015723262727200,3.86072705078125,0.06059999763965607,0.016200000420212746,0.033799998462200165
1683015723282727200,3.88072705078125,0.07750000059604645,-0.02279999852180481,0.011799999512732029
1683015723302727200,3.90072705078125,0.065700002014637,0.006899999920278788,0.01860000006854534
1683015723322727200,3.92072705078125,0.055399999022483826,0.01719999872148037,0.04529999941587448
1683015723342727200,3.94072705078125,0.026200000196695328,-0.011799999512732029,0.014499999582767487
1683015723362727200,3.96072705078125,0.05509999766945839,-0.0018999999156221747,0.02329999953508377
1683015723382727200,3.98072705078125,0.06379999965429306,0.02759999968111515,0.0510999970138073
1683015723402727200,4.00072705078125,0.053700000047683716,0.037699997425079346,0.06920000165700912
1683015723422727200,4.02072705078125,0.05509999766945839,-0.010900000110268593,0.04899999871850014
1683015723442727200,4.04072705078125,0.039000000804662704,-0.05949999764561653,0.009599999524652958
1683015723462727200,4.06072705078125,0.003499999875202775,-0.019899999722838402,-0.02850000001490116
1683015723482727200,4.08072705078125,0.007199999876320362,0,0.0016999999061226845
1683015723502727200,4.10072705078125,-0.017799999564886093,-0.019099999219179153,-0.07620000094175339
1683015723522727200,4.12072705078125,-0.001999999862164259,-0.018299998715519905,-0.13490000367164612
1683015723542727200,4.14072705078125,-0.033799998462200165,-0.036399997770786285,-0.11769999563694
1683015723562727200,4.16072705078125,-0.06469999998807907,-0.004600000102072954,0.003700000001117587
1683015723582727200,4.18072705078125,-0.03999999910593033,0.026999998837709427,0.07459999620914459
1683015723602727200,4.20072705078125,-0.028199998661875725,0.01889999955892563,0.11659999936819077
1683015723622727200,4.22072705078125,0.010499999858438969,0.019899999722838402,0.11180000007152557
1683015723642727200,4.24072705078125,0.027899999171495438,0.02979999966919422,0.08989999443292618
1683015723662727200,4.26072705078125,-0.022499999031424522,0.019999999552965164,0.09860000014305115
1683015723682727200,4.28072705078125,-0.07209999859333038,-0.028999999165534973,0.06939999759197235
1683015723702727200,4.30072705078125,-0.09279999881982803,-0.020099999383091927,-0.05460000038146973
1683015723722727200,4.32072705078125,-0.04690000042319298,-0.0017999999690800905,-0.050200000405311584
1683015723742727200,4.34072705078125,-0.012299999594688416,-0.012899999506771564,-0.007899999618530273
1683015723762727200,4.36072705078125,-0.045499999076128006,-0.043299999088048935,-0.06439999490976334
1683015723782727200,4.38072705078125,-0.039000000804662704,-0.05389999970793724,-0.03359999880194664
1683015723802727200,4.40072705078125,-0.013100000098347664,-0.025200000032782555,-0.03240000084042549
1683015723822727200,4.42072705078125,0.012899999506771564,-0.006399999838322401,-0.06019999831914902
1683015723842727200,4.44072705078125,0.021299999207258224,-0.0066999997943639755,-0.03019999898970127
1683015723862727200,4.46072705078125,0.011699999682605267,0.0031999999191612005,-0.060099996626377106
1683015723882727200,4.48072705078125,-0.025100000202655792,-0.015699999406933784,-0.0714000016450882
1683015723902727200,4.50072705078125,-0.07050000131130219,-0.014299999922513962,0.06129999831318855
1683015723922727200,4.52072705078125,-0.13669998943805695,0.016499999910593033,0.09529999643564224
1683015723942727200,4.54072705078125,-0.12759999930858612,-0.032099999487400055,0.043699998408555984
1683015723962727200,4.56072705078125,-0.06459999829530716,-0.03269999846816063,0.013799999840557575
1683015723982727200,4.58072705078125,0.0429999977350235,-0.03399999812245369,0.042799998074769974
1683015724002727200,4.60072705078125,0.1387999951839447,-0.016200000420212746,-0.06399999558925629
1683015724022727200,4.62072705078125,0.149399995803833,0.0018999999156221747,-0.023899998515844345
1683015724042727200,4.64072705078125,0.09799999743700027,-0.007899999618530273,0.00419999985024333
1683015724062727200,4.66072705078125,0.02239999920129776,-0.007199999876320362,-0.006799999624490738
1683015724082727200,4.68072705078125,-0.07919999957084656,-0.006000000052154064,0.030399998649954796
1683015724102727200,4.70072705078125,-0.15129999816417694,0.014800000004470348,0.04800000041723251
1683015724122727200,4.72072705078125,-0.15680000185966492,0.006000000052154064,0.1046999990940094
1683015724142727200,4.74072705078125,-0.0786999985575676,-0.003599999938160181,0.10399999469518661
1683015724162727200,4.76072705078125,0.02319999970495701,-0.0044999998062849045,0.07530000060796738
1683015724182727200,4.78072705078125,0.13169999420642853,0.013199999928474426,0.03879999741911888
1683015724202727200,4.80072705078125,0.20109999179840088,-0.027899999171495438,-0.026200000196695328
1683015724222727200,4.82072705078125,0.13729999959468842,-0.06859999895095825,-0.13979999721050262
1683015724242727200,4.84072705078125,0.1356000006198883,-0.020499998703598976,-0.13679999113082886
1683015724262727200,4.86072705078125,0.12559999525547028,0.028199998661875725,-0.11599999666213989
1683015724282727200,4.88072705078125,0.07919999957084656,0.04839999973773956,0.0004999999655410647
1683015724302727200,4.90072705078125,-0.02329999953508377,0.03009999915957451,0.026799999177455902
1683015724322727200,4.92072705078125,-0.07719999551773071,0.0018999999156221747,0.04360000044107437
1683015724342727200,4.94072705078125,-0.05609999969601631,0.0026000000070780516,0.06079999729990959
1683015724362727200,4.96072705078125,0.010099999606609344,-0.0071000000461936,0.0494999997317791
1683015724382727200,4.98072705078125,0.054899998009204865,-0.007400000002235174,0.05810000002384186
1683015724402727200,5.00072705078125,0.09969999641180038,-0.01769999973475933,-0.0008999999845400453
1683015724422727200,5.02072705078125,0.13570000231266022,0.01119999960064888,-0.020399998873472214
1683015724442727200,5.04072705078125,0.08739999681711197,-0.01809999905526638,0.008999999612569809
1683015724462727200,5.06072705078125,-0.033900000154972076,0.04129999876022339,-0.08810000121593475
1683015724482727200,5.08072705078125,-0.03229999914765358,0.022699998691678047,0.17270000278949738
1683015724502727200,5.10072705078125,-0.0965999960899353,-0.014999999664723873,0.10999999940395355
1683015724522727200,5.12072705078125,-0.0771000012755394,-0.04519999772310257,-0.0429999977350235
1683015724542727200,5.14072705078125,0.008700000122189522,0.02239999920129776,-0.05989999696612358
1683015724562727200,5.16072705078125,0.02329999953508377,0.011799999512732029,-0.0786999985575676
1683015724582727200,5.18072705078125,0.09589999914169312,-0.04779999703168869,-0.07859999686479568
1683015724602727200,5.20072705078125,0.1508999913930893,-0.038100000470876694,-0.011899999342858791
1683015724622727200,5.22072705078125,0.10419999808073044,-0.01730000041425228,0.042799998074769974
1683015724642727200,5.24072705078125,-0.052400000393390656,-0.025200000032782555,-0.01889999955892563
1683015724662727200,5.26072705078125,-0.21559999883174896,-0.023099999874830246,-0.029999999329447746
1683015724682727200,5.28072705078125,-0.25380000472068787,-0.011399999260902405,0.03659999743103981
1683015724702727200,5.30072705078125,-0.2011999934911728,-0.03999999910593033,0.02499999850988388
1683015724722727200,5.32072705078125,-0.07750000059604645,-0.030700000002980232,-0.043299999088048935
1683015724742727200,5.34072705078125,0.04169999808073044,-0.022099999710917473,-0.05269999802112579
1683015724762727200,5.36072705078125,0.15060000121593475,0.006199999712407589,-0.053599998354911804
1683015724782727200,5.38072705078125,0.17469999194145203,-0.013499999418854713,-0.007199999876320362
1683015724802727200,5.40072705078125,0.14569999277591705,-0.01249999925494194,0.03749999776482582
1683015724822727200,5.42072705078125,0.03460000082850456,-0.010799999348819256,0.04309999942779541
1683015724842727200,5.44072705078125,-0.0916999951004982,0.0011999999405816197,0.02979999966919422
1683015724862727200,5.46072705078125,-0.17829999327659607,-0.006399999838322401,0.06639999896287918
1683015724882727200,5.48072705078125,-0.21959999203681946,-0.02449999935925007,0.06399999558925629
1683015724902727200,5.50072705078125,-0.13109999895095825,0.014800000004470348,0.053599998354911804
1683015724922727200,5.52072705078125,0.03849999979138374,0.043299999088048935,0.053700000047683716
1683015724942727200,5.54072705078125,0.18599998950958252,-0.017099998891353607,0.006199999712407589
1683015724962727200,5.56072705078125,0.18889999389648438,-0.028099998831748962,-0.012199999764561653
1683015724982727200,5.58072705078125,0.18639999628067017,-0.03839999809861183,-0.031099999323487282
1683015725002727200,5.60072705078125,0.09969999641180038,0.010599999688565731,-0.05959999933838844
1683015725022727200,5.62072705078125,0.03610000014305115,0.001500000013038516,0.008999999612569809
1683015725042727200,5.64072705078125,-0.04649999737739563,0.01209999993443489,-0.03059999831020832
1683015725062727200,5.66072705078125,-0.0429999977350235,-0.01640000008046627,0.00699999975040555
1683015725082727200,5.68072705078125,0.006399999838322401,0.013399999588727951,0.0052999998442828655
1683015725102727200,5.70072705078125,0.06359999626874924,0.0037999998312443495,0.032600000500679016
1683015725122727200,5.72072705078125,0.08129999786615372,-0.01549999974668026,0.03999999910593033
1683015725142727200,5.74072705078125,0.1005999967455864,-0.015099999494850636,0.0478999987244606
1683015725162727200,5.76072705078125,0.06269999593496323,0.004900000058114529,0.036399997770786285
1683015725182727200,5.78072705078125,0.03709999844431877,0.01549999974668026,0.04479999840259552
1683015725202727200,5.80072705078125,-0.026599999517202377,-0.012899999506771564,0.014299999922513962
1683015725222727200,5.82072705078125,-0.05089999735355377,-0.002199999988079071,0.042799998074769974
1683015725242727200,5.84072705078125,-0.03799999877810478,-0.030899999663233757,0.051500000059604645
1683015725262727200,5.86072705078125,-0.007799999788403511,-0.020999999716877937,0.032099999487400055
1683015725282727200,5.88072705078125,0.011399999260902405,-0.021399999037384987,-0.01549999974668026
1683015725302727200,5.90072705078125,0.03989999741315842,-0.04149999842047691,-0.0429999977350235
1683015725322727200,5.92072705078125,0.03019999898970127,-0.012399999424815178,-0.03199999779462814
1683015725342727200,5.94072705078125,0.012000000104308128,-0.0023999998811632395,-0.01209999993443489
1683015725362727200,5.96072705078125,0.003999999724328518,-0.031599998474121094,-0.011899999342858791
1683015725382727200,5.98072705078125,-0.013499999418854713,-0.02159999869763851,-0.011799999512732029
1683015725402727200,6.00072705078125,-0.0414000004529953,-0.0016999999061226845,-0.021900000050663948
1683015725422727200,6.02072705078125,-0.020600000396370888,-0.030799999833106995,0.006599999964237213
1683015725442727200,6.04072705078125,-0.0004999999655410647,0.01850000023841858,-0.004100000020116568
1683015725462730500,6.06073046875,0.009399999864399433,-0.0007999999797903001,0.03399999812245369
1683015725482729000,6.08072900390625,0.00019999999494757503,-0.010300000198185444,0.013499999418854713
1683015725502729000,6.10072900390625,0.00139999995008111,-0.019899999722838402,0.02290000021457672
1683015725522729000,6.12072900390625,-0.055399999022483826,-0.019600000232458115,0.012999999336898327
1683015725542729000,6.14072900390625,-0.05339999869465828,-0.009599999524652958,-0.006000000052154064
1683015725562729000,6.16072900390625,-0.02419999986886978,-0.027499999850988388,0.0016999999061226845
1683015725582729000,6.18072900390625,0.003700000001117587,-0.016899999231100082,0.00699999975040555
1683015725602729000,6.20072900390625,0.04749999940395355,0.030799999833106995,0.02879999950528145
1683015725622729000,6.22072900390625,0.0738999992609024,0.03009999915957451,0.010599999688565731
1683015725642729000,6.24072900390625,0.02419999986886978,0.010199999436736107,0.021199999377131462
1683015725662729000,6.26072900390625,-0.03350000083446503,0.0004999999655410647,0.041200000792741776
1683015725682729000,6.28072900390625,-0.023899998515844345,-0.029099998995661736,-0.016300000250339508
1683015725702729000,6.30072900390625,-0.00699999975040555,-0.010300000198185444,-0.04360000044107437
1683015725722729000,6.32072900390625,0.08659999817609787,-0.0013000000035390258,-0.032899998128414154
1683015725742729000,6.34072900390625,0.09279999881982803,-0.0017999999690800905,-0.023000000044703484
1683015725762729000,6.36072900390625,0.052799999713897705,-0.0017999999690800905,0.0052999998442828655
1683015725782729000,6.38072900390625,0.005399999674409628,-0.0010999999940395355,0.013199999928474426
1683015725802729000,6.40072900390625,-0.0414000004529953,-0.0004999999655410647,0.011599999852478504
1683015725822729000,6.42072900390625,-0.020600000396370888,0,0.020099999383091927
1683015725842729000,6.44072900390625,0.008700000122189522,-0.01939999870955944,0.048499997705221176
1683015725862729000,6.46072900390625,0.028699999675154686,0.03019999898970127,0.03920000046491623
1683015725882729000,6.48072900390625,0.006199999712407589,0.014399999752640724,0.05889999866485596
1683015725902729000,6.50072900390625,-0.015599999576807022,0.0030999998562037945,0.001999999862164259
1683015725922729000,6.52072900390625,-0.049300000071525574,-0.01730000041425228,0.019299998879432678
1683015725942729000,6.54072900390625,-0.04619999974966049,-0.027699999511241913,-0.004900000058114529
1683015725962729000,6.56072900390625,-0.025699999183416367,-0.008899999782443047,-0.02029999904334545
1683015725982729000,6.58072900390625,0.0030999998562037945,0.00009999999747378752,0.002099999925121665
1683015726002729000,6.60072900390625,0.041200000792741776,-0.010300000198185444,-0.04429999738931656
1683015726022729000,6.62072900390625,0.011799999512732029,0.018699999898672104,-0.003599999938160181
1683015726042729000,6.64072900390625,-0.004699999932199717,-0.010900000110268593,-0.009800000116229057
1683015726062729000,6.66072900390625,-0.014599999412894249,-0.020600000396370888,-0.0009999999310821295
1683015726082729000,6.68072900390625,-0.033900000154972076,-0.03999999910593033,-0.03099999949336052
1683015726102729000,6.70072900390625,-0.013100000098347664,-0.00029999998514540493,-0.006399999838322401
1683015726122729000,6.72072900390625,0.0026000000070780516,-0.00009999999747378752,0.019500000402331352
1683015726142729000,6.74072900390625,0.02850000001490116,-0.009800000116229057,0.01679999940097332
1683015726162729000,6.76072900390625,0.004600000102072954,0.0007999999797903001,0.009800000116229057
1683015726182729000,6.78072900390625,0.003399999812245369,-0.01599999889731407,0.02539999969303608
1683015726202729000,6.80072900390625,0.008799999952316284,-0.006899999920278788,-0.0030999998562037945
1683015726222729000,6.82072900390625,-0.018199998885393143,-0.027699999511241913,-0.0058999997563660145
1683015726242729000,6.84072900390625,-0.07499999552965164,0.0007999999797903001,-0.049799997359514236
1683015726262729000,6.86072900390625,-0.04690000042319298,-0.010599999688565731,0.015699999406933784
1683015726282729000,6.88072900390625,0.03610000014305115,0.015199999324977398,0.0024999999441206455
1683015726302729000,6.90072900390625,0.07319999486207962,0.032099999487400055,0.01730000041425228
1683015726322729000,6.92072900390625,0.03749999776482582,0.03059999831020832,0.02969999983906746
1683015726342729000,6.94072900390625,-0.0142000000923872,-0.02889999933540821,0.021699998527765274
1683015726362729000,6.96072900390625,-0.015799999237060547,-0.05900000035762787,-0.015399999916553497
1683015726382729000,6.98072900390625,0.011299999430775642,-0.02070000022649765,-0.06129999831318855
1683015726402729000,7.00072900390625,0.05719999969005585,0.017500000074505806,-0.019700000062584877
1683015726422729000,7.02072900390625,0.06469999998807907,0.007199999876320362,-0.02879999950528145
1683015726442729000,7.04072900390625,0.03529999777674675,-0.023599999025464058,-0.008599999360740185
1683015726462729000,7.06072900390625,0.00989999994635582,-0.02290000021457672,-0.01899999938905239
1683015726482729000,7.08072900390625,0.0030999998562037945,-0.002699999837204814,-0.010099999606609344
1683015726502729000,7.10072900390625,0.0044999998062849045,-0.002199999988079071,0.047199998050928116
1683015726522729000,7.12072900390625,0.014399999752640724,-0.011799999512732029,0.026599999517202377
1683015726542729000,7.14072900390625,0.023899998515844345,0.01759999990463257,0.04569999873638153
1683015726562729000,7.16072900390625,0.026200000196695328,0.038100000470876694,0.04659999907016754
1683015726582729000,7.18072900390625,0.003999999724328518,0.0015999999595806003,0.022499999031424522
1683015726602729000,7.20072900390625,-0.00989999994635582,0.00029999998514540493,0.002699999837204814
1683015726622729000,7.22072900390625,-0.026799999177455902,-0.03009999915957451,-0.009999999776482582
1683015726642729000,7.24072900390625,0.003000000026077032,-0.0015999999595806003,-0.015399999916553497
1683015726662729000,7.26072900390625,0.05139999836683273,-0.002300000051036477,-0.00279999990016222
1683015726682729000,7.28072900390625,0.07009999454021454,-0.002899999963119626,-0.010400000028312206
1683015726702729000,7.30072900390625,0.07939999550580978,-0.0031999999191612005,-0.00930000003427267
1683015726722729000,7.32072900390625,0.026899999007582664,-0.004900000058114529,-0.00019999999494757503
1683015726742729000,7.34072900390625,-0.014999999664723873,-0.003999999724328518,-0.019299998879432678
1683015726762729000,7.36072900390625,0.008700000122189522,-0.013199999928474426,0.019600000232458115
1683015726782729000,7.38072900390625,0.010599999688565731,-0.012799999676644802,0.01899999938905239
1683015726802729000,7.40072900390625,0.030799999833106995,0.006899999920278788,0.018699999898672104
1683015726822729000,7.42072900390625,0.03099999949336052,-0.002699999837204814,0.018299998715519905
1683015726842729000,7.44072900390625,0.015399999916553497,-0.013199999928474426,-0.001999999862164259
1683015726862729000,7.46072900390625,0.00419999985024333,-0.011799999512732029,0.009999999776482582
1683015726882729000,7.48072900390625,-0.002899999963119626,-0.0005999999702908099,0.0052999998442828655
1683015726902729000,7.50072900390625,0.0044999998062849045,-0.008599999360740185,0.014999999664723873
1683015726922729000,7.52072900390625,0.012000000104308128,-0.02889999933540821,-0.012600000016391277
1683015726942729000,7.54072900390625,-0.012799999676644802,-0.000699999975040555,-0.06260000169277191
1683015726962729000,7.56072900390625,-0.02499999850988388,-0.002699999837204814,-0.03229999914765358
1683015726982729000,7.58072900390625,-0.019099999219179153,-0.031700000166893005,0.06119999662041664
1683015727002729000,7.60072900390625,0.05480000004172325,0.017400000244379044,0.028099998831748962
1683015727022729000,7.62072900390625,0.09019999951124191,0.026999998837709427,0.03629999980330467
1683015727042729000,7.64072900390625,0.02850000001490116,0.016999999061226845,0.019299998879432678
1683015727062729000,7.66072900390625,-0.015099999494850636,-0.0608999989926815,0.03019999898970127
1683015727082729000,7.68072900390625,-0.022499999031424522,-0.021699998527765274,-0.06589999794960022
1683015727102729000,7.70072900390625,0.03619999811053276,0.0072999997064471245,-0.025100000202655792
1683015727122729000,7.72072900390625,0.06469999998807907,0.02669999934732914,0.0139999995008111
1683015727142729000,7.74072900390625,0.044599998742341995,-0.022199999541044235,-0.015699999406933784
1683015727162729000,7.76072900390625,0.025299999862909317,-0.012000000104308128,0.01209999993443489
1683015727182729000,7.78072900390625,0.025999998673796654,-0.011500000022351742,0.010400000028312206
1683015727202729000,7.80072900390625,0.016599999740719795,-0.020999999716877937,-0.020099999383091927
1683015727222729000,7.82072900390625,0.006899999920278788,-0.04039999842643738,0.007899999618530273
1683015727242729000,7.84072900390625,0.055399999022483826,0.008999999612569809,0.07419999688863754
1683015727262729000,7.86072900390625,0.06480000168085098,0.00930000003427267,0.05289999768137932
1683015727282729000,7.88072900390625,0.015799999237060547,0.0008999999845400453,0.020399998873472214
1683015727302729000,7.90072900390625,-0.007799999788403511,-0.008999999612569809,0.024899998679757118
1683015727322729000,7.92072900390625,-0.0429999977350235,0.010499999858438969,0.008299999870359898
1683015727342729000,7.94072900390625,-0.0024999999441206455,-0.029099998995661736,-0.00839999970048666
1683015727362729000,7.96072900390625,0.045399997383356094,-0.019899999722838402,-0.006199999712407589
1683015727382729000,7.98072900390625,0.07349999994039536,-0.02029999904334545,-0.03449999913573265
1683015727402729000,8.00072900390625,0.0729999989271164,-0.010799999348819256,-0.0139999995008111
1683015727422729000,8.02072900390625,0.07360000163316727,0.008999999612569809,0.004799999762326479
1683015727442729000,8.04072900390625,0.03619999811053276,0.009399999864399433,0.02369999885559082
1683015727462729000,8.06072900390625,0.00930000003427267,-0.00969999935477972,0.013499999418854713
1683015727482729000,8.08072900390625,-0.007999999448657036,-0.00930000003427267,0.0031999999191612005
1683015727502729000,8.10072900390625,0.0026000000070780516,0.0005999999702908099,0.002899999963119626
1683015727522729000,8.12072900390625,0.03269999846816063,-0.018699999898672104,0.0023999998811632395
1683015727542729000,8.14072900390625,0.04309999942779541,0.0010999999940395355,0.0210999995470047
1683015727562729000,8.16072900390625,0.004999999888241291,-0.008299999870359898,0.0007999999797903001
1683015727582729000,8.18072900390625,0.006599999964237213,-0.007899999618530273,0.019299998879432678
1683015727602729000,8.20072900390625,-0.011599999852478504,-0.02709999866783619,0.028299998492002487
1683015727622729000,8.22072900390625,-0.010999999940395355,0.012399999424815178,0.01719999872148037
1683015727642729000,8.24072900390625,-0.0005999999702908099,-0.003499999875202775,0.020099999383091927
1683015727662729000,8.26072900390625,0.047199998050928116,0.014699999243021011,0.015799999237060547
1683015727682729000,8.28072900390625,0.027300000190734863,-0.01549999974668026,0.003399999812245369
1683015727702729000,8.30072900390625,0.013599999248981476,-0.009999999776482582,-0.04729999974370003
1683015727722729000,8.32072900390625,-0.028699999675154686,-0.06759999692440033,-0.00989999994635582
1683015727742729000,8.34072900390625,-0.005799999926239252,-0.01759999990463257,-0.012199999764561653
1683015727762729000,8.36072900390625,0.08249999582767487,0.022099999710917473,-0.004999999888241291
1683015727782729000,8.38072900390625,0.0722000002861023,0.04230000078678131,0.031199999153614044
1683015727802729000,8.40072900390625,0.06319999694824219,0.023599999025464058,0.07649999856948853
1683015727822729000,8.42072900390625,0.01599999889731407,-0.05389999970793724,0.024799998849630356
1683015727842729000,8.44072900390625,0.017500000074505806,-0.033799998462200165,0.03319999948143959
1683015727862729000,8.46072900390625,0.011099999770522118,-0.003999999724328518,0.007999999448657036
1683015727882729000,8.48072900390625,0.03240000084042549,-0.023799998685717583,-0.039000000804662704
1683015727902729000,8.50072900390625,0.016899999231100082,-0.015699999406933784,-0.015399999916553497
1683015727922729000,8.52072900390625,0.03959999978542328,-0.014999999664723873,0.003000000026077032
1683015727942729000,8.54072900390625,0.032099999487400055,-0.004600000102072954,0.021199999377131462
1683015727962729000,8.56072900390625,0.023899998515844345,0.00559999980032444,0.020099999383091927
1683015727982729000,8.58072900390625,0.006199999712407589,-0.013499999418854713,-0.00039999998989515007
1683015728002729000,8.60072900390625,-0.011299999430775642,-0.022699998691678047,0.027699999511241913
1683015728022729000,8.62072900390625,-0.00019999999494757503,0.01679999940097332,0.04659999907016754
1683015728042729000,8.64072900390625,0.006799999624490738,0.0364999994635582,0.014999999664723873
1683015728062729000,8.66072900390625,-0.010499999858438969,-0.022199999541044235,-0.003700000001117587
1683015728082729000,8.68072900390625,-0.028099998831748962,-0.031700000166893005,-0.003599999938160181
1683015728102729000,8.70072900390625,-0.020600000396370888,0.010499999858438969,0.026200000196695328
1683015728122729000,8.72072900390625,0.0058999997563660145,-0.019999999552965164,-0.00930000003427267
1683015728142729000,8.74072900390625,0.03269999846816063,-0.020899999886751175,0.003000000026077032
1683015728162729000,8.76072900390625,0.04099999740719795,0.007799999788403511,-0.005200000014156103
1683015728182729000,8.78072900390625,0.014399999752640724,-0.0037999998312443495,-0.010400000028312206
1683015728202729000,8.80072900390625,-0.002199999988079071,0.0064999996684491634,0.02759999968111515
1683015728222729000,8.82072900390625,-0.009800000116229057,-0.022299999371170998,-0.002699999837204814
1683015728242729000,8.84072900390625,-0.027499999850988388,-0.021800000220537186,0.025699999183416367
1683015728262729000,8.86072900390625,-0.01719999872148037,0.00039999998989515007,0.010099999606609344
1683015728282729000,8.88072900390625,0.014399999752640724,0.010999999940395355,0.0210999995470047
1683015728302729000,8.90072900390625,0.017799999564886093,-0.010900000110268593,-0.02070000022649765
1683015728322729000,8.92072900390625,0.010799999348819256,-0.002099999925121665,-0.0009999999310821295
1683015728342729000,8.94072900390625,-0.012799999676644802,-0.0015999999595806003,0.009999999776482582
1683015728362729000,8.96072900390625,-0.018400000408291817,-0.010900000110268593,0.03019999898970127
1683015728382729000,8.98072900390625,-0.01589999906718731,-0.010699999518692493,-0.008599999360740185
1683015728402729000,9.00072900390625,0.008999999612569809,-0.009499999694526196,0.012799999676644802
1683015728422729000,9.02072900390625,0.005499999970197678,0.009599999524652958,0.0024999999441206455
1683015728442729000,9.04072900390625,0.010499999858438969,-0.010199999436736107,0.000699999975040555
1683015728462729000,9.06072900390625,0.0008999999845400453,-0.011299999430775642,-0.013799999840557575
1683015728482729000,9.08072900390625,0.021800000220537186,-0.019600000232458115,0.02290000021457672
1683015728502729000,9.10072900390625,-0.007199999876320362,0,0.00969999935477972
1683015728522729000,9.12072900390625,-0.029500000178813934,-0.02929999865591526,-0.054899998009204865
1683015728542729000,9.14072900390625,-0.03500000014901161,-0.01939999870955944,-0.013299999758601189
1683015728562729000,9.16072900390625,0.006099999882280827,-0.009399999864399433,0.01640000008046627
1683015728582729000,9.18072900390625,0.054899998009204865,0.02969999983906746,0.04580000042915344
1683015728602729000,9.20072900390625,0.07429999858140945,0.03949999809265137,0.04580000042915344
1683015728622729000,9.22072900390625,0.026899999007582664,0.000699999975040555,0.05460000038146973
1683015728642729000,9.24072900390625,-0.03920000046491623,-0.028099998831748962,0.02459999918937683
1683015728662729000,9.26072900390625,-0.02019999921321869,-0.02579999901354313,0.00989999994635582
1683015728682729000,9.28072900390625,0.01489999983459711,0.012199999764561653,-0.006899999920278788
1683015728702729000,9.30072900390625,0.10119999945163727,-0.007799999788403511,-0.02539999969303608
1683015728722729000,9.32072900390625,0.09019999951124191,-0.027799999341368675,-0.03460000082850456
1683015728742729000,9.34072900390625,0.04179999977350235,-0.017899999395012856,-0.04429999738931656
1683015728762729000,9.36072900390625,0.014099999330937862,-0.007499999832361937,0.03269999846816063
1683015728782729000,9.38072900390625,-0.023799998685717583,0.012600000016391277,0.030899999663233757
1683015728802729000,9.40072900390625,-0.0038999998942017555,-0.016599999740719795,0.010900000110268593
1683015728822729000,9.42072900390625,0.015099999494850636,-0.026499999687075615,0.010599999688565731
1683015728842729000,9.44072900390625,0.04339999705553055,0.012600000016391277,0.039400000125169754
1683015728862729000,9.46072900390625,0.062199998646974564,0.02239999920129776,0.03920000046491623
1683015728882729000,9.48072900390625,0.03280000016093254,0.00279999990016222,-0.00009999999747378752
1683015728902729000,9.50072900390625,0.0044999998062849045,-0.016499999910593033,0.06809999793767929
1683015728922729000,9.52072900390625,-0.02369999885559082,-0.026099998503923416,0.00930000003427267
1683015728942729000,9.54072900390625,0.015399999916553497,-0.016599999740719795,0.0005999999702908099
1683015728962729000,9.56072900390625,0.05309999734163284,-0.016999999061226845,0.0017999999690800905
1683015728982729000,9.58072900390625,0.08049999922513962,0.011799999512732029,-0.02669999934732914
1683015729002729000,9.60072900390625,0.07019999623298645,-0.01769999973475933,-0.045499999076128006
1683015729022729000,9.62072900390625,0.04149999842047691,0.0018999999156221747,0.03269999846816063
1683015729042729000,9.64072900390625,0.02329999953508377,0.002099999925121665,0.032499998807907104
1683015729062729000,9.66072900390625,0.014800000004470348,-0.007499999832361937,-0.015799999237060547
1683015729082729000,9.68072900390625,0.015199999324977398,-0.007599999662488699,0.013899999670684338
1683015729102729000,9.70072900390625,0.025100000202655792,-0.007599999662488699,-0.015199999324977398
1683015729122729000,9.72072900390625,0.044199999421834946,-0.007699999958276749,-0.004999999888241291
1683015729142729000,9.74072900390625,0.03370000049471855,-0.01759999990463257,0.004600000102072954
1683015729162729000,9.76072900390625,0.052799999713897705,0.0017999999690800905,0.004699999932199717
1683015729182729000,9.78072900390625,0.03309999778866768,-0.007799999788403511,0.024000000208616257
1683015729202729000,9.80072900390625,0.014099999330937862,-0.01759999990463257,0.0044999998062849045
1683015729222727200,9.82072705078125,0.0139999995008111,0.0016999999061226845,-0.014299999922513962
1683015729242729000,9.84072900390625,0.06229999661445618,0.0015999999595806003,0.024899998679757118
1683015729262729000,9.86072900390625,0.06159999966621399,0.0210999995470047,-0.004100000020116568
1683015729282729000,9.88072900390625,0.04209999740123749,0.011099999770522118,0.006300000008195639
1683015729302729000,9.90072900390625,0.013499999418854713,0.00139999995008111,0.03590000048279762
1683015729322729000,9.92072900390625,0.0429999977350235,0.00139999995008111,0.06549999862909317
1683015729342729000,9.94072900390625,0.06149999797344208,0.0009999999310821295,0.027400000020861626
1683015729362729000,9.96072900390625,0.05079999938607216,-0.02879999950528145,-0.019999999552965164
1683015729382729000,9.98072900390625,0.010699999518692493,0.009800000116229057,-0.047599997371435165
1683015729402729000,10.00072900390625,0.03929999843239784,-0.009999999776482582,0.001999999862164259
1683015729422729000,10.02072900390625,0.08669999986886978,-0.00039999998989515007,-0.02709999866783619
1683015729442729000,10.04072900390625,0.10489999502897263,0.02879999950528145,0.06039999797940254
1683015729462729000,10.06072900390625,0.0762999951839447,0.029099998995661736,0.05959999933838844
1683015729482729000,10.08072900390625,-0.00930000003427267,-0.03909999877214432,0.020399998873472214
1683015729502729000,10.10072900390625,-0.01719999872148037,-0.0486999973654747,-0.008599999360740185
1683015729522732000,10.12073193359375,0.011299999430775642,0.009800000116229057,0.021199999377131462
1683015729542729000,10.14072900390625,0.06729999929666519,0.01889999955892563,-0.01640000008046627
1683015729562729000,10.16072900390625,0.08399999886751175,-0.020899999886751175,-0.024899998679757118
1683015729582729000,10.18072900390625,0.07189999520778656,-0.011500000022351742,-0.03439999744296074
1683015729602729000,10.20072900390625,0.07019999623298645,-0.011599999852478504,0.004100000020116568
1683015729622729000,10.22072900390625,0.0502999983727932,0.017999999225139618,-0.00699999975040555
1683015729642729000,10.24072900390625,0.0405999980866909,-0.030700000002980232,0.011599999852478504
1683015729662729000,10.26072900390625,0.021399999037384987,-0.0010999999940395355,0.03059999831020832
1683015729682729000,10.28072900390625,0.04129999876022339,-0.0008999999845400453,0.07859999686479568
1683015729702729000,10.30072900390625,0.031599998474121094,0.008799999952316284,0.010400000028312206
1683015729722729000,10.32072900390625,0.022599998861551285,-0.0010999999940395355,0.021399999037384987
1683015729742729000,10.34072900390625,-0.02499999850988388,-0.02070000022649765,0.012199999764561653
1683015729762729000,10.36072900390625,-0.024699999019503593,-0.010999999940395355,0.013199999928474426
1683015729782729000,10.38072900390625,0.02279999852180481,-0.0016999999061226845,-0.005200000014156103
1683015729802729000,10.40072900390625,0.08799999952316284,-0.02199999988079071,-0.033299997448921204
1683015729822729000,10.42072900390625,0.08529999852180481,0.006599999964237213,-0.02199999988079071
1683015729842729000,10.44072900390625,0.06419999897480011,0.006199999712407589,-0.03099999949336052
1683015729862729000,10.46072900390625,0.0640999972820282,-0.003499999875202775,-0.011399999260902405
1683015729882729000,10.48072900390625,0.09369999915361404,0.016300000250339508,0.026599999517202377
1683015729902729000,10.50072900390625,0.0072999997064471245,-0.002699999837204814,0.005399999674409628
1683015729922729000,10.52072900390625,0.01899999938905239,-0.002300000051036477,0.034299999475479126
1683015729942729000,10.54072900390625,0.02019999921321869,0.007799999788403511,0.03350000083446503
1683015729962729000,10.56072900390625,0.04969999939203262,-0.0018999999156221747,-0.005699999630451202
1683015729982729000,10.58072900390625,0.039799999445676804,-0.011699999682605267,0.0038999998942017555
1683015730002729000,10.60072900390625,0.049799997359514236,-0.0016999999061226845,0.042399998754262924
1683015730022729000,10.62072900390625,0.03999999910593033,-0.011500000022351742,0.012899999506771564
1683015730042729000,10.64072900390625,0.05929999798536301,0.007999999448657036,0.022599998861551285
1683015730062729000,10.66072900390625,0.03959999978542328,0.007999999448657036,0.03229999914765358
1683015730082729000,10.68072900390625,0.05909999832510948,0.007999999448657036,-0.0066999997943639755
1683015730102729000,10.70072900390625,0.049300000071525574,-0.021399999037384987,0.02279999852180481
1683015730122729000,10.72072900390625,0.019999999552965164,-0.02149999886751175,-0.025699999183416367
1683015730142729000,10.74072900390625,0.03959999978542328,-0.011799999512732029,-0.03500000014901161
1683015730162729000,10.76072900390625,0.03959999978542328,-0.031199999153614044,0.013199999928474426
1683015730182729000,10.78072900390625,0.06849999725818634,0.008100000210106373,0.06119999662041664
1683015730202729000,10.80072900390625,0.04879999905824661,0.03749999776482582,0.01209999993443489
1683015730222729000,10.82072900390625,0.020499998703598976,0.008200000040233135,0.05130000039935112
1683015730242729000,10.84072900390625,-0.03659999743103981,-0.02070000022649765,0.060499999672174454
1683015730262729000,10.86072900390625,-0.035999998450279236,-0.04999999701976776,0.04050000011920929
1683015730282729000,10.88072900390625,0.011500000022351742,-0.030899999663233757,-0.006799999624490738
1683015730302729000,10.90072900390625,0.05769999697804451,0.017099998891353607,-0.02410000003874302
1683015730322729000,10.92072900390625,0.07530000060796738,-0.022699998691678047,-0.051899999380111694
1683015730342729000,10.94072900390625,0.036399997770786285,-0.012899999506771564,-0.04149999842047691
1683015730362729000,10.96072900390625,-0.020099999383091927,-0.012399999424815178,0.045399997383356094
1683015730382729000,10.98072900390625,-0.03790000081062317,-0.001999999862164259,0.014699999243021011
1683015730402729000,11.00072900390625,-0.017799999564886093,-0.021399999037384987,0.014099999330937862
1683015730422729000,11.02072900390625,0.010699999518692493,-0.02149999886751175,0.043299999088048935
1683015730442729000,11.04072900390625,0.039000000804662704,0.027300000190734863,0.033399999141693115
1683015730462729000,11.06072900390625,0.028999999165534973,0.04690000042319298,0.06260000169277191
1683015730482729000,11.08072900390625,0.010300000198185444,0.007799999788403511,0.02369999885559082
1683015730502729000,11.10072900390625,-0.03720000013709068,-0.031300000846385956,0.02459999918937683
1683015730522729000,11.12072900390625,-0.03720000013709068,-0.021800000220537186,0.006000000052154064
1683015730542729000,11.14072900390625,0.029899999499320984,-0.0026000000070780516,0.0072999997064471245
1683015730562729000,11.16072900390625,0.05689999833703041,0.006399999838322401,-0.02070000022649765
1683015730582729000,11.18072900390625,0.08500000089406967,-0.013599999248981476,0.00029999998514540493
1683015730602729000,11.20072900390625,0.05509999766945839,0.005699999630451202,-0.01860000006854534
1683015730622730500,11.22073046875,0.016699999570846558,-0.0038999998942017555,-0.008499999530613422
1683015730642730500,11.24073046875,0.007699999958276749,-0.0037999998312443495,0.011099999770522118
1683015730662730500,11.26073046875,0.007899999618530273,-0.013599999248981476,0.020800000056624413
1683015730682729000,11.28072900390625,0.02669999934732914,-0.013700000010430813,0.010999999940395355
1683015730702729000,11.30072900390625,0.0551999993622303,-0.003999999724328518,0.0011999999405816197
1683015730722729000,11.32072900390625,0.04470000043511391,-0.013899999670684338,-0.01860000006854534
1683015730742729000,11.34072900390625,0.044499997049570084,0.015599999576807022,0.039400000125169754
1683015730762729000,11.36072900390625,0.014999999664723873,-0.0037999998312443495,0.04859999939799309
1683015730782729000,11.38072900390625,0.034299999475479126,-0.013599999248981476,0.04839999973773956
1683015730802729000,11.40072900390625,0.03370000049471855,-0.0038999998942017555,0.03879999741911888
1683015730822729000,11.42072900390625,0.05209999904036522,-0.024000000208616257,0.010499999858438969
1683015730842729000,11.44072900390625,0.05119999870657921,-0.02449999935925007,-0.016899999231100082
1683015730862729000,11.46072900390625,0.002099999925121665,-0.005200000014156103,-0.04470000043511391
1683015730882729000,11.48072900390625,-0.00699999975040555,0.004399999976158142,0.014800000004470348
1683015730902729000,11.50072900390625,0.01209999993443489,-0.0052999998442828655,0.0340999998152256
1683015730922729000,11.52072900390625,0.07889999449253082,0.03359999880194664,0.024299999698996544
1683015730942729000,11.54072900390625,0.06799999624490738,0.04319999739527702,0.02459999918937683
1683015730962729000,11.56072900390625,0.00989999994635582,-0.025100000202655792,0.03370000049471855
1683015730982729000,11.58072900390625,0.0009999999310821295,-0.044599998742341995,-0.00559999980032444
1683015731002729000,11.60072900390625,0.02979999966919422,-0.0348999984562397,-0.015099999494850636
1683015731022729000,11.62072900390625,0.03779999911785126,0.013599999248981476,-0.02410000003874302
1683015731042729000,11.64072900390625,0.04580000042915344,0.013199999928474426,-0.013799999840557575
1683015731062729000,11.66072900390625,0.0640999972820282,-0.016300000250339508,-0.013799999840557575
1683015731082729000,11.68072900390625,0.05329999700188637,-0.026200000196695328,-0.00419999985024333
1683015731102729000,11.70072900390625,0.04309999942779541,-0.026099998503923416,-0.004600000102072954
1683015731122729000,11.72072900390625,0.032999999821186066,0.0031999999191612005,0.014399999752640724
1683015731142729000,11.74072900390625,0.03280000016093254,0.003399999812245369,0.052799999713897705
1683015731162729000,11.76072900390625,0.041999999433755875,0.013299999758601189,0.05209999904036522
1683015731182729000,11.78072900390625,0.03189999982714653,0.013299999758601189,0.05199999734759331
1683015731202729000,11.80072900390625,0.03199999779462814,-0.006199999712407589,0.01269999984651804
1683015731222729000,11.82072900390625,0.03219999745488167,0.003499999875202775,-0.016599999740719795
1683015731242729000,11.84072900390625,0.02239999920129776,-0.02579999901354313,-0.006799999624490738
1683015731262729000,11.86072900390625,0.051500000059604645,-0.025599999353289604,0.05089999735355377
1683015731282729000,11.88072900390625,0.04079999774694443,-0.006000000052154064,0.020800000056624413
1683015731302729000,11.90072900390625,0.04010000079870224,-0.01589999906718731,0.010999999940395355
1683015731322729000,11.92072900390625,0.06839999556541443,0.003399999812245369,-0.008200000040233135
1683015731342729000,11.94072900390625,0.057999998331069946,-0.0064999996684491634,-0.017400000244379044
1683015731362729000,11.96072900390625,0.04779999703168869,-0.0066999997943639755,-0.007199999876320362
1683015731382729000,11.98072900390625,0.04739999771118164,0.012799999676644802,0.0023999998811632395
1683015731402729000,12.00072900390625,0.0279999990016222,-0.016499999910593033,-0.0072999997064471245
1683015731422729000,12.02072900390625,0.03749999776482582,0.0030999998562037945,0.011899999342858791
1683015731442729000,12.04072900390625,0.037299998104572296,0.012999999336898327,0.03059999831020832
1683015731462729000,12.06072900390625,0.046699997037649155,0.0032999999821186066,0.010499999858438969
1683015731482729000,12.08072900390625,0.046299997717142105,0.0032999999821186066,0.01979999989271164
1683015731502729000,12.10072900390625,0.03619999811053276,0.003499999875202775,0.03839999809861183
1683015731522729000,12.12072900390625,0.04529999941587448,-0.006199999712407589,0.038100000470876694
1683015731542729000,12.14072900390625,0.06390000134706497,-0.006399999838322401,0.0478999987244606
1683015731562729000,12.16072900390625,0.0729999989271164,0.012899999506771564,0.009599999524652958
1683015731582729000,12.18072900390625,0.02419999986886978,-0.016699999570846558,-0.04809999838471413
1683015731602729000,12.20072900390625,0.0052999998442828655,-0.006899999920278788,-0.02759999968111515
1683015731622729000,12.22072900390625,0.03460000082850456,-0.006799999624490738,0.04999999701976776
1683015731642729000,12.24072900390625,0.09160000085830688,-0.006899999920278788,0.03969999775290489
1683015731662729000,12.26072900390625,0.12919999659061432,0.04169999808073044,0.010400000028312206
1683015731682729000,12.28072900390625,0.05209999904036522,0.002699999837204814,0.0689999982714653
1683015731702729000,12.30072900390625,-0.023499999195337296,-0.026200000196695328,0.0004999999655410647
1683015731722729000,12.32072900390625,0.017099998891353607,-0.04580000042915344,-0.01809999905526638
1683015731742729000,12.34072900390625,0.04559999704360962,-0.016899999231100082,-0.055799998342990875
1683015731762729000,12.36072900390625,0.07329999655485153,0.002300000051036477,-0.02579999901354313
1683015731782729000,12.38072900390625,0.07279999554157257,0.002300000051036477,-0.03619999811053276
1683015731802729000,12.40072900390625,0.0738999992609024,-0.016599999740719795,0.02070000022649765
1683015731822729000,12.42072900390625,0.03629999980330467,-0.01599999889731407,0.03839999809861183
1683015731842729000,12.44072900390625,-0.011099999770522118,0.003999999724328518,-0.001999999862164259
1683015731862729000,12.46072900390625,0.008899999782443047,-0.0052999998442828655,0.045499999076128006
1683015731882729000,12.48072900390625,0.05739999935030937,0.014399999752640724,0.06359999626874924
1683015731902729000,12.50072900390625,0.07569999992847443,0.02419999986886978,0.04319999739527702
1683015731922729000,12.52072900390625,0.07519999891519547,-0.004999999888241291,0.07180000096559525
1683015731942729000,12.54072900390625,0.05700000002980232,0.004900000058114529,0.05219999700784683
1683015731962729000,12.56072900390625,0.010499999858438969,-0.02419999986886978,0.013700000010430813
1683015731982729000,12.58072900390625,0.002899999963119626,-0.02419999986886978,-0.004600000102072954
1683015732002729000,12.60072900390625,0.022699998691678047,-0.014499999582767487,-0.02329999953508377
1683015732022729000,12.62072900390625,0.041600000113248825,-0.02459999918937683,-0.02239999920129776
1683015732042729000,12.64072900390625,0.06929999589920044,0.004399999976158142,-0.022299999371170998
1683015732062729000,12.66072900390625,0.08789999783039093,0.004399999976158142,0.006599999964237213
1683015732082729000,12.68072900390625,0.07800000160932541,-0.0052999998442828655,-0.023000000044703484
1683015732102729000,12.70072900390625,0.05040000006556511,-0.004900000058114529,0.00559999980032444
1683015732122729000,12.72072900390625,0.02319999970495701,-0.0142000000923872,0.014499999582767487
1683015732142729000,12.74072900390625,-0.003999999724328518,0.0058999997563660145,0.02290000021457672
1683015732162729000,12.76072900390625,0.016499999910593033,0.006399999838322401,0.050999999046325684
1683015732182729000,12.78072900390625,0.045899998396635056,-0.02279999852180481,0.040300000458955765
1683015732202729000,12.80072900390625,0.07479999959468842,-0.0030999998562037945,0.02969999983906746
1683015732222729000,12.82072900390625,0.06449999660253525,-0.002899999963119626,0.04820000007748604
1683015732242729000,12.84072900390625,0.0551999993622303,-0.002699999837204814,0.04769999906420708
1683015732262729000,12.86072900390625,0.03579999879002571,-0.01249999925494194,0.008499999530613422
1683015732282729000,12.88072900390625,0.026099998503923416,-0.002699999837204814,0.018299998715519905
1683015732302729000,12.90072900390625,0.055399999022483826,0.016899999231100082,0.047599997371435165
1683015732322729000,12.92072900390625,0.08410000056028366,-0.002899999963119626,0.01889999955892563
1683015732342729000,12.94072900390625,0.055399999022483826,-0.012899999506771564,-0.048499997705221176
1683015732362729000,12.96072900390625,0.02719999849796295,-0.003000000026077032,-0.01850000023841858
1683015732382729000,12.98072900390625,0.01860000006854534,-0.01249999925494194,0.019700000062584877
1683015732402729000,13.00072900390625,0.0674000009894371,0.026799999177455902,0.01899999938905239
1683015732422729000,13.02072900390625,0.08639999479055405,0.04639999940991402,0.008899999782443047
1683015732442729000,13.04072900390625,0.058799996972084045,0.007599999662488699,0.017799999564886093
1683015732462729000,13.06072900390625,0.012999999336898327,-0.020899999886751175,0.06529999524354935
1683015732482729000,13.08072900390625,-0.003000000026077032,-0.04969999939203262,0.025599999353289604
1683015732502729000,13.10072900390625,-0.010999999940395355,-0.03009999915957451,0.006799999624490738
1683015732522729000,13.12072900390625,0.019299998879432678,0.018799999728798866,0.007599999662488699
1683015732542729000,13.14072900390625,0.05909999832510948,0.008999999612569809,-0.0210999995470047
1683015732562729000,13.16072900390625,0.0414000004529953,-0.020099999383091927,-0.011299999430775642
1683015732582729000,13.18072900390625,-0.004799999762326479,0,-0.002099999925121665
1683015732602729000,13.20072900390625,-0.020800000056624413,0.0005999999702908099,0.03619999811053276
1683015732622729000,13.22072900390625,-0.03830000013113022,-0.028299998492002487,0.016099998727440834
1683015732642729000,13.24072900390625,-0.017999999225139618,0.0011999999405816197,0.045099999755620956
1683015732662729000,13.26072900390625,0.020600000396370888,-0.008499999530613422,0.005499999970197678
1683015732682729000,13.28072900390625,0.07889999449253082,0.011099999770522118,0.06350000202655792
1683015732702729000,13.30072900390625,0.011299999430775642,-0.008200000040233135,-0.005200000014156103
1683015732722727200,13.32072705078125,-0.025599999353289604,-0.01759999990463257,0.03359999880194664
1683015732742729000,13.34072900390625,-0.02410000003874302,-0.017400000244379044,0.02369999885559082
1683015732762729000,13.36072900390625,0.0052999998442828655,-0.007599999662488699,0.014099999330937862
1683015732782729000,13.38072900390625,0.023599999025464058,-0.007899999618530273,-0.004799999762326479
1683015732802729000,13.40072900390625,0.06159999966621399,0.001500000013038516,-0.014299999922513962
1683015732822729000,13.42072900390625,0.07019999623298645,0.011099999770522118,0.00559999980032444
1683015732842729000,13.44072900390625,0.0414000004529953,-0.008200000040233135,0.01489999983459711
1683015732862729000,13.46072900390625,0.033299997448921204,0.0017999999690800905,0.03399999812245369
1683015732882729000,13.48072900390625,-0.013599999248981476,0.002199999988079071,0.023899998515844345
1683015732902729000,13.50072900390625,0.007199999876320362,-0.0072999997064471245,0.014099999330937862
1683015732922729000,13.52072900390625,0.017899999395012856,0.0024999999441206455,0.0139999995008111
1683015732942729000,13.54072900390625,0.03749999776482582,-0.007199999876320362,0.004100000020116568
1683015732962729000,13.56072900390625,0.04739999771118164,-0.00699999975040555,0.032999999821186066
1683015732982729000,13.58072900390625,0.02850000001490116,-0.026399999856948853,0.02239999920129776
1683015733002729000,13.60072900390625,0.019500000402331352,-0.0066999997943639755,0.012600000016391277
1683015733022729000,13.62072900390625,0.009999999776482582,-0.0064999996684491634,0.021900000050663948
1683015733042729000,13.64072900390625,0.029600000008940697,-0.0064999996684491634,0.002199999988079071
1683015733062729000,13.66072900390625,0.03879999741911888,-0.006599999964237213,0.0023999998811632395
1683015733082729000,13.68072900390625,0.04809999838471413,-0.006599999964237213,0.031599998474121094
1683015733102729000,13.70072900390625,0.04800000041723251,-0.006599999964237213,0.011899999342858791
1683015733122729000,13.72072900390625,0.028699999675154686,-0.006599999964237213,0.02159999869763851
1683015733142729000,13.74072900390625,0.039400000125169754,0.0031999999191612005,0.021699998527765274
1683015733162729000,13.76072900390625,0.020399998873472214,-0.016300000250339508,-0.007199999876320362
1683015733182729000,13.78072900390625,0.021399999037384987,0.013199999928474426,-0.0364999994635582
1683015733202729000,13.80072900390625,-0.00699999975040555,-0.01599999889731407,0.012299999594688416
1683015733222729000,13.82072900390625,0.012600000016391277,-0.03539999946951866,0.031099999323487282
1683015733242729000,13.84072900390625,0.08009999990463257,0.013499999418854713,0.020600000396370888
1683015733262729000,13.86072900390625,0.07930000126361847,0.03319999948143959,0.05909999832510948
1683015733282729000,13.88072900390625,0.04099999740719795,-0.005799999926239252,0.029399998486042023
1683015733302729000,13.90072900390625,-0.02579999901354313,-0.0348999984562397,0.03879999741911888
1683015733322729000,13.92072900390625,-0.024899998679757118,-0.024899998679757118,0.06830000132322311
1683015733342729000,13.94072900390625,0.013399999588727951,-0.00559999980032444,0.00039999998989515007
1683015733362729000,13.96072900390625,0.08949999511241913,-0.006300000008195639,-0.03700000047683716
1683015733382729000,13.98072900390625,0.10729999840259552,-0.026399999856948853,-0.03590000048279762
1683015733402729000,14.00072900390625,0.0681999996304512,-0.026499999687075615,-0.0357000008225441
1683015733422729000,14.02072900390625,0.01119999960064888,-0.025999998673796654,0.0023999998811632395
1683015733442729000,14.04072900390625,0.003000000026077032,-0.015599999576807022,0.020600000396370888
1683015733462729000,14.06072900390625,0.003700000001117587,-0.005499999970197678,0.00969999935477972
1683015733482729000,14.08072900390625,0.023499999195337296,-0.005200000014156103,0.04800000041723251
1683015733502729000,14.10072900390625,0.052400000393390656,0.004600000102072954,0.037299998104572296
1683015733522729000,14.12072900390625,0.061799999326467514,0.014299999922513962,0.027400000020861626
1683015733542729000,14.14072900390625,0.013499999418854713,-0.0050999997183680534,0.027499999850988388
1683015733562729000,14.16072900390625,-0.004799999762326479,-0.004900000058114529,0.0471000000834465
1683015733582729000,14.18072900390625,-0.003999999724328518,-0.024299999698996544,0.07580000162124634
1683015733602729000,14.20072900390625,0.02459999918937683,-0.014800000004470348,-0.0210999995470047
1683015733622729000,14.22072900390625,0.052400000393390656,-0.025200000032782555,-0.00969999935477972
1683015733642729000,14.24072900390625,0.07090000063180923,-0.0058999997563660145,0.0009999999310821295
1683015733662729000,14.26072900390625,0.06069999933242798,-0.01589999906718731,-0.03739999979734421
1683015733682729000,14.28072900390625,0.04179999977350235,-0.015799999237060547,0.0016999999061226845
1683015733702729000,14.30072900390625,0.0139999995008111,-0.005799999926239252,0.02149999886751175
1683015733722729000,14.32072900390625,0.02499999850988388,-0.015399999916553497,0.0016999999061226845
1683015733742729000,14.34072900390625,0.054099999368190765,0.003999999724328518,-0.01769999973475933
1683015733762729000,14.36072900390625,0.06309999525547028,-0.005699999630451202,0.020999999716877937
1683015733782729000,14.38072900390625,0.06229999661445618,0.013799999840557575,0.02029999904334545
1683015733802729000,14.40072900390625,0.06209999695420265,-0.005499999970197678,0.029199998825788498
1683015733822729000,14.42072900390625,0.04259999841451645,-0.0052999998442828655,0.0674000009894371
1683015733842729000,14.44072900390625,0.02319999970495701,-0.005200000014156103,0.027899999171495438
1683015733862729000,14.46072900390625,0.042500000447034836,0.0044999998062849045,0.027899999171495438
1683015733882727200,14.48072705078125,0.05199999734759331,-0.015099999494850636,0.018199998885393143
1683015733902727200,14.50072705078125,0.03219999745488167,-0.015199999324977398,0.028299998492002487
1683015733922727200,14.52072705078125,0.04189999774098396,-0.005499999970197678,-0.00029999998514540493
1683015733942727200,14.54072705078125,0.03280000016093254,-0.015399999916553497,0.019899999722838402
1683015733962727200,14.56072705078125,0.023499999195337296,0.003999999724328518,0.020499998703598976
1683015733982727200,14.58072705078125,0.043299999088048935,-0.005799999926239252,-0.008200000040233135
1683015734002727200,14.60072705078125,0.04270000010728836,0.013599999248981476,0.021399999037384987
1683015734022727200,14.62072705078125,0.06159999966621399,0.003700000001117587,0.02149999886751175
1683015734042727200,14.64072705078125,0.022599998861551285,-0.02579999901354313,-0.046299997717142105
1683015734062727200,14.66072705078125,0.003499999875202775,-0.016099998727440834,-0.03579999879002571
1683015734082727200,14.68072705078125,0.003999999724328518,-0.025599999353289604,0.04149999842047691
1683015734102727200,14.70072705078125,0.032899998128414154,-0.005799999926239252,0.050200000405311584
1683015734122727200,14.72072705078125,0.07119999825954437,0.013599999248981476,0.04019999876618385
1683015734142727200,14.74072705078125,0.03199999779462814,0.0038999998942017555,0.04969999939203262
1683015734162727200,14.76072705078125,-0.005799999926239252,-0.025200000032782555,0.05929999798536301
1683015734182727200,14.78072705078125,-0.025299999862909317,-0.05480000004172325,0.03059999831020832
1683015734202727200,14.80072705078125,0.012199999764561653,-0.016200000420212746,-0.026099998503923416
1683015734222727200,14.82072705078125,0.07809999585151672,0.012199999764561653,-0.013799999840557575
1683015734242727200,14.84072705078125,0.10509999841451645,-0.008100000210106373,-0.0414000004529953
1683015734262727200,14.86072705078125,0.05570000037550926,-0.027899999171495438,-0.04050000011920929
1683015734282727200,14.88072705078125,0.026999998837709427,-0.017899999395012856,-0.011699999682605267
1683015734302727200,14.90072705078125,0.008200000040233135,-0.007699999958276749,0.016599999740719795
1683015734322727200,14.92072705078125,0.008200000040233135,-0.017500000074505806,-0.0032999999821186066
1683015734342727200,14.94072705078125,0.03659999743103981,0.011799999512732029,0.015699999406933784
1683015734362727200,14.96072705078125,0.054999999701976776,0.011899999342858791,0.04399999976158142
1683015734382727200,14.98072705078125,0.05419999733567238,0.011899999342858791,0.04360000044107437
1683015734402727200,15.00072705078125,0.025100000202655792,0.002099999925121665,0.02410000003874302
1683015734422727200,15.02072705078125,0.006199999712407589,0.002199999988079071,0.043699998408555984
1683015734442727200,15.04072705078125,-0.0030999998562037945,-0.027300000190734863,0.03480000048875809
1683015734462727200,15.06072705078125,0.01549999974668026,-0.027699999511241913,-0.003000000026077032
1683015734482727200,15.08072705078125,0.05299999937415123,-0.008700000122189522,-0.01119999960064888
1683015734502727200,15.10072705078125,0.07039999961853027,-0.00930000003427267,0.00989999994635582
1683015734522727200,15.12072705078125,0.09839999675750732,0.00969999935477972,-0.008299999870359898
1683015734542727200,15.14072705078125,0.0778999999165535,0.019199999049305916,-0.007599999662488699
1683015734562727200,15.16072705078125,0.03879999741911888,-0.010099999606609344,0.021699998527765274
1683015734582727200,15.18072705078125,0.01979999989271164,-0.010099999606609344,-0.016899999231100082
1683015734602727200,15.20072705078125,0.019999999552965164,-0.010099999606609344,0.002899999963119626
1683015734622727200,15.22072705078125,0.029600000008940697,0.009399999864399433,0.00279999990016222
1683015734642727200,15.24072705078125,0.058399997651576996,-0.00019999999494757503,0.02159999869763851
1683015734662727200,15.26072705078125,0.06780000030994415,-0.00009999999747378752,0.03059999831020832
1683015734682729000,15.28072900390625,0.03920000046491623,-0.009800000116229057,0.020499998703598976
1683015734702729000,15.30072900390625,0.01119999960064888,-0.009499999694526196,0.04969999939203262
1683015734722729000,15.32072900390625,-0.026599999517202377,0.00029999998514540493,0.030399998649954796
1683015734742729000,15.34072900390625,-0.026399999856948853,-0.009499999694526196,0.011500000022351742
1683015734762729000,15.36072900390625,0.012000000104308128,0,0.022299999371170998
1683015734782729000,15.38072900390625,0.030399998649954796,-0.010300000198185444,0.013700000010430813
1683015734802729000,15.40072900390625,0.029500000178813934,-0.020499998703598976,-0.0142000000923872
1683015734822729000,15.42072900390625,0.019600000232458115,-0.02070000022649765,-0.013199999928474426
1683015734842729000,15.44072900390625,0.010300000198185444,-0.020800000056624413,0.016699999570846558
1683015734862729000,15.46072900390625,0.010900000110268593,-0.011099999770522118,-0.021399999037384987
1683015734882729000,15.48072900390625,-0.03709999844431877,-0.0210999995470047,-0.06929999589920044
1683015734902729000,15.50072900390625,-0.06560000032186508,-0.0013000000035390258,-0.02019999921321869
1683015734922729000,15.52072900390625,-0.016899999231100082,-0.030499998480081558,0.06659999489784241
1683015734942729000,15.54072900390625,0.049300000071525574,-0.0010999999940395355,0.04580000042915344
1683015734962729000,15.56072900390625,0.07669999450445175,0.05739999935030937,0.055299997329711914
1683015734982729000,15.58072900390625,0.03819999843835831,0.028099998831748962,0.045499999076128006
1683015735002729000,15.60072900390625,-0.038100000470876694,-0.04019999876618385,0.045399997383356094
1683015735022729000,15.62072900390625,-0.046699997037649155,-0.030399998649954796,-0.002699999837204814
1683015735042729000,15.64072900390625,0.010799999348819256,-0.001500000013038516,-0.020499998703598976
1683015735062729000,15.66072900390625,0.04800000041723251,0.02719999849796295,-0.019099999219179153
1683015735082729000,15.68072900390625,0.03720000013709068,-0.002300000051036477,0.010599999688565731
1683015735102729000,15.70072900390625,0.03700000047683716,-0.02199999988079071,-0.01860000006854534
1683015735122729000,15.72072900390625,0.027300000190734863,-0.01209999993443489,-0.008999999612569809
1683015735142729000,15.74072900390625,0.02719999849796295,-0.002300000051036477,-0.009200000204145908
1683015735162729000,15.76072900390625,0.007699999958276749,-0.002199999988079071,-0.009800000116229057
1683015735182729000,15.78072900390625,0.03709999844431877,0.007899999618530273,0.037699997425079346
1683015735202729000,15.80072900390625,0.037299998104572296,0.027899999171495438,0.035999998450279236
1683015735222729000,15.82072900390625,0.00930000003427267,-0.010900000110268593,0.05480000004172325
1683015735242729000,15.84072900390625,-0.01809999905526638,-0.010499999858438969,0.0543999969959259
1683015735262729000,15.86072900390625,-0.03669999912381172,-0.03989999741315842,0.02539999969303608
1683015735282729000,15.88072900390625,0.02149999886751175,-0.010699999518692493,0.01640000008046627
1683015735302729000,15.90072900390625,0.04959999769926071,-0.020999999716877937,-0.011699999682605267
1683015735322729000,15.92072900390625,0.06830000132322311,-0.011500000022351742,-0.020800000056624413
1683015735342729000,15.94072900390625,0.05819999799132347,-0.011500000022351742,-0.0008999999845400453
1683015735362729000,15.96072900390625,0.03949999809265137,-0.0015999999595806003,0.008899999782443047
1683015735382729000,15.98072900390625,0.021199999377131462,-0.00139999995008111,-0.0007999999797903001
1683015735402729000,16.00072900390625,0.002899999963119626,-0.011099999770522118,0.018699999898672104
1683015735422729000,16.02072900390625,0.003599999938160181,-0.010999999940395355,-0.03019999898970127
1683015735442729000,16.04072900390625,0.013399999588727951,0.018400000408291817,0.008599999360740185
1683015735462729000,16.06072900390625,0.05209999904036522,-0.010900000110268593,0.02759999968111515
1683015735482729000,16.08072900390625,0.03240000084042549,0.008700000122189522,-0.011599999852478504
1683015735502729000,16.10072900390625,0.02369999885559082,-0.010499999858438969,0.02669999934732914
1683015735522729000,16.12072900390625,-0.004699999932199717,-0.010199999436736107,0.026099998503923416
1683015735542729000,16.14072900390625,-0.003599999938160181,-0.019899999722838402,-0.0032999999821186066
1683015735562729000,16.16072900390625,-0.012799999676644802,-0.01979999989271164,0.016099998727440834
1683015735582727200,16.18072705078125,0.01599999889731407,-0.019899999722838402,0.0064999996684491634
1683015735602729000,16.20072900390625,0.053999997675418854,-0.010300000198185444,-0.002899999963119626
1683015735622729000,16.22072900390625,0.034199997782707214,-0.010400000028312206,-0.002699999837204814
1683015735642729000,16.24072900390625,0.014800000004470348,0.009099999442696571,0.0071000000461936
1683015735662729000,16.26072900390625,0.01489999983459711,-0.010499999858438969,0.046699997037649155
1683015735682730500,16.28073046875,0.04360000044107437,-0.0008999999845400453,0.01769999973475933
1683015735702730500,16.30073046875,0.03280000016093254,-0.020899999886751175,-0.010400000028312206
1683015735722730500,16.32073046875,0.023000000044703484,-0.001500000013038516,-0.058399997651576996
1683015735742729000,16.34072900390625,0.023000000044703484,-0.021199999377131462,-0.01889999955892563
1683015735762729000,16.36072900390625,0.03269999846816063,-0.020999999716877937,0.019299998879432678
1683015735782729000,16.38072900390625,0.0811999961733818,0.018400000408291817,0.047199998050928116
1683015735802729000,16.40072900390625,0.06199999898672104,0.0284000001847744,0.03669999912381172
1683015735822729000,16.42072900390625,0.015199999324977398,0.019199999049305916,0.06509999930858612
1683015735842729000,16.44072900390625,-0.05130000039935112,-0.02929999865591526,0.09380000084638596
1683015735862729000,16.46072900390625,-0.012000000104308128,-0.04919999837875366,0.02630000002682209
1683015735882729000,16.48072900390625,0.07369999587535858,0.01850000023841858,-0.010400000028312206
1683015735902729000,16.50072900390625,0.09070000052452087,0.01769999973475933,0.001500000013038516
1683015735922729000,16.52072900390625,0.07999999821186066,-0.012199999764561653,-0.02579999901354313
1683015735942729000,16.54072900390625,0.06129999831318855,-0.012399999424815178,-0.043800000101327896
1683015735962729000,16.56072900390625,0.023899998515844345,-0.02199999988079071,0.03460000082850456
1683015735982729000,16.58072900390625,0.005799999926239252,0.007599999662488699,0.004600000102072954
1683015736002729000,16.60072900390625,0.015699999406933784,-0.021699998527765274,-0.014599999412894249
1683015736022730500,16.62073046875,0.044599998742341995,0.007599999662488699,0.024000000208616257
1683015736042729000,16.64072900390625,0.0632999986410141,0.046699997037649155,0.033900000154972076
1683015736062730500,16.66073046875,0.07249999791383743,0.016899999231100082,0.005699999630451202
1683015736082729000,16.68072900390625,0.052400000393390656,0.016699999570846558,0.016499999910593033
1683015736102727200,16.70072705078125,0.03399999812245369,-0.00279999990016222,0.03669999912381172
1683015736122727200,16.72072705078125,-0.0031999999191612005,-0.012600000016391277,0.018299998715519905
1683015736142730500,16.74073046875,-0.002199999988079071,-0.012799999676644802,0.049300000071525574
1683015736162730500,16.76073046875,0.046299997717142105,-0.02319999970495701,0.002899999963119626
1683015736182729000,16.78072900390625,0.0648999959230423,0.005200000014156103,-0.023099999874830246
1683015736202729000,16.80072900390625,0.08419999480247498,0.004600000102072954,-0.020600000396370888
1683015736222727200,16.82072705078125,0.0559999980032444,-0.005200000014156103,0.010199999436736107
1683015736242729000,16.84072900390625,0.04859999939799309,0.004600000102072954,-0.017999999225139618
1683015736262729000,16.86072900390625,0.012999999336898327,-0.004699999932199717,-0.017400000244379044
1683015736282729000,16.88072900390625,-0.023899998515844345,-0.0142000000923872,0.002099999925121665
1683015736302729000,16.90072900390625,-0.003599999938160181,0.005399999674409628,0.002099999925121665
1683015736322729000,16.92072900390625,0.044499997049570084,0.005399999674409628,0.05049999803304672
1683015736342729000,16.94072900390625,0.05309999734163284,0.015099999494850636,0.001500000013038516
1683015736362729000,16.96072900390625,0.07209999859333038,-0.014399999752640724,0.030899999663233757
1683015736382729000,16.98072900390625,0.04270000010728836,-0.014299999922513962,0.030700000002980232
1683015736402729000,17.00072900390625,0.004399999976158142,-0.004399999976158142,0.0210999995470047
1683015736422729000,17.02072900390625,0.004600000102072954,-0.004399999976158142,0.020999999716877937
1683015736442729000,17.04072900390625,0.04319999739527702,0.014999999664723873,0.030899999663233757
1683015736462729000,17.06072900390625,0.07189999520778656,0.014800000004470348,-0.01719999872148037
1683015736482729000,17.08072900390625,0.051500000059604645,-0.004900000058114529,0.012199999764561653
1683015736502729000,17.10072900390625,0.06129999831318855,0.014499999582767487,0.003000000026077032
1683015736522729000,17.12072900390625,0.02239999920129776,0.004600000102072954,-0.03539999946951866
1683015736542729000,17.14072900390625,0.04179999977350235,-0.005200000014156103,0.0037999998312443495
1683015736562729000,17.16072900390625,0.04089999943971634,-0.014999999664723873,0.04259999841451645
1683015736582727200,17.18072705078125,0.08879999816417694,0.004399999976158142,0.0031999999191612005
1683015736602729000,17.20072900390625,0.06839999556541443,-0.005399999674409628,0.0030999998562037945
1683015736622729000,17.22072900390625,0.020399998873472214,0.004399999976158142,-0.026200000196695328
1683015736642729000,17.24072900390625,-0.007799999788403511,-0.014699999243021011,0.012000000104308128
1683015736662729000,17.26072900390625,0.02159999869763851,-0.004600000102072954,0.030299998819828033
1683015736682729000,17.28072900390625,0.05949999764561653,0.024699999019503593,0.03909999877214432
1683015736702729000,17.30072900390625,0.06889999657869339,0.04439999908208847,0.03839999809861183
1683015736722727200,17.32072705078125,0.030499998480081558,-0.013899999670684338,0.0568000003695488
1683015736742727200,17.34072705078125,0.011899999342858791,-0.023499999195337296,0.03659999743103981
1683015736762727200,17.36072705078125,0.011899999342858791,-0.023499999195337296,0.007400000002235174
1683015736782727200,17.38072705078125,0.05939999967813492,-0.004299999680370092,-0.001500000013038516
1683015736802727200,17.40072705078125,0.08699999749660492,-0.014499999582767487,-0.020499998703598976
1683015736822727200,17.42072705078125,0.07679999619722366,-0.024399999529123306,-0.029999999329447746
1683015736842727200,17.44072705078125,0.02850000001490116,-0.014399999752640724,-0.040300000458955765
1683015736862727200,17.46072705078125,0.019500000402331352,-0.0139999995008111,0.01719999872148037
1683015736882727200,17.48072705078125,0.01939999870955944,0.0058999997563660145,-0.0139999995008111
1683015736902727200,17.50072705078125,0.018400000408291817,-0.02319999970495701,-0.006199999712407589
1683015736922727200,17.52072705078125,0.03689999878406525,-0.022699998691678047,0.08879999816417694
1683015736942727200,17.54072705078125,0.07530000060796738,0.026499999687075615,0.0674000009894371
1683015736962727200,17.56072705078125,0.03689999878406525,0.00699999975040555,-0.0008999999845400453
1683015736982727200,17.58072705078125,-0.00969999935477972,0.01719999872148037,0.03799999877810478
1683015737002727200,17.60072705078125,-0.04639999940991402,-0.02149999886751175,0.037699997425079346
1683015737022727200,17.62072705078125,-0.0551999993622303,-0.031199999153614044,-0.0013000000035390258
1683015737042727200,17.64072705078125,-0.007400000002235174,-0.031599998474121094,0.009200000204145908
1683015737062727200,17.66072705078125,0.05859999731183052,0.016899999231100082,0
1683015737082727200,17.68072705078125,0.06669999659061432,-0.012899999506771564,-0.03830000013113022
1683015737102727200,17.70072705078125,0.06629999727010727,-0.022699998691678047,-0.008899999782443047
1683015737122727200,17.72072705078125,0.009599999524652958,-0.0026000000070780516,0.019500000402331352
1683015737142727200,17.74072705078125,-0.03689999878406525,-0.021800000220537186,-0.00039999998989515007
1683015737162727200,17.76072705078125,-0.025999998673796654,-0.011799999512732029,-0.02019999921321869
1683015737182727200,17.78072705078125,0.023000000044703484,-0.0017999999690800905,-0.00139999995008111
1683015737202730500,17.80073046875,0.02279999852180481,-0.0016999999061226845,0.007400000002235174
1683015737222727200,17.82072705078125,0.0421999990940094,-0.011299999430775642,0.0064999996684491634
1683015737242727200,17.84072705078125,0.04259999841451645,-0.020800000056624413,0.04479999840259552
1683015737262727200,17.86072705078125,0.004999999888241291,-0.010699999518692493,0.044199999421834946
1683015737282727200,17.88072705078125,-0.0032999999821186066,0.009099999442696571,0.014299999922513962
1683015737302727200,17.90072705078125,-0.002699999837204814,-0.02979999966919422,0.03350000083446503
1683015737322727200,17.92072705078125,0.016699999570846558,0.00930000003427267,0.02369999885559082
1683015737342727200,17.94072705078125,0.035599999129772186,-0.029999999329447746,0.0142000000923872
1683015737362727200,17.96072705078125,0.03529999777674675,-0.010400000028312206,0.03370000049471855
1683015737382727200,17.98072705078125,0.02589999884366989,-0.010499999858438969,-0.004799999762326479
1683015737402727200,18.00072705078125,0.026499999687075615,-0.010499999858438969,0.0052999998442828655
1683015737422727200,18.02072705078125,0.01759999990463257,0.009099999442696571,-0.013899999670684338
1683015737442727200,18.04072705078125,0.027499999850988388,-0.010499999858438969,0.0058999997563660145
1683015737462727200,18.06072705078125,0.03709999844431877,-0.02029999904334545,0.015699999406933784
1683015737482727200,18.08072705078125,0.05609999969601631,0.008999999612569809,0.01529999915510416
1683015737502727200,18.10072705078125,0.056199997663497925,-0.010499999858438969,-0.0139999995008111
1683015737522727200,18.12072705078125,0.008299999870359898,-0.020099999383091927,-0.014099999330937862
1683015737542727200,18.14072705078125,-0.029399998486042023,-0.009999999776482582,-0.004600000102072954
1683015737562727200,18.16072705078125,0.01979999989271164,-0.00969999935477972,0.04319999739527702
1683015737582727200,18.18072705078125,0.05819999799132347,0.00989999994635582,0.0616999976336956
1683015737602727200,18.20072705078125,0.06709999591112137,0.019600000232458115,0.022299999371170998
1683015737622727200,18.22072705078125,0.03869999945163727,0.00019999999494757503,0.07090000063180923
1683015737642727200,18.24072705078125,-0.028199998661875725,-0.009200000204145908,0.04149999842047691
1683015737662727200,18.26072705078125,-0.027899999171495438,-0.03869999945163727,0.03189999982714653
1683015737682727200,18.28072705078125,0.0486999973654747,-0.009800000116229057,-0.0058999997563660145
1683015737702727200,18.30072705078125,0.07559999823570251,-0.000699999975040555,-0.013899999670684338
1683015737722727200,18.32072705078125,0.08410000056028366,-0.030499998480081558,-0.03269999846816063
1683015737742727200,18.34072705078125,0.04529999941587448,-0.040300000458955765,-0.03229999914765358
1683015737762727200,18.36072705078125,0.007199999876320362,-0.03019999898970127,-0.013399999588727951
1683015737782727200,18.38072705078125,0.017999999225139618,-0.019999999552965164,0.024399999529123306
1683015737802727200,18.40072705078125,0.017899999395012856,-0.00019999999494757503,0.03309999778866768
1683015737822727200,18.42072705078125,0.046699997037649155,0,0.04209999740123749
1683015737842727200,18.44072705078125,0.05559999868273735,-0.009800000116229057,0.06069999933242798
1683015737862727200,18.46072705078125,0.045499999076128006,0.019500000402331352,0.02159999869763851
1683015737882727200,18.48072705078125,0.02669999934732914,0.009800000116229057,0.07069999724626541
1683015737902727200,18.50072705078125,-0.0018999999156221747,-0.019500000402331352,0.0510999970138073
1683015737922727200,18.52072705078125,-0.0018999999156221747,-0.019600000232458115,-0.0066999997943639755
1683015737942727200,18.54072705078125,0.03610000014305115,-0.0004999999655410647,0.004399999976158142
1683015737962727200,18.56072705078125,0.07319999486207962,0.008599999360740185,0.005799999926239252
1683015737982727200,18.58072705078125,0.08159999549388885,-0.0015999999595806003,-0.022099999710917473
1683015738002727200,18.60072705078125,0.07149999588727951,-0.0017999999690800905,-0.0016999999061226845
1683015738022727200,18.62072705078125,0.0429999977350235,-0.0016999999061226845,0.008200000040233135
1683015738042727200,18.64072705078125,0.014800000004470348,-0.011500000022351742,-0.010999999940395355
1683015738062727200,18.66072705078125,0.014800000004470348,-0.0016999999061226845,-0.010699999518692493
1683015738082727200,18.68072705078125,0.053199999034404755,-0.0018999999156221747,0.009099999442696571
1683015738102727200,18.70072705078125,0.062199998646974564,-0.011799999512732029,0.00930000003427267
1683015738122727200,18.72072705078125,0.07169999927282333,-0.002099999925121665,-0.00039999998989515007
1683015738142727200,18.74072705078125,0.052799999713897705,-0.011699999682605267,0.018799999728798866
1683015738162727200,18.76072705078125,-0.014099999330937862,-0.021299999207258224,0.028599999845027924
1683015738182727200,18.78072705078125,-0.013399999588727951,-0.021299999207258224,0.039000000804662704
1683015738202727200,18.80072705078125,0.05429999902844429,0.027400000020861626,0.03929999843239784
1683015738222727200,18.82072705078125,0.08169999718666077,-0.0026000000070780516,0.0017999999690800905
1683015738242727200,18.84072705078125,0.08079999685287476,-0.03240000084042549,-0.02589999884366989
1683015738262727200,18.86072705078125,0.022599998861551285,-0.003000000026077032,0.07249999791383743
1683015738282727200,18.88072705078125,-0.01549999974668026,-0.012899999506771564,0.02449999935925007
1683015738302727200,18.90072705078125,0.023499999195337296,-0.013499999418854713,-0.002099999925121665
1683015738322727200,18.92072705078125,0.06159999966621399,0.0052999998442828655,-0.019199999049305916
1683015738342727200,18.94072705078125,0.07019999623298645,0.004600000102072954,-0.04609999805688858
1683015738362727200,18.96072705078125,0.06019999831914902,-0.02499999850988388,0.004100000020116568
1683015738382727200,18.98072705078125,0.059699997305870056,0.00419999985024333,0.004399999976158142
1683015738402727200,19.00072705078125,0.05989999696612358,-0.01549999974668026,-0.014099999330937862
1683015738422727200,19.02072705078125,0.002199999988079071,-0.025299999862909317,-0.02329999953508377
1683015738442727200,19.04072705078125,-0.04559999704360962,0.004100000020116568,0.006599999964237213
1683015738462727200,19.06072705078125,0.00279999990016222,-0.00559999980032444,0.04519999772310257
1683015738482727200,19.08072705078125,0.07809999585151672,0.02329999953508377,0.03529999777674675
1683015738502727200,19.10072705078125,0.10449999570846558,0.0421999990940094,0.026499999687075615
1683015738522727200,19.12072705078125,0.04519999772310257,0.003000000026077032,0.04609999805688858
1683015738542727200,19.14072705078125,-0.001999999862164259,-0.03590000048279762,0.04600000008940697
1683015738562727200,19.16072705078125,-0.021699998527765274,-0.045899998396635056,0.017400000244379044
1683015738582727200,19.18072705078125,-0.004299999680370092,0.002300000051036477,-0.03909999877214432
1683015738602727200,19.20072705078125,0.07050000131130219,0.01119999960064888,-0.007999999448657036
1683015738622727200,19.22072705078125,0.08689999580383301,-0.008899999782443047,-0.026799999177455902
1683015738642727200,19.24072705078125,0.08549999445676804,-0.02879999950528145,-0.05590000003576279
1683015738662727200,19.26072705078125,0.065700002014637,-0.01899999938905239,-0.016999999061226845
1683015738682727200,19.28072705078125,0.037299998104572296,-0.01860000006854534,0.001500000013038516
1683015738702727200,19.30072705078125,0.01850000023841858,-0.00839999970048666,-0.019199999049305916
1683015738722727200,19.32072705078125,0.019099999219179153,0.021399999037384987,0.04749999940395355
1683015738742727200,19.34072705078125,0.028699999675154686,0.021800000220537186,0.055399999022483826
1683015738762727200,19.36072705078125,0.028599999845027924,0.02199999988079071,0.06390000134706497
1683015738782727200,19.38072705078125,0.02850000001490116,-0.0071000000461936,0.06279999762773514
1683015738802727200,19.40072705078125,0.028599999845027924,-0.00699999975040555,0.0429999977350235
1683015738822727200,19.42072705078125,0.03799999877810478,0.0023999998811632395,0.004799999762326479
1683015738842727200,19.44072705078125,0.03779999911785126,-0.007499999832361937,0.005499999970197678
1683015738862727200,19.46072705078125,0.05649999901652336,0.011799999512732029,0.006000000052154064
1683015738882727200,19.48072705078125,0.06589999794960022,-0.007899999618530273,-0.012799999676644802
1683015738902727200,19.50072705078125,0.05559999868273735,0.0016999999061226845,-0.003000000026077032
1683015738922727200,19.52072705078125,0.06499999761581421,-0.027699999511241913,-0.003000000026077032
1683015738942727200,19.54072705078125,0.06469999998807907,-0.008100000210106373,-0.03240000084042549
1683015738962727200,19.56072705078125,0.05559999868273735,-0.007899999618530273,-0.0032999999821186066
1683015738982727200,19.58072705078125,0.02719999849796295,-0.007499999832361937,0.014800000004470348
1683015739002727200,19.60072705078125,0.017899999395012856,0.012299999594688416,0.023599999025464058
1683015739022727200,19.62072705078125,0.027899999171495438,-0.00699999975040555,0.022599998861551285
1683015739042727200,19.64072705078125,0.04739999771118164,-0.006799999624490738,0.002099999925121665
1683015739062727200,19.66072705078125,0.027899999171495438,-0.026099998503923416,0.03019999898970127
1683015739082727200,19.68072705078125,0.03779999911785126,-0.006199999712407589,0.05849999934434891
1683015739102727200,19.70072705078125,0.027699999511241913,-0.006199999712407589,0.03830000013113022
1683015739122727200,19.72072705078125,0.03709999844431877,-0.016099998727440834,-0.0005999999702908099
1683015739142727200,19.74072705078125,0.026899999007582664,0.0032999999821186066,0.009499999694526196
1683015739162727200,19.76072705078125,0.03610000014305115,0.012899999506771564,0.00989999994635582
1683015739182727200,19.78072705078125,0.025999998673796654,-0.0066999997943639755,0.000699999975040555
1683015739202727200,19.80072705078125,0.035499997437000275,-0.006799999624490738,0.030299998819828033
1683015739222727200,19.82072705078125,0.02589999884366989,0.01269999984651804,0.0010999999940395355
1683015739242727200,19.84072705078125,0.04569999873638153,-0.006799999624490738,0.030399998649954796
1683015739262727200,19.86072705078125,0.026999998837709427,0.003000000026077032,-0.008499999530613422
1683015739282727200,19.88072705078125,-0.020499998703598976,-0.006799999624490738,-0.056199997663497925
1683015739302727200,19.90072705078125,-0.03889999911189079,-0.026200000196695328,0.012299999594688416
1683015739322727200,19.92072705078125,0.010099999606609344,-0.016200000420212746,0.0405999980866909
1683015739342727200,19.94072705078125,0.04820000007748604,0.012999999336898327,0.020800000056624413
1683015739362727200,19.96072705078125,0.03830000013113022,0.042399998754262924,0.04039999842643738
1683015739382727200,19.98072705078125,-0.03849999979138374,-0.01599999889731407,0.06960000097751617
1683015739402727200,20.00072705078125,-0.06650000065565109,-0.02579999901354313,0.04089999943971634
1683015739422727200,20.02072705078125,-0.027799999341368675,-0.02630000002682209,0.003599999938160181
1683015739442727200,20.04072705078125,0.0279999990016222,0.002099999925121665,-0.03319999948143959
1683015739462727200,20.06072705078125,0.10300000011920929,0.0011999999405816197,-0.02149999886751175
1683015739482727200,20.08072705078125,0.0722000002861023,-0.018799999728798866,-0.06909999996423721
1683015739502727200,20.10072705078125,0.004100000020116568,-0.03830000013113022,-0.0004999999655410647
1683015739522727200,20.12072705078125,0.0050999997183680534,0.010999999940395355,-0.001500000013038516
1683015739542727200,20.14072705078125,-0.00419999985024333,0.010999999940395355,-0.030700000002980232
1683015739562727200,20.16072705078125,0.0050999997183680534,-0.008499999530613422,-0.0016999999061226845
1683015739582727200,20.18072705078125,0.05289999768137932,0.011099999770522118,0.045899998396635056
1683015739602727200,20.20072705078125,0.03189999982714653,0.0013000000035390258,0.025499999523162842
1683015739622727200,20.22072705078125,0.011899999342858791,0.011099999770522118,0.05469999834895134
1683015739642727200,20.24072705078125,-0.007499999832361937,0.011099999770522118,0.04490000009536743
1683015739662727200,20.26072705078125,-0.017400000244379044,-0.018299998715519905,0.025699999183416367
1683015739682727200,20.28072705078125,0.010799999348819256,-0.008799999952316284,0.04609999805688858
1683015739702727200,20.30072705078125,0.008899999782443047,0.00029999998514540493,0.027899999171495438
1683015739722727200,20.32072705078125,0.025499999523162842,-0.029999999329447746,-0.00839999970048666
1683015739742727200,20.34072705078125,0.0023999998811632395,0.007999999448657036,0.013899999670684338
1683015739762727200,20.36072705078125,0.0284000001847744,-0.012899999506771564,-0.03059999831020832
1683015739782727200,20.38072705078125,0.07270000129938126,0.015099999494850636,0.021299999207258224
1683015739802727200,20.40072705078125,0.0786999985575676,0.013899999670684338,-0.004900000058114529
1683015739822727200,20.42072705078125,0.05700000002980232,-0.0064999996684491634,-0.07029999792575836
1683015739842727200,20.44072705078125,0.04600000008940697,-0.026799999177455902,-0.048499997705221176
1683015739862727200,20.46072705078125,0.04580000042915344,-0.0071000000461936,0.00989999994635582
1683015739882727200,20.48072705078125,0.026399999856948853,0.012600000016391277,0.01889999955892563
1683015739902727200,20.50072705078125,0.03610000014305115,0.00279999990016222,0.008700000122189522
1683015739922727200,20.52072705078125,-0.0023999998811632395,-0.01640000008046627,0.027499999850988388
1683015739942727200,20.54072705078125,0.016999999061226845,-0.016200000420212746,0.0364999994635582
1683015739962727200,20.56072705078125,0.03590000048279762,-0.006399999838322401,-0.0030999998562037945
1683015739982727200,20.58072705078125,0.04479999840259552,-0.0064999996684491634,0.01640000008046627
1683015740002727200,20.60072705078125,0.053700000047683716,-0.016499999910593033,0.0064999996684491634
1683015740022727200,20.62072705078125,0.053599998354911804,-0.0066999997943639755,0.016599999740719795
1683015740042727200,20.64072705078125,0.01489999983459711,0.003000000026077032,-0.002899999963119626
1683015740062727200,20.66072705078125,0.01529999915510416,-0.02630000002682209,0.016699999570846558
1683015740082727200,20.68072705078125,0.015099999494850636,0.003000000026077032,0.006899999920278788
1683015740102727200,20.70072705078125,0.03370000049471855,-0.006799999624490738,0.006899999920278788
1683015740122727200,20.72072705078125,0.061799999326467514,-0.006899999920278788,0.0066999997943639755
1683015740142727200,20.74072705078125,0.07069999724626541,0.012600000016391277,-0.003499999875202775
1683015740162727200,20.76072705078125,0.06059999763965607,-0.016699999570846558,0.0058999997563660145
1683015740182727200,20.78072705078125,0.003000000026077032,-0.006599999964237213,-0.043699998408555984
1683015740202727200,20.80072705078125,-0.025299999862909317,-0.016099998727440834,0.03370000049471855
1683015740222727200,20.82072705078125,0.003700000001117587,0.013499999418854713,0.0421999990940094
1683015740242727200,20.84072705078125,0.06019999831914902,0.023000000044703484,0.02239999920129776
1683015740262727200,20.86072705078125,0.0778999999165535,0.022699998691678047,0.03219999745488167
1683015740282727200,20.88072705078125,0.047599997371435165,-0.006599999964237213,0.0414000004529953
1683015740302727200,20.90072705078125,0.018299998715519905,-0.026200000196695328,0.031599998474121094
1683015740322727200,20.92072705078125,0.01809999905526638,-0.016599999740719795,0.013199999928474426
1683015740342727200,20.94072705078125,0.04639999940991402,0.0023999998811632395,-0.004600000102072954
1683015740362727200,20.96072705078125,0.06430000066757202,0.0016999999061226845,-0.022199999541044235
1683015740382727200,20.98072705078125,0.07259999960660934,-0.018299998715519905,-0.04050000011920929
1683015740402727200,21.00072705078125,0.052799999713897705,-0.018400000408291817,-0.020499998703598976
1683015740422727200,21.02072705078125,0.023599999025464058,-0.008499999530613422,-0.030499998480081558
1683015740442727200,21.04072705078125,0.02369999885559082,-0.00839999970048666,0.01769999973475933
1683015740462727200,21.06072705078125,0.052400000393390656,0.0013000000035390258,-0.01209999993443489
1683015740482727200,21.08072705078125,0.022299999371170998,-0.008299999870359898,0.026200000196695328
1683015740502727200,21.10072705078125,0.012000000104308128,-0.008100000210106373,0.025299999862909317
1683015740522727200,21.12072705078125,-0.047599997371435165,-0.008200000040233135,-0.004399999976158142
1683015740542727200,21.14072705078125,-0.030399998649954796,-0.00839999970048666,0.08320000022649765
1683015740562727200,21.16072705078125,0.043699998408555984,0.020499998703598976,0.07279999554157257
1683015740582727200,21.18072705078125,0.08810000121593475,0,0.024699999019503593
1683015740602727200,21.20072705078125,0.09459999948740005,-0.010400000028312206,-0.003000000026077032
1683015740622727200,21.22072705078125,0.07339999824762344,-0.010900000110268593,0.007999999448657036
1683015740642727200,21.24072705078125,0.06309999525547028,-0.011299999430775642,-0.03949999809265137
1683015740662727200,21.26072705078125,0.043800000101327896,0.008100000210106373,-0.019199999049305916
1683015740682727200,21.28072705078125,0.034299999475479126,-0.011500000022351742,-0.018699999898672104
1683015740702727200,21.30072705078125,0.03439999744296074,-0.0015999999595806003,0.020099999383091927
1683015740722727200,21.32072705078125,0.04389999806880951,-0.011399999260902405,-0.009200000204145908
1683015740742727200,21.34072705078125,0.05289999768137932,-0.011500000022351742,-0.02889999933540821
1683015740762727200,21.36072705078125,0.07199999690055847,-0.011399999260902405,0.038599997758865356
1683015740782727200,21.38072705078125,0.05219999700784683,-0.00139999995008111,-0.0013000000035390258
1683015740802727200,21.40072705078125,0.0429999977350235,-0.0010999999940395355,0.07559999823570251
1683015740822729000,21.42072900390625,0.024299999698996544,0.018799999728798866,0.01599999889731407
1683015740842729000,21.44072900390625,0.0340999998152256,-0.02029999904334545,0.025599999353289604
1683015740862729000,21.46072900390625,0.043299999088048935,-0.000699999975040555,0.02499999850988388
1683015740882729000,21.48072900390625,0.042799998074769974,-0.010499999858438969,0.03449999913573265
1683015740902729000,21.50072900390625,0.042500000447034836,0.008999999612569809,0.024399999529123306
1683015740922729000,21.52072900390625,0.051899999380111694,0.008999999612569809,-0.004799999762326479
1683015740942729000,21.54072900390625,0.022499999031424522,-0.010499999858438969,0.004799999762326479
1683015740962729000,21.56072900390625,-0.006399999838322401,-0.020099999383091927,0.023899998515844345
1683015740982729000,21.58072900390625,0.003000000026077032,-0.000699999975040555,-0.024399999529123306
1683015741002729000,21.60072900390625,0.039799999445676804,-0.010799999348819256,0.024399999529123306
1683015741022729000,21.62072900390625,0.07589999586343765,-0.00139999995008111,-0.004999999888241291
1683015741042729000,21.64072900390625,0.10329999774694443,-0.021299999207258224,-0.0050999997183680534
1683015741062729000,21.66072900390625,0.093299999833107,-0.001500000013038516,0.013499999418854713
1683015741082729000,21.68072900390625,0.04559999704360962,-0.02070000022649765,0.022099999710917473
1683015741102729000,21.70072900390625,0.028599999845027924,-0.010300000198185444,-0.027899999171495438
1683015741122729000,21.72072900390625,-0.03830000013113022,0,0.019899999722838402
1683015741142729000,21.74072900390625,-0.018400000408291817,0.00039999998989515007,0.04729999974370003
1683015741162729000,21.76072900390625,0.06759999692440033,0.029600000008940697,0.05649999901652336
1683015741182729000,21.78072900390625,0.09439999610185623,0.04879999905824661,0.017500000074505806
1683015741202729000,21.80072900390625,0.06419999897480011,0.009499999694526196,0.046699997037649155
1683015741222729000,21.82072900390625,0.02630000002682209,-0.029199998825788498,0.02630000002682209
1683015741242729000,21.84072900390625,-0.0015999999595806003,-0.029099998995661736,0.01679999940097332
1683015741262729000,21.86072900390625,0.017899999395012856,0,-0.0018999999156221747
1683015741282729000,21.88072900390625,0.0559999980032444,-0.010099999606609344,-0.0007999999797903001
1683015741302729000,21.90072900390625,0.05469999834895134,-0.010300000198185444,-0.05929999798536301
1683015741322729000,21.92072900390625,0.06379999965429306,-0.020099999383091927,-0.030499998480081558
1683015741342729000,21.94072900390625,0.04470000043511391,-0.01979999989271164,-0.002199999988079071
1683015741362729000,21.96072900390625,0.04529999941587448,-0.009499999694526196,0.005799999926239252
1683015741382729000,21.98072900390625,0.036399997770786285,-0.008999999612569809,0.013599999248981476
1683015741402729000,22.00072900390625,-0.0016999999061226845,-0.00839999970048666,0.031199999153614044
1683015741422729000,22.02072900390625,0.008899999782443047,0.021399999037384987,0.08839999884366989
1683015741442729000,22.04072900390625,-0.00029999998514540493,0.02159999869763851,0.01889999955892563
1683015741462729000,22.06072900390625,0.009399999864399433,0.0018999999156221747,0.009499999694526196
1683015741482729000,22.08072900390625,-0.029199998825788498,-0.017500000074505806,0.009599999524652958
1683015741502729000,22.10072900390625,-0.009499999694526196,-0.027400000020861626,0.019600000232458115
1683015741522729000,22.12072900390625,0.018799999728798866,-0.027699999511241913,0.010799999348819256
1683015741542729000,22.14072900390625,0.03739999979734421,0.0011999999405816197,-0.007499999832361937
1683015741562729000,22.16072900390625,0.03629999980330467,-0.008799999952316284,0.003000000026077032
1683015741582727200,22.18072705078125,0.04580000042915344,0.000699999975040555,-0.01599999889731407
1683015741602729000,22.20072900390625,0.01679999940097332,-0.008799999952316284,0.003000000026077032
1683015741622729000,22.22072900390625,0.007699999958276749,-0.018400000408291817,0.012299999594688416
1683015741642729000,22.24072900390625,0.008299999870359898,-0.008499999530613422,-0.02709999866783619
1683015741662729000,22.26072900390625,0.017999999225139618,-0.018299998715519905,-0.007599999662488699
1683015741682727200,22.28072705078125,0.027799999341368675,0.01119999960064888,0.030700000002980232
1683015741702727200,22.30072705078125,0.018299998715519905,-0.007999999448657036,0.019999999552965164
1683015741722727200,22.32072705078125,0.018699999898672104,-0.01759999990463257,0.03879999741911888
1683015741742727200,22.34072705078125,-0.009399999864399433,0.002199999988079071,0.028199998661875725
1683015741762727200,22.36072705078125,0.0007999999797903001,-0.007199999876320362,0.027300000190734863
1683015741782727200,22.38072705078125,0.019999999552965164,-0.0072999997064471245,0.017500000074505806
1683015741802727200,22.40072705078125,0.03869999945163727,0.002199999988079071,0.02759999968111515
1683015741822727200,22.42072705078125,0.03790000081062317,0.002099999925121665,0.017899999395012856
1683015741842727200,22.44072705078125,0.018699999898672104,-0.017400000244379044,0.008499999530613422
1683015741862727200,22.46072705078125,-0.019500000402331352,-0.007599999662488699,0.008799999952316284
1683015741882727200,22.48072705078125,-0.009399999864399433,0.002099999925121665,0.01899999938905239
1683015741902727200,22.50072705078125,-0.010099999606609344,-0.007899999618530273,0.010099999606609344
1683015741922727200,22.52072705078125,0.027300000190734863,0.0013000000035390258,-0.01809999905526638
1683015741942727200,22.54072705078125,0.04470000043511391,-0.008700000122189522,0.0017999999690800905
1683015741962727200,22.56072705078125,0.05299999937415123,-0.008899999782443047,0.021199999377131462
1683015741982727200,22.58072705078125,0.0616999976336956,-0.009099999442696571,0.011399999260902405
1683015742002727200,22.60072705078125,0.02290000021457672,-0.009099999442696571,-0.027400000020861626
1683015742022727200,22.62072705078125,-0.014599999412894249,-0.008799999952316284,-0.01759999990463257
1683015742042727200,22.64072705078125,-0.052400000393390656,-0.008599999360740185,0.021199999377131462
1683015742062727200,22.66072705078125,0.0052999998442828655,-0.018299998715519905,0.05920000001788139
1683015742082727200,22.68072705078125,0.08079999685287476,0.020499998703598976,0.058799996972084045
1683015742102727200,22.70072705078125,0.06960000097751617,0.03009999915957451,0.04919999837875366
1683015742122727200,22.72072705078125,0.021399999037384987,-0.02850000001490116,0.03959999978542328
1683015742142727200,22.74072705078125,-0.006799999624490738,-0.03839999809861183,0.011299999430775642
1683015742162727200,22.76072705078125,0.0024999999441206455,-0.029099998995661736,-0.006099999882280827
1683015742182727200,22.78072705078125,0.02969999983906746,0.009200000204145908,-0.023399999365210533
1683015742202727200,22.80072705078125,0.027400000020861626,0.018299998715519905,-0.03150000050663948
1683015742222727200,22.82072705078125,0.04519999772310257,-0.0210999995470047,-0.011399999260902405
1683015742242727200,22.84072705078125,0.034199997782707214,-0.011399999260902405,-0.011599999852478504
1683015742262727200,22.86072705078125,0.06279999762773514,-0.021299999207258224,-0.011699999682605267
1683015742282727200,22.88072705078125,0.05249999836087227,-0.021199999377131462,-0.012399999424815178
1683015742302727200,22.90072705078125,0.03280000016093254,-0.00139999995008111,0.044999998062849045
1683015742322727200,22.92072705078125,0.023499999195337296,0.008700000122189522,0.07289999723434448
1683015742342727200,22.94072705078125,0.023599999025464058,0.018699999898672104,0.042899999767541885
1683015742362727200,22.96072705078125,0.023799998685717583,0.018799999728798866,0.05249999836087227
1683015742382727200,22.98072705078125,0.0044999998062849045,-0.000699999975040555,0.05249999836087227
1683015742402727200,23.00072705078125,0.014099999330937862,-0.0008999999845400453,0.024000000208616257
1683015742422727200,23.02072705078125,0.023000000044703484,-0.020999999716877937,0.0058999997563660145
1683015742442727200,23.04072705078125,0.031099999323487282,-0.03139999881386757,0.007599999662488699
1683015742462727200,23.06072705078125,0.048899997025728226,0.007199999876320362,0.02850000001490116
1683015742482727200,23.08072705078125,0.07679999619722366,-0.022699998691678047,-0.01850000023841858
1683015742502727200,23.10072705078125,0.06619999557733536,0.006199999712407589,-0.046299997717142105
1683015742522727200,23.12072705078125,0.07609999924898148,-0.003700000001117587,-0.025699999183416367
1683015742542727200,23.14072705078125,0.03830000013113022,-0.013299999758601189,0.023099999874830246
1683015742562727200,23.16072705078125,0.02070000022649765,0.0064999996684491634,0.013199999928474426
1683015742582727200,23.18072705078125,0.01249999925494194,-0.012899999506771564,0.003599999938160181
1683015742602727200,23.20072705078125,0.022599998861551285,-0.022599998861551285,0.023099999874830246
1683015742622727200,23.22072705078125,0.04179999977350235,-0.003000000026077032,0.02279999852180481
1683015742642727200,23.24072705078125,0.051500000059604645,-0.01269999984651804,0.06159999966621399
1683015742662727200,23.26072705078125,0.03229999914765358,0.06560000032186508,0.052299998700618744
1683015742682727200,23.28072705078125,-0.04829999804496765,-0.03309999778866768,0.01489999983459711
1683015742702727200,23.30072705078125,0.046799998730421066,-0.004399999976158142,0.00699999975040555
1683015742722727200,23.32072705078125,0.5746999979019165,0.42649999260902405,-0.4819999933242798
1683015742742727200,23.34072705078125,0.21689999103546143,-0.24849998950958252,0.20989999175071716
1683015742762727200,23.36072705078125,-0.029099998995661736,0.08739999681711197,0.19359999895095825
1683015742782727200,23.38072705078125,-0.1014999970793724,-0.049300000071525574,0.01850000023841858
1683015742802727200,23.40072705078125,-0.05819999799132347,0.00969999935477972,-0.029099998995661736
1683015742822727200,23.42072705078125,-0.017799999564886093,-0.019600000232458115,0.010599999688565731
1683015742842727200,23.44072705078125,0.01939999870955944,0.019199999049305916,0.010900000110268593
1683015742862727200,23.46072705078125,-0.002899999963119626,-0.03019999898970127,0.0405999980866909
1683015742882727200,23.48072705078125,0.04230000078678131,0.007899999618530273,-0.11339999735355377
1683015742902727200,23.50072705078125,0.04939999803900719,-0.04169999808073044,-0.0139999995008111
1683015742922727200,23.52072705078125,0.07699999958276749,0.017099998891353607,0.053199999034404755
1683015742942727200,23.54072705078125,0.06650000065565109,0.046699997037649155,0.061799999326467514
1683015742962727200,23.56072705078125,0.01860000006854534,0.027300000190734863,0.07119999825954437
1683015742982727200,23.58072705078125,-0.05810000002384186,-0.02149999886751175,0.1006999984383583
1683015743002727200,23.60072705078125,-0.06799999624490738,-0.06109999865293503,0.014299999922513962
1683015743022727200,23.62072705078125,0.006599999964237213,-0.04270000010728836,-0.041099999099969864
1683015743042727200,23.64072705078125,0.05979999899864197,0.014699999243021011,0.020399998873472214
1683015743062727200,23.66072705078125,0.16200000047683716,0.02329999953508377,0.02279999852180481
1683015743082727200,23.68072705078125,0.3750999867916107,-0.09549999982118607,-0.08100000023841858
1683015743102727200,23.70072705078125,-0.02499999850988388,0.04360000044107437,0.025299999862909317
1683015743122727200,23.72072705078125,0.02889999933540821,-0.032499998807907104,0.03350000083446503
1683015743142727200,23.74072705078125,-0.055799998342990875,-0.05009999871253967,-0.0851999968290329
1683015743162727200,23.76072705078125,-0.15359999239444733,-0.008999999612569809,0.05939999967813492
1683015743182727200,23.78072705078125,-0.17960000038146973,0.011500000022351742,0.1354999989271164
1683015743202727200,23.80072705078125,-0.06589999794960022,0.0009999999310821295,0.09669999778270721
1683015743222727200,23.82072705078125,-0.025599999353289604,0.02850000001490116,0.03179999813437462
1683015743242727200,23.84072705078125,0.07090000063180923,0.0064999996684491634,0.045499999076128006
1683015743262727200,23.86072705078125,0.148499995470047,-0.005399999674409628,0.039799999445676804
1683015743282727200,23.88072705078125,0.14139999449253082,-0.03700000047683716,-0.10159999877214432
1683015743302727200,23.90072705078125,0.07909999787807465,0.0009999999310821295,-0.08859999477863312
1683015743322727200,23.92072705078125,0.5892999768257141,-0.009099999442696571,-0.057099997997283936
1683015743342727200,23.94072705078125,0.25279998779296875,-0.06719999760389328,-0.016899999231100082
1683015743362727200,23.96072705078125,0.2750999927520752,0.05199999734759331,0.0908999964594841
1683015743382727200,23.98072705078125,0.058799996972084045,-0.06319999694824219,0.1014999970793724
